lang,stimuli,imageid,worddir,thisN,thisTrialN,thisRepN,key_resp.keys,key_resp.rt,key_resp.duration,trials.thisRepN,trials.thisTrialN,trials.thisN,trials.thisIndex,thisRow.t,notes,tutorial.started,tutorial.stopped,key_instruct.keys,key_instruct.rt,key_instruct.duration,instructblank.started,cross1.started,letterselect.started,imageword.started,text_2.started,cross2.started,key_resp.started,letterselect.stopped,trials.key_resp.keys,trials.key_resp.rt,trials.key_resp.duration,instructblank.stopped,cross1.stopped,ending.started,text_3.started,ending_key.started,ending.stopped,ending_key.keys,ending_key.rt,ending_key.duration,participant,session,date,expName,psychopyVersion,frameRate,expStart,
,,,,,,,,,,,,,,,,0.003800200007390231,3.2686885000148322,space,3.2339560999826062,None,,,,,,,,,,,,,,,,,,,,,DM_en,001,2025-03-09_13h36.00.174,MainFlow,2024.2.4,136.13350886665313,2025-03-09 13h36.16.891358 +0700,
2,1,66,word/worden0661.png,0,0,0,z,1.6618833999964409,None,0,0,0,0,3.314993600011803,,,,,,,3.314993600011803,3.314993600011803,4.286952700000256,4.311748000007356,4.311748000007356,4.311748000007356,4.311748000007356,5.978074200014817,z,1.6618833999964409,None,,,,,,,,,,DM_en,001,2025-03-09_13h36.00.174,MainFlow,2024.2.4,136.13350886665313,2025-03-09 13h36.16.891358 +0700,
2,1,3,word/worden0031.png,1,1,0,z,0.6259011999936774,None,0,1,1,1,5.983700600016164,,,,,,,5.983700600016164,5.983700600016164,7.003817200020421,7.00726990000112,7.00726990000112,7.00726990000112,7.00726990000112,7.637597499997355,z,0.6259011999936774,None,,,,,,,,,,DM_en,001,2025-03-09_13h36.00.174,MainFlow,2024.2.4,136.13350886665313,2025-03-09 13h36.16.891358 +0700,
2,2,71,word/worden0712.png,2,2,0,x,0.9633928000112064,None,0,2,2,2,7.64358830000856,,,,,,,7.64358830000856,7.64358830000856,8.642502700007753,8.645506400003796,8.645506400003796,8.645506400003796,8.645506400003796,9.616873799997848,x,0.9633928000112064,None,,,,,,,,,,DM_en,001,2025-03-09_13h36.00.174,MainFlow,2024.2.4,136.13350886665313,2025-03-09 13h36.16.891358 +0700,
2,3,27,word/worden0273.png,3,3,0,x,1.7896789999795146,None,0,3,3,3,9.621148900012486,,,,,,,9.621148900012486,9.621148900012486,10.629050300020026,10.632151600002544,10.632151600002544,10.632151600002544,10.632151600002544,12.42714860002161,x,1.7896789999795146,None,10.632151600002544,10.632151600002544,,,,,,,,DM_en,001,2025-03-09_13h36.00.174,MainFlow,2024.2.4,136.13350886665313,2025-03-09 13h36.16.891358 +0700,
2,3,88,word/worden0883.png,4,4,0,x,1.8092333999811672,None,0,4,4,4,12.432398700009799,,,,,,,12.432398700009799,12.432398700009799,13.453434399998514,13.457440600002883,13.457440600002883,13.457440600002883,13.457440600002883,15.268547800020315,x,1.8092333999811672,None,,,,,,,,,,DM_en,001,2025-03-09_13h36.00.174,MainFlow,2024.2.4,136.13350886665313,2025-03-09 13h36.16.891358 +0700,
2,1,28,word/worden0281.png,5,5,0,z,0.6310868000146002,None,0,5,5,5,15.273234100022819,,,,,,,15.273234100022819,15.273234100022819,16.290986300009536,16.295696100016357,16.295696100016357,16.295696100016357,16.295696100016357,16.929339700000128,z,0.6310868000146002,None,,,,,,,,,,DM_en,001,2025-03-09_13h36.00.174,MainFlow,2024.2.4,136.13350886665313,2025-03-09 13h36.16.891358 +0700,
2,1,50,word/worden0501.png,6,6,0,z,1.0092141999921296,None,0,6,6,6,16.937309800006915,,,,,,,16.937309800006915,16.937309800006915,17.942282600008184,17.94681049999781,17.94681049999781,17.94681049999781,17.94681049999781,18.961797800002387,z,1.0092141999921296,None,,,,,,,,,,DM_en,001,2025-03-09_13h36.00.174,MainFlow,2024.2.4,136.13350886665313,2025-03-09 13h36.16.891358 +0700,
2,1,41,word/worden0411.png,7,7,0,z,2.3027009000070393,None,0,7,7,7,18.966633500007447,,,,,,,18.966633500007447,18.966633500007447,19.986345300014364,19.99103330000071,19.99103330000071,19.99103330000071,19.99103330000071,22.29625310000847,z,2.3027009000070393,None,,,,,,,,,,DM_en,001,2025-03-09_13h36.00.174,MainFlow,2024.2.4,136.13350886665313,2025-03-09 13h36.16.891358 +0700,
2,2,52,word/worden0522.png,8,8,0,x,0.641750199982198,None,0,8,8,8,22.30123460001778,,,,,,,22.30123460001778,22.30123460001778,23.32543120000628,23.33022540001548,23.33022540001548,23.33022540001548,23.33022540001548,23.974808900005883,x,0.641750199982198,None,23.33022540001548,23.33022540001548,,,,,,,,DM_en,001,2025-03-09_13h36.00.174,MainFlow,2024.2.4,136.13350886665313,2025-03-09 13h36.16.891358 +0700,
2,3,6,word/worden0063.png,9,9,0,z,2.527430699992692,None,0,9,9,9,23.979555700003402,,,,,,,23.979555700003402,23.979555700003402,24.982859300012933,24.987320200016256,24.987320200016256,24.987320200016256,24.987320200016256,27.521224399999483,z,2.527430699992692,None,,,,,,,,,,DM_en,001,2025-03-09_13h36.00.174,MainFlow,2024.2.4,136.13350886665313,2025-03-09 13h36.16.891358 +0700,
2,3,46,word/worden0463.png,10,10,0,x,3.345541399990907,None,0,10,10,10,27.526512500015087,,,,,,,27.526512500015087,27.526512500015087,28.528969000006327,28.532069400011096,28.532069400011096,28.532069400011096,28.532069400011096,31.88274359999923,x,3.345541399990907,None,,,,,,,,,,DM_en,001,2025-03-09_13h36.00.174,MainFlow,2024.2.4,136.13350886665313,2025-03-09 13h36.16.891358 +0700,
2,2,30,word/worden0302.png,11,11,0,x,0.9771831999823917,None,0,11,11,11,31.887493700021878,,,,,,,31.887493700021878,31.887493700021878,32.89141420001397,32.89560440002242,32.89560440002242,32.89560440002242,32.89560440002242,33.875488799996674,x,0.9771831999823917,None,,,,,,,,,,DM_en,001,2025-03-09_13h36.00.174,MainFlow,2024.2.4,136.13350886665313,2025-03-09 13h36.16.891358 +0700,
2,2,46,word/worden0462.png,12,12,0,x,0.6195382000005338,None,0,12,12,12,33.88042280002264,,,,,,,33.88042280002264,33.88042280002264,34.88913520000642,34.89411230001133,34.89411230001133,34.89411230001133,34.89411230001133,35.516406500013545,x,0.6195382000005338,None,,,,,,,,,,DM_en,001,2025-03-09_13h36.00.174,MainFlow,2024.2.4,136.13350886665313,2025-03-09 13h36.16.891358 +0700,
2,2,70,word/worden0702.png,13,13,0,x,0.8101933999860194,None,0,13,13,13,35.52285830001347,,,,,,,35.52285830001347,35.52285830001347,36.53388650002307,36.53864800001611,36.53864800001611,36.53864800001611,36.53864800001611,37.3528877000208,x,0.8101933999860194,None,,,,,,,,,,DM_en,001,2025-03-09_13h36.00.174,MainFlow,2024.2.4,136.13350886665313,2025-03-09 13h36.16.891358 +0700,
2,1,70,word/worden0701.png,14,14,0,z,0.7537995000020601,None,0,14,14,14,37.35803870001109,,,,,,,37.35803870001109,37.35803870001109,38.36094410001533,38.36384520001593,38.36384520001593,38.36384520001593,38.36384520001593,39.12368350001634,z,0.7537995000020601,None,,,,,,,,,,DM_en,001,2025-03-09_13h36.00.174,MainFlow,2024.2.4,136.13350886665313,2025-03-09 13h36.16.891358 +0700,
2,1,8,word/worden0081.png,15,15,0,z,0.6504993000125978,None,0,15,15,15,39.12848750001285,,,,,,,39.12848750001285,39.12848750001285,40.14402669999981,40.14758530000108,40.14758530000108,40.14758530000108,40.14758530000108,40.80487049999647,z,0.6504993000125978,None,,,,,,,,,,DM_en,001,2025-03-09_13h36.00.174,MainFlow,2024.2.4,136.13350886665313,2025-03-09 13h36.16.891358 +0700,
2,3,61,word/worden0613.png,16,16,0,x,0.8309863999893423,None,0,16,16,16,40.80888580001192,,,,,,,40.80888580001192,40.80888580001192,41.80953890000819,41.81283540002187,41.81283540002187,41.81283540002187,41.81283540002187,42.653349200001685,x,0.8309863999893423,None,,,,,,,,,,DM_en,001,2025-03-09_13h36.00.174,MainFlow,2024.2.4,136.13350886665313,2025-03-09 13h36.16.891358 +0700,
2,3,10,word/worden0103.png,17,17,0,x,0.7764565999968909,None,0,17,17,17,42.655794899998,,,,,,,42.655794899998,42.655794899998,43.67111910000676,43.67542559999856,43.67542559999856,43.67542559999856,43.67542559999856,44.4559031999961,x,0.7764565999968909,None,43.67542559999856,43.67542559999856,,,,,,,,DM_en,001,2025-03-09_13h36.00.174,MainFlow,2024.2.4,136.13350886665313,2025-03-09 13h36.16.891358 +0700,
2,3,75,word/worden0753.png,18,18,0,x,0.7575695999839809,None,0,18,18,18,44.461452000017744,,,,,,,44.461452000017744,44.461452000017744,45.45923920001951,45.46214489999693,45.46214489999693,45.46214489999693,45.46214489999693,46.226089200004935,x,0.7575695999839809,None,,,,,,,,,,DM_en,001,2025-03-09_13h36.00.174,MainFlow,2024.2.4,136.13350886665313,2025-03-09 13h36.16.891358 +0700,
2,2,63,word/worden0632.png,19,19,0,x,0.409957800002303,None,0,19,19,19,46.23114060002263,,,,,,,46.23114060002263,46.23114060002263,47.22850749999634,47.231374800001504,47.231374800001504,47.231374800001504,47.231374800001504,47.643386900017504,x,0.409957800002303,None,,,,,,,,,,DM_en,001,2025-03-09_13h36.00.174,MainFlow,2024.2.4,136.13350886665313,2025-03-09 13h36.16.891358 +0700,
2,3,11,word/worden0113.png,20,20,0,x,0.4295659000054002,None,0,20,20,20,47.64777860001777,,,,,,,47.64777860001777,47.64777860001777,48.66855990001932,48.67217490001349,48.67217490001349,48.67217490001349,48.67217490001349,49.10797540002386,x,0.4295659000054002,None,,,,,,,,,,DM_en,001,2025-03-09_13h36.00.174,MainFlow,2024.2.4,136.13350886665313,2025-03-09 13h36.16.891358 +0700,
2,2,89,word/worden0892.png,21,21,0,x,0.545144400006393,None,0,21,21,21,49.11278850000235,,,,,,,49.11278850000235,49.11278850000235,50.114094700024,50.11706610000692,50.11706610000692,50.11706610000692,50.11706610000692,50.66922930002329,x,0.545144400006393,None,,,,,,,,,,DM_en,001,2025-03-09_13h36.00.174,MainFlow,2024.2.4,136.13350886665313,2025-03-09 13h36.16.891358 +0700,
2,1,9,word/worden0091.png,22,22,0,z,0.44573329997365363,None,0,22,22,22,50.67471580000711,,,,,,,50.67471580000711,50.67471580000711,51.678352700022515,51.68151990001206,51.68151990001206,51.68151990001206,51.68151990001206,52.1345659000217,z,0.44573329997365363,None,,,,,,,,,,DM_en,001,2025-03-09_13h36.00.174,MainFlow,2024.2.4,136.13350886665313,2025-03-09 13h36.16.891358 +0700,
2,3,28,word/worden0283.png,23,23,0,x,1.1660779000085313,None,0,23,23,23,52.139848400023766,,,,,,,52.139848400023766,52.139848400023766,53.14181600001757,53.14497540000593,53.14497540000593,53.14497540000593,53.14497540000593,54.315227100014454,x,1.1660779000085313,None,,,,,,,,,,DM_en,001,2025-03-09_13h36.00.174,MainFlow,2024.2.4,136.13350886665313,2025-03-09 13h36.16.891358 +0700,
2,1,82,word/worden0821.png,24,24,0,z,0.8274154999817256,None,0,24,24,24,54.320088200009195,,,,,,,54.320088200009195,54.320088200009195,55.33611440000823,55.33959260000847,55.33959260000847,55.33959260000847,55.33959260000847,56.16866120000486,z,0.8274154999817256,None,,,,,,,,,,DM_en,001,2025-03-09_13h36.00.174,MainFlow,2024.2.4,136.13350886665313,2025-03-09 13h36.16.891358 +0700,
2,2,28,word/worden0282.png,25,25,0,x,0.8227529999858234,None,0,25,25,25,56.173914400016656,,,,,,,56.173914400016656,56.173914400016656,57.1952724000148,57.198836700001266,57.198836700001266,57.198836700001266,57.198836700001266,58.02452470001299,x,0.8227529999858234,None,,,,,,,,,,DM_en,001,2025-03-09_13h36.00.174,MainFlow,2024.2.4,136.13350886665313,2025-03-09 13h36.16.891358 +0700,
2,1,23,word/worden0231.png,26,26,0,z,0.8563992000126746,None,0,26,26,26,58.029233300010674,,,,,,,58.029233300010674,58.029233300010674,59.039026400016155,59.043105300021125,59.043105300021125,59.043105300021125,59.043105300021125,59.90682190001826,z,0.8563992000126746,None,,,,,,,,,,DM_en,001,2025-03-09_13h36.00.174,MainFlow,2024.2.4,136.13350886665313,2025-03-09 13h36.16.891358 +0700,
2,2,42,word/worden0422.png,27,27,0,x,0.532683099998394,None,0,27,27,27,59.91109390000929,,,,,,,59.91109390000929,59.91109390000929,60.92731020000065,60.932068699999945,60.932068699999945,60.932068699999945,60.932068699999945,61.4687883000006,x,0.532683099998394,None,60.932068699999945,60.932068699999945,,,,,,,,DM_en,001,2025-03-09_13h36.00.174,MainFlow,2024.2.4,136.13350886665313,2025-03-09 13h36.16.891358 +0700,
2,2,93,word/worden0932.png,28,28,0,x,0.5089964999933727,None,0,28,28,28,61.47469820000697,,,,,,,61.47469820000697,61.47469820000697,62.481581000000006,62.48447640001541,62.48447640001541,62.48447640001541,62.48447640001541,62.999845900019864,x,0.5089964999933727,None,62.48447640001541,62.48447640001541,,,,,,,,DM_en,001,2025-03-09_13h36.00.174,MainFlow,2024.2.4,136.13350886665313,2025-03-09 13h36.16.891358 +0700,
2,1,88,word/worden0881.png,29,29,0,x,0.49887139999191277,None,0,29,29,29,63.00573450000957,,,,,,,63.00573450000957,63.00573450000957,64.00228100002278,64.00529210001696,64.00529210001696,64.00529210001696,64.00529210001696,64.50713390001329,x,0.49887139999191277,None,,,,,,,,,,DM_en,001,2025-03-09_13h36.00.174,MainFlow,2024.2.4,136.13350886665313,2025-03-09 13h36.16.891358 +0700,
2,3,31,word/worden0313.png,30,30,0,x,1.969394400017336,None,0,30,30,30,64.51245910002035,,,,,,,64.51245910002035,64.51245910002035,65.52683410001919,65.53047580001294,65.53047580001294,65.53047580001294,65.53047580001294,67.50636040000245,x,1.969394400017336,None,,,,,,,,,,DM_en,001,2025-03-09_13h36.00.174,MainFlow,2024.2.4,136.13350886665313,2025-03-09 13h36.16.891358 +0700,
2,2,75,word/worden0752.png,31,31,0,x,1.0336797000200022,None,0,31,31,31,67.51180780000868,,,,,,,67.51180780000868,67.51180780000868,68.5091936000099,68.51225860000704,68.51225860000704,68.51225860000704,68.51225860000704,69.54802750001545,x,1.0336797000200022,None,,,,,,,,,,DM_en,001,2025-03-09_13h36.00.174,MainFlow,2024.2.4,136.13350886665313,2025-03-09 13h36.16.891358 +0700,
2,2,48,word/worden0482.png,32,32,0,x,1.4054979000065941,None,0,32,32,32,69.55327230002149,,,,,,,69.55327230002149,69.55327230002149,70.56383110000752,70.56743170000846,70.56743170000846,70.56743170000846,70.56743170000846,71.97783370001707,x,1.4054979000065941,None,,,,,,,,,,DM_en,001,2025-03-09_13h36.00.174,MainFlow,2024.2.4,136.13350886665313,2025-03-09 13h36.16.891358 +0700,
2,1,26,word/worden0261.png,33,33,0,x,2.7459365999966394,None,0,33,33,33,71.98317110000062,,,,,,,71.98317110000062,71.98317110000062,72.98587920001592,72.98895400000038,72.98895400000038,72.98895400000038,72.98895400000038,75.74233770000865,x,2.7459365999966394,None,,,,,,,,,,DM_en,001,2025-03-09_13h36.00.174,MainFlow,2024.2.4,136.13350886665313,2025-03-09 13h36.16.891358 +0700,
2,2,41,word/worden0412.png,34,34,0,x,0.7004879000014625,None,0,34,34,34,75.7468583000009,,,,,,,75.7468583000009,75.7468583000009,76.76561420000507,76.76964569999836,76.76964569999836,76.76964569999836,76.76964569999836,77.47150360001251,x,0.7004879000014625,None,,,,,,,,,,DM_en,001,2025-03-09_13h36.00.174,MainFlow,2024.2.4,136.13350886665313,2025-03-09 13h36.16.891358 +0700,
2,3,66,word/worden0663.png,35,35,0,x,0.7463684999966063,None,0,35,35,35,77.47613740002271,,,,,,,77.47613740002271,77.47613740002271,78.47745480001322,78.48035540001001,78.48035540001001,78.48035540001001,78.48035540001001,79.23335429999861,x,0.7463684999966063,None,,,,,,,,,,DM_en,001,2025-03-09_13h36.00.174,MainFlow,2024.2.4,136.13350886665313,2025-03-09 13h36.16.891358 +0700,
2,1,6,word/worden0061.png,36,36,0,z,0.6180030000105035,None,0,36,36,36,79.23872150000534,,,,,,,79.23872150000534,79.23872150000534,80.25425230001565,80.25773700000718,80.25773700000718,80.25773700000718,80.25773700000718,80.87926000001607,z,0.6180030000105035,None,,,,,,,,,,DM_en,001,2025-03-09_13h36.00.174,MainFlow,2024.2.4,136.13350886665313,2025-03-09 13h36.16.891358 +0700,
2,1,42,word/worden0421.png,37,37,0,z,1.4170977999747265,None,0,37,37,37,80.88429580000229,,,,,,,80.88429580000229,80.88429580000229,81.9048257000104,81.90823510001064,81.90823510001064,81.90823510001064,81.90823510001064,83.33222979999846,z,1.4170977999747265,None,,,,,,,,,,DM_en,001,2025-03-09_13h36.00.174,MainFlow,2024.2.4,136.13350886665313,2025-03-09 13h36.16.891358 +0700,
2,3,41,word/worden0413.png,38,38,0,x,1.4307390000030864,None,0,38,38,38,83.33831430002465,,,,,,,83.33831430002465,83.33831430002465,84.35642240001471,84.36048350000056,84.36048350000056,84.36048350000056,84.36048350000056,85.79559000002337,x,1.4307390000030864,None,84.36048350000056,84.36048350000056,,,,,,,,DM_en,001,2025-03-09_13h36.00.174,MainFlow,2024.2.4,136.13350886665313,2025-03-09 13h36.16.891358 +0700,
2,2,23,word/worden0232.png,39,39,0,x,0.9689752999984194,None,0,39,39,39,85.80062870000256,,,,,,,85.80062870000256,85.80062870000256,86.81729410000844,86.82239800001844,86.82239800001844,86.82239800001844,86.82239800001844,87.79802509999718,x,0.9689752999984194,None,,,,,,,,,,DM_en,001,2025-03-09_13h36.00.174,MainFlow,2024.2.4,136.13350886665313,2025-03-09 13h36.16.891358 +0700,
2,3,96,word/worden0963.png,40,40,0,x,2.5106034000054933,None,0,40,40,40,87.80263849999756,,,,,,,87.80263849999756,87.80263849999756,88.81954100000439,88.82425170001807,88.82425170001807,88.82425170001807,88.82425170001807,91.33694130001822,x,2.5106034000054933,None,88.82425170001807,88.82425170001807,,,,,,,,DM_en,001,2025-03-09_13h36.00.174,MainFlow,2024.2.4,136.13350886665313,2025-03-09 13h36.16.891358 +0700,
2,1,61,word/worden0611.png,41,41,0,x,3.4481547999894246,None,0,41,41,41,91.34162580000702,,,,,,,91.34162580000702,91.34162580000702,92.34590549999848,92.35078750000685,92.35078750000685,92.35078750000685,92.35078750000685,95.80103820000659,x,3.4481547999894246,None,,,,,,,,,,DM_en,001,2025-03-09_13h36.00.174,MainFlow,2024.2.4,136.13350886665313,2025-03-09 13h36.16.891358 +0700,
2,3,9,word/worden0093.png,42,42,0,z,1.233986899984302,None,0,42,42,42,95.8060008000175,,,,,,,95.8060008000175,95.8060008000175,96.82218690001173,96.82694400000037,96.82694400000037,96.82694400000037,96.82694400000037,98.06432910001604,z,1.233986899984302,None,,,,,,,,,,DM_en,001,2025-03-09_13h36.00.174,MainFlow,2024.2.4,136.13350886665313,2025-03-09 13h36.16.891358 +0700,
2,3,63,word/worden0633.png,43,43,0,x,4.220268399978522,None,0,43,43,43,98.06941850000294,,,,,,,98.06941850000294,98.06941850000294,99.08492029999616,99.08994360000361,99.08994360000361,99.08994360000361,99.08994360000361,103.31324020001921,x,4.220268399978522,None,,,,,,,,,,DM_en,001,2025-03-09_13h36.00.174,MainFlow,2024.2.4,136.13350886665313,2025-03-09 13h36.16.891358 +0700,
2,3,50,word/worden0503.png,44,44,0,x,1.2207205999875441,None,0,44,44,44,103.31835830002092,,,,,,,103.31835830002092,103.31835830002092,104.3207368000003,104.3251150000142,104.3251150000142,104.3251150000142,104.3251150000142,105.54894730000524,x,1.2207205999875441,None,,,,,,,,,,DM_en,001,2025-03-09_13h36.00.174,MainFlow,2024.2.4,136.13350886665313,2025-03-09 13h36.16.891358 +0700,
2,2,27,word/worden0272.png,45,45,0,x,0.6378434999787714,None,0,45,45,45,105.55408240001998,,,,,,,105.55408240001998,105.55408240001998,106.56180769999628,106.56655899999896,106.56655899999896,106.56655899999896,106.56655899999896,107.21115430002101,x,0.6378434999787714,None,,,,,,,,,,DM_en,001,2025-03-09_13h36.00.174,MainFlow,2024.2.4,136.13350886665313,2025-03-09 13h36.16.891358 +0700,
2,2,61,word/worden0612.png,46,46,0,x,1.4989110000024084,None,0,46,46,46,107.21520450001117,,,,,,,107.21520450001117,107.21520450001117,108.23669360001804,108.24176100001205,108.24176100001205,108.24176100001205,108.24176100001205,109.74306239999714,x,1.4989110000024084,None,108.24176100001205,108.24176100001205,,,,,,,,DM_en,001,2025-03-09_13h36.00.174,MainFlow,2024.2.4,136.13350886665313,2025-03-09 13h36.16.891358 +0700,
2,3,7,word/worden0073.png,47,47,0,x,3.9957163000071887,None,0,47,47,47,109.74775609999779,,,,,,,109.74775609999779,109.74775609999779,110.7577053999994,110.7626292000059,110.7626292000059,110.7626292000059,110.7626292000059,114.76208790001692,x,3.9957163000071887,None,,,,,,,,,,DM_en,001,2025-03-09_13h36.00.174,MainFlow,2024.2.4,136.13350886665313,2025-03-09 13h36.16.891358 +0700,
2,3,23,word/worden0233.png,48,48,0,x,1.3623712999979034,None,0,48,48,48,114.7675137000042,,,,,,,114.7675137000042,114.7675137000042,115.7755029000109,115.78031190001639,115.78031190001639,115.78031190001639,115.78031190001639,117.14383169999928,x,1.3623712999979034,None,,,,,,,,,,DM_en,001,2025-03-09_13h36.00.174,MainFlow,2024.2.4,136.13350886665313,2025-03-09 13h36.16.891358 +0700,
2,1,95,word/worden0951.png,49,49,0,z,1.2140789999975823,None,0,49,49,49,117.14898460000404,,,,,,,117.14898460000404,117.14898460000404,118.16552629999933,118.17031820002012,118.17031820002012,118.17031820002012,118.17031820002012,119.38729939999757,z,1.2140789999975823,None,,,,,,,,,,DM_en,001,2025-03-09_13h36.00.174,MainFlow,2024.2.4,136.13350886665313,2025-03-09 13h36.16.891358 +0700,
2,3,42,word/worden0423.png,50,50,0,x,0.9706973000138532,None,0,50,50,50,119.39252140000463,,,,,,,119.39252140000463,119.39252140000463,120.39966060000006,120.4026545000088,120.4026545000088,120.4026545000088,120.4026545000088,121.37770440001623,x,0.9706973000138532,None,120.4026545000088,120.4026545000088,,,,,,,,DM_en,001,2025-03-09_13h36.00.174,MainFlow,2024.2.4,136.13350886665313,2025-03-09 13h36.16.891358 +0700,
2,1,30,word/worden0301.png,51,51,0,z,0.5780453000043053,None,0,51,51,51,121.38336130001699,,,,,,,121.38336130001699,121.38336130001699,122.3842078000016,122.38739600000554,122.38739600000554,122.38739600000554,122.38739600000554,122.96895030001178,z,0.5780453000043053,None,,,,,,,,,,DM_en,001,2025-03-09_13h36.00.174,MainFlow,2024.2.4,136.13350886665313,2025-03-09 13h36.16.891358 +0700,
2,3,87,word/worden0873.png,52,52,0,x,1.1640936999756377,None,0,52,52,52,122.97360570001183,,,,,,,122.97360570001183,122.97360570001183,123.98704239999643,123.9910785999964,123.9910785999964,123.9910785999964,123.9910785999964,125.1576122000115,x,1.1640936999756377,None,,,,,,,,,,DM_en,001,2025-03-09_13h36.00.174,MainFlow,2024.2.4,136.13350886665313,2025-03-09 13h36.16.891358 +0700,
2,2,6,word/worden0062.png,53,53,0,x,0.7078662000130862,None,0,53,53,53,125.16234320000513,,,,,,,125.16234320000513,125.16234320000513,126.17961490000016,126.18449520002468,126.18449520002468,126.18449520002468,126.18449520002468,126.89917710001464,x,0.7078662000130862,None,,,,,,,,,,DM_en,001,2025-03-09_13h36.00.174,MainFlow,2024.2.4,136.13350886665313,2025-03-09 13h36.16.891358 +0700,
2,2,68,word/worden0682.png,54,54,0,x,0.6778576000069734,None,0,54,54,54,126.90409759999602,,,,,,,126.90409759999602,126.90409759999602,127.90537640001276,127.90979840001091,127.90979840001091,127.90979840001091,127.90979840001091,128.59334049999597,x,0.6778576000069734,None,,,,,,,,,,DM_en,001,2025-03-09_13h36.00.174,MainFlow,2024.2.4,136.13350886665313,2025-03-09 13h36.16.891358 +0700,
2,3,1,word/worden0013.png,55,55,0,x,2.5841018999926746,None,0,55,55,55,128.59827220000443,,,,,,,128.59827220000443,128.59827220000443,129.59649399999762,129.60078200002317,129.60078200002317,129.60078200002317,129.60078200002317,132.1900758999982,x,2.5841018999926746,None,,,,,,,,,,DM_en,001,2025-03-09_13h36.00.174,MainFlow,2024.2.4,136.13350886665313,2025-03-09 13h36.16.891358 +0700,
2,2,94,word/worden0942.png,56,56,0,x,1.132813400006853,None,0,56,56,56,132.1948434000078,,,,,,,132.1948434000078,132.1948434000078,133.21510850000777,133.21984420000808,133.21984420000808,133.21984420000808,133.21984420000808,134.356225800002,x,1.132813400006853,None,,,,,,,,,,DM_en,001,2025-03-09_13h36.00.174,MainFlow,2024.2.4,136.13350886665313,2025-03-09 13h36.16.891358 +0700,
2,3,82,word/worden0823.png,57,57,0,x,0.5939435999898706,None,0,57,57,57,134.36141199999838,,,,,,,134.36141199999838,134.36141199999838,135.3594899000018,135.36393730001873,135.36393730001873,135.36393730001873,135.36393730001873,135.96542350001982,x,0.5939435999898706,None,,,,,,,,,,DM_en,001,2025-03-09_13h36.00.174,MainFlow,2024.2.4,136.13350886665313,2025-03-09 13h36.16.891358 +0700,
2,1,89,word/worden0891.png,58,58,0,z,1.7763195000006817,None,0,58,58,58,135.96967590000713,,,,,,,135.96967590000713,135.96967590000713,136.99033290002262,136.99574120002217,136.99574120002217,136.99574120002217,136.99574120002217,138.77944220000063,z,1.7763195000006817,None,,,,,,,,,,DM_en,001,2025-03-09_13h36.00.174,MainFlow,2024.2.4,136.13350886665313,2025-03-09 13h36.16.891358 +0700,
2,1,31,word/worden0311.png,59,59,0,z,0.8869586000218987,None,0,59,59,59,138.78368500000215,,,,,,,138.78368500000215,138.78368500000215,139.79037910001352,139.7948497000034,139.7948497000034,139.7948497000034,139.7948497000034,140.68824109999696,z,0.8869586000218987,None,,,,,,,,,,DM_en,001,2025-03-09_13h36.00.174,MainFlow,2024.2.4,136.13350886665313,2025-03-09 13h36.16.891358 +0700,
2,2,51,word/worden0512.png,60,60,0,x,0.7280969999847002,None,0,60,60,60,140.6930409000197,,,,,,,140.6930409000197,140.6930409000197,141.69955990000744,141.70395769999595,141.70395769999595,141.70395769999595,141.70395769999595,142.43901230001939,x,0.7280969999847002,None,,,,,,,,,,DM_en,001,2025-03-09_13h36.00.174,MainFlow,2024.2.4,136.13350886665313,2025-03-09 13h36.16.891358 +0700,
2,3,44,word/worden0443.png,61,61,0,z,1.1175751999835484,None,0,61,61,61,142.44293670001207,,,,,,,142.44293670001207,142.44293670001207,143.43933350002044,143.44384520000312,143.44384520000312,143.44384520000312,143.44384520000312,144.56362349999836,z,1.1175751999835484,None,,,,,,,,,,DM_en,001,2025-03-09_13h36.00.174,MainFlow,2024.2.4,136.13350886665313,2025-03-09 13h36.16.891358 +0700,
2,1,1,word/worden0011.png,62,62,0,z,0.8610072000010405,None,0,62,62,62,144.5686794000212,,,,,,,144.5686794000212,144.5686794000212,145.5883664000139,145.5932869000244,145.5932869000244,145.5932869000244,145.5932869000244,146.4584831999964,z,0.8610072000010405,None,,,,,,,,,,DM_en,001,2025-03-09_13h36.00.174,MainFlow,2024.2.4,136.13350886665313,2025-03-09 13h36.16.891358 +0700,
2,1,96,word/worden0961.png,63,63,0,z,0.8976384999987204,None,0,63,63,63,146.4635662000219,,,,,,,146.4635662000219,146.4635662000219,147.47907780000241,147.4840283000085,147.4840283000085,147.4840283000085,147.4840283000085,148.38840429999982,z,0.8976384999987204,None,,,,,,,,,,DM_en,001,2025-03-09_13h36.00.174,MainFlow,2024.2.4,136.13350886665313,2025-03-09 13h36.16.891358 +0700,
2,1,11,word/worden0111.png,64,64,0,z,1.0501682000176515,None,0,64,64,64,148.39300670000375,,,,,,,148.39300670000375,148.39300670000375,149.40053090002039,149.40528490001452,149.40528490001452,149.40528490001452,149.40528490001452,150.45665890001692,z,1.0501682000176515,None,,,,,,,,,,DM_en,001,2025-03-09_13h36.00.174,MainFlow,2024.2.4,136.13350886665313,2025-03-09 13h36.16.891358 +0700,
2,3,70,word/worden0703.png,65,65,0,z,3.4843070000060834,None,0,65,65,65,150.4620072999969,,,,,,,150.4620072999969,150.4620072999969,151.47828490001848,151.4827365000092,151.4827365000092,151.4827365000092,151.4827365000092,154.9714842000103,z,3.4843070000060834,None,,,,,,,,,,DM_en,001,2025-03-09_13h36.00.174,MainFlow,2024.2.4,136.13350886665313,2025-03-09 13h36.16.891358 +0700,
2,3,71,word/worden0713.png,66,66,0,x,0.5467657999834046,None,0,66,66,66,154.97859030001564,,,,,,,154.97859030001564,154.97859030001564,155.97433910000836,155.97878580001998,155.97878580001998,155.97878580001998,155.97878580001998,156.53526720000082,x,0.5467657999834046,None,,,,,,,,,,DM_en,001,2025-03-09_13h36.00.174,MainFlow,2024.2.4,136.13350886665313,2025-03-09 13h36.16.891358 +0700,
2,1,68,word/worden0681.png,67,67,0,z,0.8663629999791738,None,0,67,67,67,156.53819120000117,,,,,,,156.53819120000117,156.53819120000117,157.55648970001494,157.56158420001157,157.56158420001157,157.56158420001157,157.56158420001157,158.43463000000338,z,0.8663629999791738,None,157.56158420001157,157.56158420001157,,,,,,,,DM_en,001,2025-03-09_13h36.00.174,MainFlow,2024.2.4,136.13350886665313,2025-03-09 13h36.16.891358 +0700,
2,2,88,word/worden0882.png,68,68,0,x,0.7464498000044841,None,0,68,68,68,158.43968510002014,,,,,,,158.43968510002014,158.43968510002014,159.4570985000173,159.46327890001703,159.46327890001703,159.46327890001703,159.46327890001703,160.2136148000136,x,0.7464498000044841,None,,,,,,,,,,DM_en,001,2025-03-09_13h36.00.174,MainFlow,2024.2.4,136.13350886665313,2025-03-09 13h36.16.891358 +0700,
2,2,50,word/worden0502.png,69,69,0,x,0.9787748000235297,None,0,69,69,69,160.21991770001478,,,,,,,160.21991770001478,160.21991770001478,161.22346810001181,161.2284916000208,161.2284916000208,161.2284916000208,161.2284916000208,162.21210090001114,x,0.9787748000235297,None,,,,,,,,,,DM_en,001,2025-03-09_13h36.00.174,MainFlow,2024.2.4,136.13350886665313,2025-03-09 13h36.16.891358 +0700,
2,3,93,word/worden0933.png,70,70,0,x,1.375618599995505,None,0,70,70,70,162.21680789999664,,,,,,,162.21680789999664,162.21680789999664,163.21890220002388,163.2238635000249,163.2238635000249,163.2238635000249,163.2238635000249,164.60089970001718,x,1.375618599995505,None,,,,,,,,,,DM_en,001,2025-03-09_13h36.00.174,MainFlow,2024.2.4,136.13350886665313,2025-03-09 13h36.16.891358 +0700,
2,1,63,word/worden0631.png,71,71,0,z,0.7072897999896668,None,0,71,71,71,164.60518350001075,,,,,,,164.60518350001075,164.60518350001075,165.625481199997,165.6304550000059,165.6304550000059,165.6304550000059,165.6304550000059,166.34389080002438,z,0.7072897999896668,None,,,,,,,,,,DM_en,001,2025-03-09_13h36.00.174,MainFlow,2024.2.4,136.13350886665313,2025-03-09 13h36.16.891358 +0700,
2,2,7,word/worden0072.png,72,72,0,x,0.6500166000041645,None,0,72,72,72,166.34781170001952,,,,,,,166.34781170001952,166.34781170001952,167.3610554000188,167.36621900001774,167.36621900001774,167.36621900001774,167.36621900001774,168.01854650001042,x,0.6500166000041645,None,,,,,,,,,,DM_en,001,2025-03-09_13h36.00.174,MainFlow,2024.2.4,136.13350886665313,2025-03-09 13h36.16.891358 +0700,
2,2,64,word/worden0642.png,73,73,0,x,1.8097896000253968,None,0,73,73,73,168.02545690000989,,,,,,,168.02545690000989,168.02545690000989,169.02581220000866,169.03016550000757,169.03016550000757,169.03016550000757,169.03016550000757,170.84361979999812,x,1.8097896000253968,None,,,,,,,,,,DM_en,001,2025-03-09_13h36.00.174,MainFlow,2024.2.4,136.13350886665313,2025-03-09 13h36.16.891358 +0700,
2,1,24,word/worden0241.png,74,74,0,z,0.9546626999799628,None,0,74,74,74,170.84878830000525,,,,,,,170.84878830000525,170.84878830000525,171.84924219999812,171.85388270000112,171.85388270000112,171.85388270000112,171.85388270000112,172.81629960000282,z,0.9546626999799628,None,,,,,,,,,,DM_en,001,2025-03-09_13h36.00.174,MainFlow,2024.2.4,136.13350886665313,2025-03-09 13h36.16.891358 +0700,
2,2,1,word/worden0012.png,75,75,0,x,0.6710573000018485,None,0,75,75,75,172.82303310002317,,,,,,,172.82303310002317,172.82303310002317,173.8477807000163,173.8527829000086,173.8527829000086,173.8527829000086,173.8527829000086,174.52884320000885,x,0.6710573000018485,None,,,,,,,,,,DM_en,001,2025-03-09_13h36.00.174,MainFlow,2024.2.4,136.13350886665313,2025-03-09 13h36.16.891358 +0700,
2,1,46,word/worden0461.png,76,76,0,z,1.3051621999766212,None,0,76,76,76,174.53379630000563,,,,,,,174.53379630000563,174.53379630000563,175.53074400001788,175.53369640000165,175.53369640000165,175.53369640000165,175.53369640000165,176.8404303000134,z,1.3051621999766212,None,,,,,,,,,,DM_en,001,2025-03-09_13h36.00.174,MainFlow,2024.2.4,136.13350886665313,2025-03-09 13h36.16.891358 +0700,
2,3,52,word/worden0523.png,77,77,0,x,1.1624665999843273,None,0,77,77,77,176.84491460002027,,,,,,,176.84491460002027,176.84491460002027,177.8626962999988,177.86605490001966,177.86605490001966,177.86605490001966,177.86605490001966,179.03438900000765,x,1.1624665999843273,None,,,,,,,,,,DM_en,001,2025-03-09_13h36.00.174,MainFlow,2024.2.4,136.13350886665313,2025-03-09 13h36.16.891358 +0700,
2,2,31,word/worden0312.png,78,78,0,x,0.8332155999960378,None,0,78,78,78,179.03912050000508,,,,,,,179.03912050000508,179.03912050000508,180.04130989999976,180.04413409999688,180.04413409999688,180.04413409999688,180.04413409999688,180.88069260001066,x,0.8332155999960378,None,,,,,,,,,,DM_en,001,2025-03-09_13h36.00.174,MainFlow,2024.2.4,136.13350886665313,2025-03-09 13h36.16.891358 +0700,
2,2,95,word/worden0952.png,79,79,0,x,1.4590800000005402,None,0,79,79,79,180.8857798000099,,,,,,,180.8857798000099,180.8857798000099,181.9008946000249,181.90425630001118,181.90425630001118,181.90425630001118,181.90425630001118,183.36645260002115,x,1.4590800000005402,None,,,,,,,,,,DM_en,001,2025-03-09_13h36.00.174,MainFlow,2024.2.4,136.13350886665313,2025-03-09 13h36.16.891358 +0700,
2,1,93,word/worden0931.png,80,80,0,z,1.5642087000014726,None,0,80,80,80,183.37154220000957,,,,,,,183.37154220000957,183.37154220000957,184.3788090000162,184.38237150001805,184.38237150001805,184.38237150001805,184.38237150001805,185.9492723000003,z,1.5642087000014726,None,,,,,,,,,,DM_en,001,2025-03-09_13h36.00.174,MainFlow,2024.2.4,136.13350886665313,2025-03-09 13h36.16.891358 +0700,
2,1,71,word/worden0711.png,81,81,0,z,1.7289868999796454,None,0,81,81,81,185.95427440002095,,,,,,,185.95427440002095,185.95427440002095,186.97428170000785,186.97824019999825,186.97824019999825,186.97824019999825,186.97824019999825,188.71241710000322,z,1.7289868999796454,None,,,,,,,,,,DM_en,001,2025-03-09_13h36.00.174,MainFlow,2024.2.4,136.13350886665313,2025-03-09 13h36.16.891358 +0700,
2,1,48,word/worden0481.png,82,82,0,z,2.055596099991817,None,0,82,82,82,188.71765210002195,,,,,,,188.71765210002195,188.71765210002195,189.73117149999598,189.7346723000228,189.7346723000228,189.7346723000228,189.7346723000228,191.79557600000408,z,2.055596099991817,None,,,,,,,,,,DM_en,001,2025-03-09_13h36.00.174,MainFlow,2024.2.4,136.13350886665313,2025-03-09 13h36.16.891358 +0700,
2,1,94,word/worden0941.png,83,83,0,z,2.000912999996217,None,0,83,83,83,191.80038369999966,,,,,,,191.80038369999966,191.80038369999966,192.82165980001446,192.82491440000013,192.82491440000013,192.82491440000013,192.82491440000013,194.82922630000394,z,2.000912999996217,None,,,,,,,,,,DM_en,001,2025-03-09_13h36.00.174,MainFlow,2024.2.4,136.13350886665313,2025-03-09 13h36.16.891358 +0700,
2,3,68,word/worden0683.png,84,84,0,x,1.6336430000083055,None,0,84,84,84,194.83459130002302,,,,,,,194.83459130002302,194.83459130002302,195.85234040001524,195.8557792000065,195.8557792000065,195.8557792000065,195.8557792000065,197.4959018000227,x,1.6336430000083055,None,,,,,,,,,,DM_en,001,2025-03-09_13h36.00.174,MainFlow,2024.2.4,136.13350886665313,2025-03-09 13h36.16.891358 +0700,
2,2,66,word/worden0662.png,85,85,0,x,1.4959277999878395,None,0,85,85,85,197.50072300000465,,,,,,,197.50072300000465,197.50072300000465,198.50294780000695,198.50598570000147,198.50598570000147,198.50598570000147,198.50598570000147,200.00888239999767,x,1.4959277999878395,None,,,,,,,,,,DM_en,001,2025-03-09_13h36.00.174,MainFlow,2024.2.4,136.13350886665313,2025-03-09 13h36.16.891358 +0700,
2,3,95,word/worden0953.png,86,86,0,x,2.048083300003782,None,0,86,86,86,200.0140530000208,,,,,,,200.0140530000208,200.0140530000208,201.0313794000249,201.03464950001216,201.03464950001216,201.03464950001216,201.03464950001216,203.08424860000378,x,2.048083300003782,None,,,,,,,,,,DM_en,001,2025-03-09_13h36.00.174,MainFlow,2024.2.4,136.13350886665313,2025-03-09 13h36.16.891358 +0700,
2,3,30,word/worden0303.png,87,87,0,z,1.430848199990578,None,0,87,87,87,203.08993570000166,,,,,,,203.08993570000166,203.08993570000166,204.11092750000535,204.11435280001024,204.11435280001024,204.11435280001024,204.11435280001024,205.5496478000132,z,1.430848199990578,None,,,,,,,,,,DM_en,001,2025-03-09_13h36.00.174,MainFlow,2024.2.4,136.13350886665313,2025-03-09 13h36.16.891358 +0700,
2,3,22,word/worden0223.png,88,88,0,x,1.3639249000116251,None,0,88,88,88,205.5547227000061,,,,,,,205.5547227000061,205.5547227000061,206.57057959999656,206.57454870000947,206.57454870000947,206.57454870000947,206.57454870000947,207.94624270001077,x,1.3639249000116251,None,,,,,,,,,,DM_en,001,2025-03-09_13h36.00.174,MainFlow,2024.2.4,136.13350886665313,2025-03-09 13h36.16.891358 +0700,
2,1,75,word/worden0751.png,89,89,0,z,2.7062419000139926,None,0,89,89,89,207.94992030001595,,,,,,,207.94992030001595,207.94992030001595,208.9519214000029,208.9548957000079,208.9548957000079,208.9548957000079,208.9548957000079,211.66651480001747,z,2.7062419000139926,None,,,,,,,,,,DM_en,001,2025-03-09_13h36.00.174,MainFlow,2024.2.4,136.13350886665313,2025-03-09 13h36.16.891358 +0700,
2,1,64,word/worden0641.png,90,90,0,z,1.6588667000178248,None,0,90,90,90,211.6715402000118,,,,,,,211.6715402000118,211.6715402000118,212.6695927999972,212.6724701000203,212.6724701000203,212.6724701000203,212.6724701000203,214.3340853000118,z,1.6588667000178248,None,,,,,,,,,,DM_en,001,2025-03-09_13h36.00.174,MainFlow,2024.2.4,136.13350886665313,2025-03-09 13h36.16.891358 +0700,
2,1,27,word/worden0271.png,91,91,0,z,0.8088906000193674,None,0,91,91,91,214.34058850002475,,,,,,,214.34058850002475,214.34058850002475,215.34276550001232,215.34650690000854,215.34650690000854,215.34650690000854,215.34650690000854,216.15899600001285,z,0.8088906000193674,None,,,,,,,,,,DM_en,001,2025-03-09_13h36.00.174,MainFlow,2024.2.4,136.13350886665313,2025-03-09 13h36.16.891358 +0700,
2,2,24,word/worden0242.png,92,92,0,x,1.1238902999903075,None,0,92,92,92,216.16372430001502,,,,,,,216.16372430001502,216.16372430001502,217.16174320000573,217.1647981000133,217.1647981000133,217.1647981000133,217.1647981000133,218.29054330001236,x,1.1238902999903075,None,,,,,,,,,,DM_en,001,2025-03-09_13h36.00.174,MainFlow,2024.2.4,136.13350886665313,2025-03-09 13h36.16.891358 +0700,
2,1,87,word/worden0871.png,93,93,0,z,2.2004602999950293,None,0,93,93,93,218.29559360002168,,,,,,,218.29559360002168,218.29559360002168,219.31272519999766,219.31633420000435,219.31633420000435,219.31633420000435,219.31633420000435,221.51837160001742,z,2.2004602999950293,None,,,,,,,,,,DM_en,001,2025-03-09_13h36.00.174,MainFlow,2024.2.4,136.13350886665313,2025-03-09 13h36.16.891358 +0700,
2,1,7,word/worden0071.png,94,94,0,z,0.789935200009495,None,0,94,94,94,221.5237402000057,,,,,,,221.5237402000057,221.5237402000057,222.54077330001746,222.54427720000967,222.54427720000967,222.54427720000967,222.54427720000967,223.33914500000537,z,0.789935200009495,None,,,,,,,,,,DM_en,001,2025-03-09_13h36.00.174,MainFlow,2024.2.4,136.13350886665313,2025-03-09 13h36.16.891358 +0700,
2,2,9,word/worden0092.png,95,95,0,x,0.8054400999972131,None,0,95,95,95,223.34537950000959,,,,,,,223.34537950000959,223.34537950000959,224.3414124000119,224.34425980001106,224.34425980001106,224.34425980001106,224.34425980001106,225.15690420000465,x,0.8054400999972131,None,,,,,,,,,,DM_en,001,2025-03-09_13h36.00.174,MainFlow,2024.2.4,136.13350886665313,2025-03-09 13h36.16.891358 +0700,
2,1,44,word/worden0441.png,96,96,0,z,0.8032458999950904,None,0,96,96,96,225.1620082000154,,,,,,,225.1620082000154,225.1620082000154,226.1827956000052,226.18639830002212,226.18639830002212,226.18639830002212,226.18639830002212,226.99726880001253,z,0.8032458999950904,None,,,,,,,,,,DM_en,001,2025-03-09_13h36.00.174,MainFlow,2024.2.4,136.13350886665313,2025-03-09 13h36.16.891358 +0700,
2,2,10,word/worden0102.png,97,97,0,x,0.6932215999986511,None,0,97,97,97,227.00217030002386,,,,,,,227.00217030002386,227.00217030002386,227.99972800002433,228.00275290000718,228.00275290000718,228.00275290000718,228.00275290000718,228.69986990001053,x,0.6932215999986511,None,,,,,,,,,,DM_en,001,2025-03-09_13h36.00.174,MainFlow,2024.2.4,136.13350886665313,2025-03-09 13h36.16.891358 +0700,
2,2,82,word/worden0822.png,98,98,0,x,1.3889598000096157,None,0,98,98,98,228.70621689999825,,,,,,,228.70621689999825,228.70621689999825,229.70825950001017,229.71111080000992,229.71111080000992,229.71111080000992,229.71111080000992,231.10685589999775,x,1.3889598000096157,None,229.71111080000992,229.71111080000992,,,,,,,,DM_en,001,2025-03-09_13h36.00.174,MainFlow,2024.2.4,136.13350886665313,2025-03-09 13h36.16.891358 +0700,
2,3,89,word/worden0893.png,99,99,0,x,1.163486900011776,None,0,99,99,99,231.11236710002413,,,,,,,231.11236710002413,231.11236710002413,232.1198123000213,232.12341780000133,232.12341780000133,232.12341780000133,232.12341780000133,233.2940919000248,x,1.163486900011776,None,,,,,,,,,,DM_en,001,2025-03-09_13h36.00.174,MainFlow,2024.2.4,136.13350886665313,2025-03-09 13h36.16.891358 +0700,
2,2,44,word/worden0442.png,100,100,0,x,0.7334741000086069,None,0,100,100,100,233.2993492000096,,,,,,,233.2993492000096,233.2993492000096,234.32071700002416,234.32437860002392,234.32437860002392,234.32437860002392,234.32437860002392,235.06604100001277,x,0.7334741000086069,None,,,,,,,,,,DM_en,001,2025-03-09_13h36.00.174,MainFlow,2024.2.4,136.13350886665313,2025-03-09 13h36.16.891358 +0700,
2,1,52,word/worden0521.png,101,101,0,z,0.7705633000005037,None,0,101,101,101,235.06993379999767,,,,,,,235.06993379999767,235.06993379999767,236.07446360000176,236.07750909999595,236.07750909999595,236.07750909999595,236.07750909999595,236.8495468000183,z,0.7705633000005037,None,,,,,,,,,,DM_en,001,2025-03-09_13h36.00.174,MainFlow,2024.2.4,136.13350886665313,2025-03-09 13h36.16.891358 +0700,
2,1,51,word/worden0511.png,102,102,0,z,1.0126790999784134,None,0,102,102,102,236.85415450000437,,,,,,,236.85415450000437,236.85415450000437,237.8552338000154,237.8582715000084,237.8582715000084,237.8582715000084,237.8582715000084,238.87692270000116,z,1.0126790999784134,None,,,,,,,,,,DM_en,001,2025-03-09_13h36.00.174,MainFlow,2024.2.4,136.13350886665313,2025-03-09 13h36.16.891358 +0700,
2,3,51,word/worden0513.png,103,103,0,x,1.025705999985803,None,0,103,103,103,238.88169450001442,,,,,,,238.88169450001442,238.88169450001442,239.90055690001464,239.90395780000836,239.90395780000836,239.90395780000836,239.90395780000836,240.93182860000525,x,1.025705999985803,None,,,,,,,,,,DM_en,001,2025-03-09_13h36.00.174,MainFlow,2024.2.4,136.13350886665313,2025-03-09 13h36.16.891358 +0700,
2,2,8,word/worden0082.png,104,104,0,x,0.7116991000075359,None,0,104,104,104,240.9367119000235,,,,,,,240.9367119000235,240.9367119000235,241.9420660000178,241.94513440001174,241.94513440001174,241.94513440001174,241.94513440001174,242.66025450002053,x,0.7116991000075359,None,,,,,,,,,,DM_en,001,2025-03-09_13h36.00.174,MainFlow,2024.2.4,136.13350886665313,2025-03-09 13h36.16.891358 +0700,
2,2,3,word/worden0032.png,105,105,0,x,0.6404838000016753,None,0,105,105,105,242.6656335000007,,,,,,,242.6656335000007,242.6656335000007,243.68628439999884,243.68972240001312,243.68972240001312,243.68972240001312,243.68972240001312,244.33332080001128,x,0.6404838000016753,None,,,,,,,,,,DM_en,001,2025-03-09_13h36.00.174,MainFlow,2024.2.4,136.13350886665313,2025-03-09 13h36.16.891358 +0700,
2,3,3,word/worden0033.png,106,106,0,x,1.4236430000164546,None,0,106,106,106,244.3390308000089,,,,,,,244.3390308000089,244.3390308000089,245.3565385999973,245.36016070001642,245.36016070001642,245.36016070001642,245.36016070001642,246.7870292000007,x,1.4236430000164546,None,,,,,,,,,,DM_en,001,2025-03-09_13h36.00.174,MainFlow,2024.2.4,136.13350886665313,2025-03-09 13h36.16.891358 +0700,
2,3,64,word/worden0643.png,107,107,0,x,1.120290599996224,None,0,107,107,107,246.7929822000151,,,,,,,246.7929822000151,246.7929822000151,247.79835430000094,247.8012371000077,247.8012371000077,247.8012371000077,247.8012371000077,248.92364360002102,x,1.120290599996224,None,247.8012371000077,247.8012371000077,,,,,,,,DM_en,001,2025-03-09_13h36.00.174,MainFlow,2024.2.4,136.13350886665313,2025-03-09 13h36.16.891358 +0700,
2,3,26,word/worden0263.png,108,108,0,x,0.7258246999990661,None,0,108,108,108,248.9283684999973,,,,,,,248.9283684999973,248.9283684999973,249.9324590000033,249.93542570000864,249.93542570000864,249.93542570000864,249.93542570000864,250.6669305000105,x,0.7258246999990661,None,,,,,,,,,,DM_en,001,2025-03-09_13h36.00.174,MainFlow,2024.2.4,136.13350886665313,2025-03-09 13h36.16.891358 +0700,
2,2,96,word/worden0962.png,109,109,0,x,1.2146561999979895,None,0,109,109,109,250.67117820002022,,,,,,,250.67117820002022,250.67117820002022,251.67333089999738,251.6762384000176,251.6762384000176,251.6762384000176,251.6762384000176,252.89459480001824,x,1.2146561999979895,None,,,,,,,,,,DM_en,001,2025-03-09_13h36.00.174,MainFlow,2024.2.4,136.13350886665313,2025-03-09 13h36.16.891358 +0700,
2,1,22,word/worden0221.png,110,110,0,z,0.747970800002804,None,0,110,110,110,252.8997192000097,,,,,,,252.8997192000097,252.8997192000097,253.91868560001603,253.92256960002123,253.92256960002123,253.92256960002123,253.92256960002123,254.67154860001756,z,0.747970800002804,None,,,,,,,,,,DM_en,001,2025-03-09_13h36.00.174,MainFlow,2024.2.4,136.13350886665313,2025-03-09 13h36.16.891358 +0700,
2,2,22,word/worden0222.png,111,111,0,x,0.7062083999917377,None,0,111,111,111,254.67709800001467,,,,,,,254.67709800001467,254.67709800001467,255.70029950002208,255.7037818999961,255.7037818999961,255.7037818999961,255.7037818999961,256.41450949999853,x,0.7062083999917377,None,,,,,,,,,,DM_en,001,2025-03-09_13h36.00.174,MainFlow,2024.2.4,136.13350886665313,2025-03-09 13h36.16.891358 +0700,
2,2,26,word/worden0262.png,112,112,0,x,0.782039799989434,None,0,112,112,112,256.4198331000225,,,,,,,256.4198331000225,256.4198331000225,257.4254894000187,257.428389800014,257.428389800014,257.428389800014,257.428389800014,258.2128228000074,x,0.782039799989434,None,,,,,,,,,,DM_en,001,2025-03-09_13h36.00.174,MainFlow,2024.2.4,136.13350886665313,2025-03-09 13h36.16.891358 +0700,
2,3,48,word/worden0483.png,113,113,0,x,0.979546799993841,None,0,113,113,113,258.2181614000001,,,,,,,258.2181614000001,258.2181614000001,259.24008940000203,259.2439657000068,259.2439657000068,259.2439657000068,259.2439657000068,260.2264375000086,x,0.979546799993841,None,,,,,,,,,,DM_en,001,2025-03-09_13h36.00.174,MainFlow,2024.2.4,136.13350886665313,2025-03-09 13h36.16.891358 +0700,
2,2,87,word/worden0872.png,114,114,0,x,0.9475045999861322,None,0,114,114,114,260.23161760001676,,,,,,,260.23161760001676,260.23161760001676,261.2445613000018,261.24820719999843,261.24820719999843,261.24820719999843,261.24820719999843,262.1979937000142,x,0.9475045999861322,None,,,,,,,,,,DM_en,001,2025-03-09_13h36.00.174,MainFlow,2024.2.4,136.13350886665313,2025-03-09 13h36.16.891358 +0700,
2,1,10,word/worden0101.png,115,115,0,z,1.6816281999927014,None,0,115,115,115,262.2035056000168,,,,,,,262.2035056000168,262.2035056000168,263.23003420000896,263.2339123999991,263.2339123999991,263.2339123999991,263.2339123999991,264.9199400000216,z,1.6816281999927014,None,,,,,,,,,,DM_en,001,2025-03-09_13h36.00.174,MainFlow,2024.2.4,136.13350886665313,2025-03-09 13h36.16.891358 +0700,
2,3,8,word/worden0083.png,116,116,0,x,0.8235080000013113,None,0,116,116,116,264.9252504000033,,,,,,,264.9252504000033,264.9252504000033,265.925800099998,265.92876920002163,265.92876920002163,265.92876920002163,265.92876920002163,266.7540211000014,x,0.8235080000013113,None,,,,,,,,,,DM_en,001,2025-03-09_13h36.00.174,MainFlow,2024.2.4,136.13350886665313,2025-03-09 13h36.16.891358 +0700,
2,3,94,word/worden0943.png,117,117,0,x,1.1122687999741174,None,0,117,117,117,266.75834790000226,,,,,,,266.75834790000226,266.75834790000226,267.7593848000106,267.7621987000166,267.7621987000166,267.7621987000166,267.7621987000166,268.8777883000148,x,1.1122687999741174,None,,,,,,,,,,DM_en,001,2025-03-09_13h36.00.174,MainFlow,2024.2.4,136.13350886665313,2025-03-09 13h36.16.891358 +0700,
2,2,11,word/worden0112.png,118,118,0,x,0.8276467999967281,None,0,118,118,118,268.88288200000534,,,,,,,268.88288200000534,268.88288200000534,269.8859791000141,269.8889172000054,269.8889172000054,269.8889172000054,269.8889172000054,270.71853559999727,x,0.8276467999967281,None,,,,,,,,,,DM_en,001,2025-03-09_13h36.00.174,MainFlow,2024.2.4,136.13350886665313,2025-03-09 13h36.16.891358 +0700,
2,3,24,word/worden0243.png,119,119,0,x,0.7735249999968801,None,0,119,119,119,270.7230849000043,,,,,,,270.7230849000043,270.7230849000043,271.73116330002085,271.7346228000242,271.7346228000242,271.7346228000242,271.7346228000242,272.5155515000224,x,0.7735249999968801,None,,,,,,,,,,DM_en,001,2025-03-09_13h36.00.174,MainFlow,2024.2.4,136.13350886665313,2025-03-09 13h36.16.891358 +0700,
,,,,,,,,,,,,,,,,,,,,,,,,,,,,,,,,,,272.5157301000145,272.5209172000177,272.5209172000177,282.42307770001935,space,9.900499800016405,None,DM_en,001,2025-03-09_13h36.00.174,MainFlow,2024.2.4,136.13350886665313,2025-03-09 13h36.16.891358 +0700,
