lang,stimuli,imageid,worddir,thisN,thisTrialN,thisRepN,key_resp.keys,key_resp.rt,key_resp.duration,trials.thisRepN,trials.thisTrialN,trials.thisN,trials.thisIndex,thisRow.t,notes,tutorial.started,tutorial.stopped,key_instruct.keys,key_instruct.rt,key_instruct.duration,instructblank.started,cross1.started,letterselect.started,imageword.started,text_2.started,cross2.started,key_resp.started,letterselect.stopped,trials.key_resp.keys,trials.key_resp.rt,trials.key_resp.duration,instructblank.stopped,cross1.stopped,ending.started,text_3.started,ending_key.started,ending.stopped,ending_key.keys,ending_key.rt,ending_key.duration,participant,session,date,expName,psychopyVersion,frameRate,expStart,
,,,,,,,,,,,,,,,,0.003916299989214167,1.8942457999801263,space,1.861350899998797,None,,,,,,,,,,,,,,,,,,,,,DM_th,001,2025-03-09_13h30.26.948,MainFlow,2024.2.4,144.06294974955276,2025-03-09 13h30.41.102286 +0700,
1,3,89,word/wordth0893.png,0,0,0,x,2.1863954000000376,None,0,0,0,0,1.932024099980481,,,,,,,1.932024099980481,1.932024099980481,2.899974799976917,2.924388399987947,2.924388399987947,2.924388399987947,2.924388399987947,5.1178614999807905,x,2.1863954000000376,None,,,,,,,,,,DM_th,001,2025-03-09_13h30.26.948,MainFlow,2024.2.4,144.06294974955276,2025-03-09 13h30.41.102286 +0700,
1,3,28,word/wordth0283.png,1,1,0,x,1.2137135000084527,None,0,1,1,1,5.122085299983155,,,,,,,5.122085299983155,5.122085299983155,6.121626499982085,6.125058299978264,6.125058299978264,6.125058299978264,6.125058299978264,7.344942099996842,x,1.2137135000084527,None,,,,,,,,,,DM_th,001,2025-03-09_13h30.26.948,MainFlow,2024.2.4,144.06294974955276,2025-03-09 13h30.41.102286 +0700,
1,2,87,word/wordth0872.png,2,2,0,z,1.1174298000114504,None,0,2,2,2,7.350137899979018,,,,,,,7.350137899979018,7.350137899979018,8.360919200000353,8.364126699976623,8.364126699976623,8.364126699976623,8.364126699976623,9.483521299989661,z,1.1174298000114504,None,,,,,,,,,,DM_th,001,2025-03-09_13h30.26.948,MainFlow,2024.2.4,144.06294974955276,2025-03-09 13h30.41.102286 +0700,
1,2,68,word/wordth0682.png,3,3,0,x,1.8492913000227418,None,0,3,3,3,9.488520899991272,,,,,,,9.488520899991272,9.488520899991272,10.498744299984537,10.502138299983926,10.502138299983926,10.502138299983926,10.502138299983926,12.357554299989715,x,1.8492913000227418,None,,,,,,,,,,DM_th,001,2025-03-09_13h30.26.948,MainFlow,2024.2.4,144.06294974955276,2025-03-09 13h30.41.102286 +0700,
1,2,11,word/wordth0112.png,4,4,0,x,1.1792160000186414,None,0,4,4,4,12.363122499984456,,,,,,,12.363122499984456,12.363122499984456,13.38161269997363,13.38499259998207,13.38499259998207,13.38499259998207,13.38499259998207,14.567887099983636,x,1.1792160000186414,None,,,,,,,,,,DM_th,001,2025-03-09_13h30.26.948,MainFlow,2024.2.4,144.06294974955276,2025-03-09 13h30.41.102286 +0700,
1,3,11,word/wordth0113.png,5,5,0,x,0.9533902000111993,None,0,5,5,5,14.572763099975418,,,,,,,14.572763099975418,14.572763099975418,15.587330999987898,15.590903599979356,15.590903599979356,15.590903599979356,15.590903599979356,16.551039499987382,x,0.9533902000111993,None,15.590903599979356,15.590903599979356,,,,,,,,DM_th,001,2025-03-09_13h30.26.948,MainFlow,2024.2.4,144.06294974955276,2025-03-09 13h30.41.102286 +0700,
1,2,71,word/wordth0712.png,6,6,0,x,1.3239808999933302,None,0,6,6,6,16.556474299984984,,,,,,,16.556474299984984,16.556474299984984,17.561659199971473,17.565031999984058,17.565031999984058,17.565031999984058,17.565031999984058,18.891475699987495,x,1.3239808999933302,None,,,,,,,,,,DM_th,001,2025-03-09_13h30.26.948,MainFlow,2024.2.4,144.06294974955276,2025-03-09 13h30.41.102286 +0700,
1,3,44,word/wordth0443.png,7,7,0,x,2.029811199987307,None,0,7,7,7,18.896437599993078,,,,,,,18.896437599993078,18.896437599993078,19.904649699979927,19.90826479997486,19.90826479997486,19.90826479997486,19.90826479997486,21.94117589999223,x,2.029811199987307,None,,,,,,,,,,DM_th,001,2025-03-09_13h30.26.948,MainFlow,2024.2.4,144.06294974955276,2025-03-09 13h30.41.102286 +0700,
1,2,82,word/wordth0822.png,8,8,0,x,1.0472223999968264,None,0,8,8,8,21.946528599975863,,,,,,,21.946528599975863,21.946528599975863,22.961292799998773,22.964559499989264,22.964559499989264,22.964559499989264,22.964559499989264,24.015458099980606,x,1.0472223999968264,None,22.964559499989264,22.964559499989264,,,,,,,,DM_th,001,2025-03-09_13h30.26.948,MainFlow,2024.2.4,144.06294974955276,2025-03-09 13h30.41.102286 +0700,
1,2,28,word/wordth0282.png,9,9,0,x,0.9600690000224859,None,0,9,9,9,24.02057879997301,,,,,,,24.02057879997301,24.02057879997301,25.01496249999036,25.017808599979617,25.017808599979617,25.017808599979617,25.017808599979617,25.98001909998129,x,0.9600690000224859,None,,,,,,,,,,DM_th,001,2025-03-09_13h30.26.948,MainFlow,2024.2.4,144.06294974955276,2025-03-09 13h30.41.102286 +0700,
1,1,23,word/wordth0231.png,10,10,0,z,1.359966899995925,None,0,10,10,10,25.985290299984626,,,,,,,25.985290299984626,25.985290299984626,26.995456099975854,26.99891569997999,26.99891569997999,26.99891569997999,26.99891569997999,28.36147439997876,z,1.359966899995925,None,,,,,,,,,,DM_th,001,2025-03-09_13h30.26.948,MainFlow,2024.2.4,144.06294974955276,2025-03-09 13h30.41.102286 +0700,
1,2,63,word/wordth0632.png,11,11,0,x,1.0672250000061467,None,0,11,11,11,28.366860299982363,,,,,,,28.366860299982363,28.366860299982363,29.378364299976965,29.3820639999758,29.3820639999758,29.3820639999758,29.3820639999758,30.452593299996806,x,1.0672250000061467,None,,,,,,,,,,DM_th,001,2025-03-09_13h30.26.948,MainFlow,2024.2.4,144.06294974955276,2025-03-09 13h30.41.102286 +0700,
1,3,71,word/wordth0713.png,12,12,0,x,2.200278799980879,None,0,12,12,12,30.45817139997962,,,,,,,30.45817139997962,30.45817139997962,31.471235999983037,31.47494379998534,31.47494379998534,31.47494379998534,31.47494379998534,33.681088899989845,x,2.200278799980879,None,,,,,,,,,,DM_th,001,2025-03-09_13h30.26.948,MainFlow,2024.2.4,144.06294974955276,2025-03-09 13h30.41.102286 +0700,
1,1,1,word/wordth0011.png,13,13,0,z,0.8579151000012644,None,0,13,13,13,33.685109299985925,,,,,,,33.685109299985925,33.685109299985925,34.69117929998902,34.694074599974556,34.694074599974556,34.694074599974556,34.694074599974556,35.554530899971724,z,0.8579151000012644,None,,,,,,,,,,DM_th,001,2025-03-09_13h30.26.948,MainFlow,2024.2.4,144.06294974955276,2025-03-09 13h30.41.102286 +0700,
1,3,41,word/wordth0413.png,14,14,0,x,0.7427472999843303,None,0,14,14,14,35.559924799978035,,,,,,,35.559924799978035,35.559924799978035,36.56335839998792,36.56631139997626,36.56631139997626,36.56631139997626,36.56631139997626,37.31132339997566,x,0.7427472999843303,None,,,,,,,,,,DM_th,001,2025-03-09_13h30.26.948,MainFlow,2024.2.4,144.06294974955276,2025-03-09 13h30.41.102286 +0700,
1,2,64,word/wordth0642.png,15,15,0,x,0.8214096000010613,None,0,15,15,15,37.3164760999789,,,,,,,37.3164760999789,37.3164760999789,38.318233299971325,38.321178099984536,38.321178099984536,38.321178099984536,38.321178099984536,39.14505469999858,x,0.8214096000010613,None,,,,,,,,,,DM_th,001,2025-03-09_13h30.26.948,MainFlow,2024.2.4,144.06294974955276,2025-03-09 13h30.41.102286 +0700,
1,3,6,word/wordth0063.png,16,16,0,x,0.7568932000140194,None,0,16,16,16,39.14960759997484,,,,,,,39.14960759997484,39.14960759997484,40.16730499998084,40.171428699977696,40.171428699977696,40.171428699977696,40.171428699977696,40.935119799978565,x,0.7568932000140194,None,,,,,,,,,,DM_th,001,2025-03-09_13h30.26.948,MainFlow,2024.2.4,144.06294974955276,2025-03-09 13h30.41.102286 +0700,
1,2,31,word/wordth0312.png,17,17,0,x,0.6994468999910168,None,0,17,17,17,40.94073469997966,,,,,,,40.94073469997966,40.94073469997966,41.960179699992295,41.963595299981534,41.963595299981534,41.963595299981534,41.963595299981534,42.664473699987866,x,0.6994468999910168,None,,,,,,,,,,DM_th,001,2025-03-09_13h30.26.948,MainFlow,2024.2.4,144.06294974955276,2025-03-09 13h30.41.102286 +0700,
1,1,46,word/wordth0461.png,18,18,0,z,1.094258199998876,None,0,18,18,18,42.66957199998433,,,,,,,42.66957199998433,42.66957199998433,43.68825769997784,43.69211479998194,43.69211479998194,43.69211479998194,43.69211479998194,44.78892649998306,z,1.094258199998876,None,,,,,,,,,,DM_th,001,2025-03-09_13h30.26.948,MainFlow,2024.2.4,144.06294974955276,2025-03-09 13h30.41.102286 +0700,
1,3,51,word/wordth0513.png,19,19,0,x,0.8765728999860585,None,0,19,19,19,44.79417119998834,,,,,,,44.79417119998834,44.79417119998834,45.810289499990176,45.81382589999703,45.81382589999703,45.81382589999703,45.81382589999703,46.691977599984966,x,0.8765728999860585,None,,,,,,,,,,DM_th,001,2025-03-09_13h30.26.948,MainFlow,2024.2.4,144.06294974955276,2025-03-09 13h30.41.102286 +0700,
1,2,26,word/wordth0262.png,20,20,0,x,0.8393431000004057,None,0,20,20,20,46.69666739998502,,,,,,,46.69666739998502,46.69666739998502,47.71953209998901,47.72322789998725,47.72322789998725,47.72322789998725,47.72322789998725,48.565740299993195,x,0.8393431000004057,None,,,,,,,,,,DM_th,001,2025-03-09_13h30.26.948,MainFlow,2024.2.4,144.06294974955276,2025-03-09 13h30.41.102286 +0700,
1,2,96,word/wordth0962.png,21,21,0,x,0.9186365999921691,None,0,21,21,21,48.571178099984536,,,,,,,48.571178099984536,48.571178099984536,49.575735699996585,49.57863369997358,49.57863369997358,49.57863369997358,49.57863369997358,50.50470669998322,x,0.9186365999921691,None,,,,,,,,,,DM_th,001,2025-03-09_13h30.26.948,MainFlow,2024.2.4,144.06294974955276,2025-03-09 13h30.41.102286 +0700,
1,1,31,word/wordth0311.png,22,22,0,z,0.8223721000249498,None,0,22,22,22,50.50841379998019,,,,,,,50.50841379998019,50.50841379998019,51.51927259998047,51.523004399990896,51.523004399990896,51.523004399990896,51.523004399990896,52.349898799991934,z,0.8223721000249498,None,,,,,,,,,,DM_th,001,2025-03-09_13h30.26.948,MainFlow,2024.2.4,144.06294974955276,2025-03-09 13h30.41.102286 +0700,
1,2,94,word/wordth0942.png,23,23,0,x,3.67973439997877,None,0,23,23,23,52.35533039999427,,,,,,,52.35533039999427,52.35533039999427,53.359682399983285,53.3627166999795,53.3627166999795,53.3627166999795,53.3627166999795,57.04343809999409,x,3.67973439997877,None,,,,,,,,,,DM_th,001,2025-03-09_13h30.26.948,MainFlow,2024.2.4,144.06294974955276,2025-03-09 13h30.41.102286 +0700,
1,3,48,word/wordth0483.png,24,24,0,x,2.003037399990717,None,0,24,24,24,57.04873279997264,,,,,,,57.04873279997264,57.04873279997264,58.05368349998025,58.0570713999914,58.0570713999914,58.0570713999914,58.0570713999914,60.064902099984465,x,2.003037399990717,None,,,,,,,,,,DM_th,001,2025-03-09_13h30.26.948,MainFlow,2024.2.4,144.06294974955276,2025-03-09 13h30.41.102286 +0700,
1,3,24,word/wordth0243.png,25,25,0,x,0.8336963999900036,None,0,25,25,25,60.06923879997339,,,,,,,60.06923879997339,60.06923879997339,61.0717892999819,61.07473189997836,61.07473189997836,61.07473189997836,61.07473189997836,61.91010389997973,x,0.8336963999900036,None,,,,,,,,,,DM_th,001,2025-03-09_13h30.26.948,MainFlow,2024.2.4,144.06294974955276,2025-03-09 13h30.41.102286 +0700,
1,1,87,word/wordth0871.png,26,26,0,z,1.2431571999914013,None,0,26,26,26,61.91578669997398,,,,,,,61.91578669997398,61.91578669997398,62.93485999997938,62.9381819999835,62.9381819999835,62.9381819999835,62.9381819999835,64.18785759998718,z,1.2431571999914013,None,,,,,,,,,,DM_th,001,2025-03-09_13h30.26.948,MainFlow,2024.2.4,144.06294974955276,2025-03-09 13h30.41.102286 +0700,
1,2,51,word/wordth0512.png,27,27,0,x,2.2003306999977212,None,0,27,27,27,64.19323989999248,,,,,,,64.19323989999248,64.19323989999248,65.21056249999674,65.21405369997956,65.21405369997956,65.21405369997956,65.21405369997956,67.41646019998007,x,2.2003306999977212,None,,,,,,,,,,DM_th,001,2025-03-09_13h30.26.948,MainFlow,2024.2.4,144.06294974955276,2025-03-09 13h30.41.102286 +0700,
1,3,27,word/wordth0273.png,28,28,0,x,2.2985321000160184,None,0,28,28,28,67.42182239997783,,,,,,,67.42182239997783,67.42182239997783,68.42718269999023,68.43040679997648,68.43040679997648,68.43040679997648,68.43040679997648,70.73754239999107,x,2.2985321000160184,None,,,,,,,,,,DM_th,001,2025-03-09_13h30.26.948,MainFlow,2024.2.4,144.06294974955276,2025-03-09 13h30.41.102286 +0700,
1,2,22,word/wordth0222.png,29,29,0,x,0.7158218999975361,None,0,29,29,29,70.74299879997852,,,,,,,70.74299879997852,70.74299879997852,71.75905479997164,71.76276379998308,71.76276379998308,71.76276379998308,71.76276379998308,72.48486789999879,x,0.7158218999975361,None,71.76276379998308,71.76276379998308,,,,,,,,DM_th,001,2025-03-09_13h30.26.948,MainFlow,2024.2.4,144.06294974955276,2025-03-09 13h30.41.102286 +0700,
1,3,23,word/wordth0233.png,30,30,0,x,1.9359700000204612,None,0,30,30,30,72.49013209997793,,,,,,,72.49013209997793,72.49013209997793,73.49455599999055,73.49756519999937,73.49756519999937,73.49756519999937,73.49756519999937,75.43588619999355,x,1.9359700000204612,None,,,,,,,,,,DM_th,001,2025-03-09_13h30.26.948,MainFlow,2024.2.4,144.06294974955276,2025-03-09 13h30.41.102286 +0700,
1,1,48,word/wordth0481.png,31,31,0,z,0.7732219000172336,None,0,31,31,31,75.44109949999256,,,,,,,75.44109949999256,75.44109949999256,76.46068469999591,76.46391769999173,76.46391769999173,76.46391769999173,76.46391769999173,77.24117189997924,z,0.7732219000172336,None,,,,,,,,,,DM_th,001,2025-03-09_13h30.26.948,MainFlow,2024.2.4,144.06294974955276,2025-03-09 13h30.41.102286 +0700,
1,2,10,word/wordth0102.png,32,32,0,x,0.8915856999810785,None,0,32,32,32,77.24623149997205,,,,,,,77.24623149997205,77.24623149997205,78.26388899999438,78.2667977999954,78.2667977999954,78.2667977999954,78.2667977999954,79.16395649997867,x,0.8915856999810785,None,,,,,,,,,,DM_th,001,2025-03-09_13h30.26.948,MainFlow,2024.2.4,144.06294974955276,2025-03-09 13h30.41.102286 +0700,
1,3,64,word/wordth0643.png,33,33,0,x,0.8742024000093807,None,0,33,33,33,79.16954429997713,,,,,,,79.16954429997713,79.16954429997713,80.18316619997495,80.18706059997203,80.18706059997203,80.18706059997203,80.18706059997203,81.06680279999273,x,0.8742024000093807,None,,,,,,,,,,DM_th,001,2025-03-09_13h30.26.948,MainFlow,2024.2.4,144.06294974955276,2025-03-09 13h30.41.102286 +0700,
1,3,22,word/wordth0223.png,34,34,0,x,0.7615237999998499,None,0,34,34,34,81.07187289997819,,,,,,,81.07187289997819,81.07187289997819,82.07372489999398,82.07680679997429,82.07680679997429,82.07680679997429,82.07680679997429,82.84353649997502,x,0.7615237999998499,None,,,,,,,,,,DM_th,001,2025-03-09_13h30.26.948,MainFlow,2024.2.4,144.06294974955276,2025-03-09 13h30.41.102286 +0700,
1,1,42,word/wordth0421.png,35,35,0,z,0.683060099981958,None,0,35,35,35,82.8492737999768,,,,,,,82.8492737999768,82.8492737999768,83.8730235999974,83.87665279998328,83.87665279998328,83.87665279998328,83.87665279998328,84.56585209997138,z,0.683060099981958,None,,,,,,,,,,DM_th,001,2025-03-09_13h30.26.948,MainFlow,2024.2.4,144.06294974955276,2025-03-09 13h30.41.102286 +0700,
1,2,1,word/wordth0012.png,36,36,0,x,1.7599517999915406,None,0,36,36,36,84.57116399999359,,,,,,,84.57116399999359,84.57116399999359,85.57521009998163,85.57809659998748,85.57809659998748,85.57809659998748,85.57809659998748,87.34414179998566,x,1.7599517999915406,None,,,,,,,,,,DM_th,001,2025-03-09_13h30.26.948,MainFlow,2024.2.4,144.06294974955276,2025-03-09 13h30.41.102286 +0700,
1,1,82,word/wordth0821.png,37,37,0,z,0.7157035999989603,None,0,37,37,37,87.34843329997966,,,,,,,87.34843329997966,87.34843329997966,88.36125159999938,88.36495799999102,88.36495799999102,88.36495799999102,88.36495799999102,89.08587319997605,z,0.7157035999989603,None,,,,,,,,,,DM_th,001,2025-03-09_13h30.26.948,MainFlow,2024.2.4,144.06294974955276,2025-03-09 13h30.41.102286 +0700,
1,2,3,word/wordth0032.png,38,38,0,x,0.6410254999937024,None,0,38,38,38,89.09116749998066,,,,,,,89.09116749998066,89.09116749998066,90.11307409999426,90.11654969997471,90.11654969997471,90.11654969997471,90.11654969997471,90.75923309999052,x,0.6410254999937024,None,,,,,,,,,,DM_th,001,2025-03-09_13h30.26.948,MainFlow,2024.2.4,144.06294974955276,2025-03-09 13h30.41.102286 +0700,
1,1,68,word/wordth0681.png,39,39,0,z,0.7650636000034865,None,0,39,39,39,90.76448199999868,,,,,,,90.76448199999868,90.76448199999868,91.77572249999503,91.77917129997513,91.77917129997513,91.77917129997513,91.77917129997513,92.55038709999644,z,0.7650636000034865,None,,,,,,,,,,DM_th,001,2025-03-09_13h30.26.948,MainFlow,2024.2.4,144.06294974955276,2025-03-09 13h30.41.102286 +0700,
1,1,66,word/wordth0661.png,40,40,0,z,0.804446399997687,None,0,40,40,40,92.55575899998075,,,,,,,92.55575899998075,92.55575899998075,93.57020569997258,93.57341389998328,93.57341389998328,93.57341389998328,93.57341389998328,94.3843452000001,z,0.804446399997687,None,,,,,,,,,,DM_th,001,2025-03-09_13h30.26.948,MainFlow,2024.2.4,144.06294974955276,2025-03-09 13h30.41.102286 +0700,
1,2,42,word/wordth0422.png,41,41,0,x,0.8718737000017427,None,0,41,41,41,94.38867839999148,,,,,,,94.38867839999148,94.38867839999148,95.38772789997165,95.39086339998175,95.39086339998175,95.39086339998175,95.39086339998175,96.26620129999355,x,0.8718737000017427,None,,,,,,,,,,DM_th,001,2025-03-09_13h30.26.948,MainFlow,2024.2.4,144.06294974955276,2025-03-09 13h30.41.102286 +0700,
1,3,93,word/wordth0933.png,42,42,0,x,2.92378079998889,None,0,42,42,42,96.27113039998221,,,,,,,96.27113039998221,96.27113039998221,97.27186109998729,97.27475169999525,97.27475169999525,97.27475169999525,97.27475169999525,100.20184539997717,x,2.92378079998889,None,,,,,,,,,,DM_th,001,2025-03-09_13h30.26.948,MainFlow,2024.2.4,144.06294974955276,2025-03-09 13h30.41.102286 +0700,
1,1,71,word/wordth0711.png,43,43,0,z,0.634720500005642,None,0,43,43,43,100.20723999998881,,,,,,,100.20723999998881,100.20723999998881,101.20844869999564,101.2114101999905,101.2114101999905,101.2114101999905,101.2114101999905,101.84755009997752,z,0.634720500005642,None,,,,,,,,,,DM_th,001,2025-03-09_13h30.26.948,MainFlow,2024.2.4,144.06294974955276,2025-03-09 13h30.41.102286 +0700,
1,1,64,word/wordth0641.png,44,44,0,z,1.0773766999773216,None,0,44,44,44,101.85258149998845,,,,,,,101.85258149998845,101.85258149998845,102.86981959998957,102.87336399999913,102.87336399999913,102.87336399999913,102.87336399999913,103.95809159998316,z,1.0773766999773216,None,,,,,,,,,,DM_th,001,2025-03-09_13h30.26.948,MainFlow,2024.2.4,144.06294974955276,2025-03-09 13h30.41.102286 +0700,
1,1,88,word/wordth0881.png,45,45,0,z,0.5814123000018299,None,0,45,45,45,103.96331689998624,,,,,,,103.96331689998624,103.96331689998624,104.97880029998487,104.9821113999933,104.9821113999933,104.9821113999933,104.9821113999933,105.56898369998089,z,0.5814123000018299,None,,,,,,,,,,DM_th,001,2025-03-09_13h30.26.948,MainFlow,2024.2.4,144.06294974955276,2025-03-09 13h30.41.102286 +0700,
1,3,87,word/wordth0873.png,46,46,0,x,0.9534502000024077,None,0,46,46,46,105.57413109997287,,,,,,,105.57413109997287,105.57413109997287,106.59475439999369,106.5982168999908,106.5982168999908,106.5982168999908,106.5982168999908,107.5548310999875,x,0.9534502000024077,None,,,,,,,,,,DM_th,001,2025-03-09_13h30.26.948,MainFlow,2024.2.4,144.06294974955276,2025-03-09 13h30.41.102286 +0700,
1,3,3,word/wordth0033.png,47,47,0,x,3.442848700011382,None,0,47,47,47,107.55988289997913,,,,,,,107.55988289997913,107.55988289997913,108.57947649998823,108.58279959997162,108.58279959997162,108.58279959997162,108.58279959997162,112.03228349998244,x,3.442848700011382,None,,,,,,,,,,DM_th,001,2025-03-09_13h30.26.948,MainFlow,2024.2.4,144.06294974955276,2025-03-09 13h30.41.102286 +0700,
1,2,95,word/wordth0952.png,48,48,0,x,1.5571541000099387,None,0,48,48,48,112.03813699999591,,,,,,,112.03813699999591,112.03813699999591,113.05652899999404,113.06028179998975,113.06028179998975,113.06028179998975,113.06028179998975,114.62279769999441,x,1.5571541000099387,None,,,,,,,,,,DM_th,001,2025-03-09_13h30.26.948,MainFlow,2024.2.4,144.06294974955276,2025-03-09 13h30.41.102286 +0700,
1,1,11,word/wordth0111.png,49,49,0,z,1.0822423000063282,None,0,49,49,49,114.62793309998233,,,,,,,114.62793309998233,114.62793309998233,115.6324714999937,115.63560119998874,115.63560119998874,115.63560119998874,115.63560119998874,116.72022069999366,z,1.0822423000063282,None,,,,,,,,,,DM_th,001,2025-03-09_13h30.26.948,MainFlow,2024.2.4,144.06294974955276,2025-03-09 13h30.41.102286 +0700,
1,1,10,word/wordth0101.png,50,50,0,z,1.281094000005396,None,0,50,50,50,116.72475469997153,,,,,,,116.72475469997153,116.72475469997153,117.73160519998055,117.73454339997261,117.73454339997261,117.73454339997261,117.73454339997261,119.01837009997689,z,1.281094000005396,None,,,,,,,,,,DM_th,001,2025-03-09_13h30.26.948,MainFlow,2024.2.4,144.06294974955276,2025-03-09 13h30.41.102286 +0700,
1,1,44,word/wordth0441.png,51,51,0,z,0.9335696000198368,None,0,51,51,51,119.02302369999234,,,,,,,119.02302369999234,119.02302369999234,120.02525739997509,120.02834239997901,120.02834239997901,120.02834239997901,120.02834239997901,120.96870899997884,z,0.9335696000198368,None,,,,,,,,,,DM_th,001,2025-03-09_13h30.26.948,MainFlow,2024.2.4,144.06294974955276,2025-03-09 13h30.41.102286 +0700,
1,1,96,word/wordth0961.png,52,52,0,x,1.1598736999731045,None,0,52,52,52,120.97380339997471,,,,,,,120.97380339997471,120.97380339997471,121.97511649999069,121.97813499998301,121.97813499998301,121.97813499998301,121.97813499998301,123.14350489998469,x,1.1598736999731045,None,,,,,,,,,,DM_th,001,2025-03-09_13h30.26.948,MainFlow,2024.2.4,144.06294974955276,2025-03-09 13h30.41.102286 +0700,
1,2,27,word/wordth0272.png,53,53,0,x,1.474645900016185,None,0,53,53,53,123.14849329998833,,,,,,,123.14849329998833,123.14849329998833,124.16999229998328,124.1737064999761,124.1737064999761,124.1737064999761,124.1737064999761,125.65498639998259,x,1.474645900016185,None,,,,,,,,,,DM_th,001,2025-03-09_13h30.26.948,MainFlow,2024.2.4,144.06294974955276,2025-03-09 13h30.41.102286 +0700,
1,1,63,word/wordth0631.png,54,54,0,z,1.5262745000072755,None,0,54,54,54,125.66040119997342,,,,,,,125.66040119997342,125.66040119997342,126.65897459999542,126.6620239999902,126.6620239999902,126.6620239999902,126.6620239999902,128.19034839997767,z,1.5262745000072755,None,,,,,,,,,,DM_th,001,2025-03-09_13h30.26.948,MainFlow,2024.2.4,144.06294974955276,2025-03-09 13h30.41.102286 +0700,
1,3,66,word/wordth0663.png,55,55,0,x,1.7061369000002742,None,0,55,55,55,128.1948754999903,,,,,,,128.1948754999903,128.1948754999903,129.20835299999453,129.2119801999943,129.2119801999943,129.2119801999943,129.2119801999943,130.92810929997358,x,1.7061369000002742,None,,,,,,,,,,DM_th,001,2025-03-09_13h30.26.948,MainFlow,2024.2.4,144.06294974955276,2025-03-09 13h30.41.102286 +0700,
1,3,88,word/wordth0883.png,56,56,0,x,1.1037863000237849,None,0,56,56,56,130.9326736999792,,,,,,,130.9326736999792,130.9326736999792,131.95582159998594,131.9595418999961,131.9595418999961,131.9595418999961,131.9595418999961,133.07020369998645,x,1.1037863000237849,None,131.9595418999961,131.9595418999961,,,,,,,,DM_th,001,2025-03-09_13h30.26.948,MainFlow,2024.2.4,144.06294974955276,2025-03-09 13h30.41.102286 +0700,
1,3,96,word/wordth0963.png,57,57,0,x,1.0013699000119232,None,0,57,57,57,133.07568229999742,,,,,,,133.07568229999742,133.07568229999742,134.09067899998627,134.09396039997227,134.09396039997227,134.09396039997227,134.09396039997227,135.09792449997622,x,1.0013699000119232,None,,,,,,,,,,DM_th,001,2025-03-09_13h30.26.948,MainFlow,2024.2.4,144.06294974955276,2025-03-09 13h30.41.102286 +0700,
1,2,52,word/wordth0522.png,58,58,0,x,1.437337999988813,None,0,58,58,58,135.10317499999655,,,,,,,135.10317499999655,135.10317499999655,136.10243529998115,136.10554199997569,136.10554199997569,136.10554199997569,136.10554199997569,137.55066549999174,x,1.437337999988813,None,,,,,,,,,,DM_th,001,2025-03-09_13h30.26.948,MainFlow,2024.2.4,144.06294974955276,2025-03-09 13h30.41.102286 +0700,
1,3,50,word/wordth0503.png,59,59,0,x,1.4053567000082694,None,0,59,59,59,137.55628239997895,,,,,,,137.55628239997895,137.55628239997895,138.5528207999887,138.5557435999799,138.5557435999799,138.5557435999799,138.5557435999799,139.9662193999975,x,1.4053567000082694,None,,,,,,,,,,DM_th,001,2025-03-09_13h30.26.948,MainFlow,2024.2.4,144.06294974955276,2025-03-09 13h30.41.102286 +0700,
1,3,61,word/wordth0613.png,60,60,0,x,0.9485606000234839,None,0,60,60,60,139.97184009998455,,,,,,,139.97184009998455,139.97184009998455,140.9737992999726,140.9767011999793,140.9767011999793,140.9767011999793,140.9767011999793,141.9303249999939,x,0.9485606000234839,None,,,,,,,,,,DM_th,001,2025-03-09_13h30.26.948,MainFlow,2024.2.4,144.06294974955276,2025-03-09 13h30.41.102286 +0700,
1,2,46,word/wordth0462.png,61,61,0,x,1.1211059000052046,None,0,61,61,61,141.93521019999753,,,,,,,141.93521019999753,141.93521019999753,142.94125639999402,142.9442873999942,142.9442873999942,142.9442873999942,142.9442873999942,144.06835429999046,x,1.1211059000052046,None,,,,,,,,,,DM_th,001,2025-03-09_13h30.26.948,MainFlow,2024.2.4,144.06294974955276,2025-03-09 13h30.41.102286 +0700,
1,1,61,word/wordth0611.png,62,62,0,z,0.9230401999957394,None,0,62,62,62,144.07366779999575,,,,,,,144.07366779999575,144.07366779999575,145.06818949998706,145.07116929997574,145.07116929997574,145.07116929997574,145.07116929997574,145.99831899997662,z,0.9230401999957394,None,,,,,,,,,,DM_th,001,2025-03-09_13h30.26.948,MainFlow,2024.2.4,144.06294974955276,2025-03-09 13h30.41.102286 +0700,
1,1,24,word/wordth0241.png,63,63,0,z,0.7296286000055261,None,0,63,63,63,146.00374679997913,,,,,,,146.00374679997913,146.00374679997913,147.02301739997347,147.02630899997894,147.02630899997894,147.02630899997894,147.02630899997894,147.76335859997198,z,0.7296286000055261,None,,,,,,,,,,DM_th,001,2025-03-09_13h30.26.948,MainFlow,2024.2.4,144.06294974955276,2025-03-09 13h30.41.102286 +0700,
1,2,89,word/wordth0892.png,64,64,0,x,0.6317551999818534,None,0,64,64,64,147.7702561999904,,,,,,,147.7702561999904,147.7702561999904,148.7838025999954,148.78706039997633,148.78706039997633,148.78706039997633,148.78706039997633,149.42101079999702,x,0.6317551999818534,None,,,,,,,,,,DM_th,001,2025-03-09_13h30.26.948,MainFlow,2024.2.4,144.06294974955276,2025-03-09 13h30.41.102286 +0700,
1,1,30,word/wordth0301.png,65,65,0,z,0.7914547999971546,None,0,65,65,65,149.42665749997832,,,,,,,149.42665749997832,149.42665749997832,150.44405649998225,150.44761249999283,150.44761249999283,150.44761249999283,150.44761249999283,151.2421794999973,z,0.7914547999971546,None,,,,,,,,,,DM_th,001,2025-03-09_13h30.26.948,MainFlow,2024.2.4,144.06294974955276,2025-03-09 13h30.41.102286 +0700,
1,1,93,word/wordth0931.png,66,66,0,z,0.7507279000128619,None,0,66,66,66,151.2478307999845,,,,,,,151.2478307999845,151.2478307999845,152.2639341999893,152.26741699999548,152.26741699999548,152.26741699999548,152.26741699999548,153.02472689998103,z,0.7507279000128619,None,,,,,,,,,,DM_th,001,2025-03-09_13h30.26.948,MainFlow,2024.2.4,144.06294974955276,2025-03-09 13h30.41.102286 +0700,
1,1,50,word/wordth0501.png,67,67,0,z,0.7486043999961112,None,0,67,67,67,153.0301764999749,,,,,,,153.0301764999749,153.0301764999749,154.0510673999961,154.05446969997138,154.05446969997138,154.05446969997138,154.05446969997138,154.81072089998634,z,0.7486043999961112,None,,,,,,,,,,DM_th,001,2025-03-09_13h30.26.948,MainFlow,2024.2.4,144.06294974955276,2025-03-09 13h30.41.102286 +0700,
1,3,82,word/wordth0823.png,68,68,0,x,1.2701306999952067,None,0,68,68,68,154.8160840999917,,,,,,,154.8160840999917,154.8160840999917,155.8126564999984,155.8156923999777,155.8156923999777,155.8156923999777,155.8156923999777,157.0872028999729,x,1.2701306999952067,None,,,,,,,,,,DM_th,001,2025-03-09_13h30.26.948,MainFlow,2024.2.4,144.06294974955276,2025-03-09 13h30.41.102286 +0700,
1,1,27,word/wordth0271.png,69,69,0,z,0.6129890000156593,None,0,69,69,69,157.09197129998938,,,,,,,157.09197129998938,157.09197129998938,158.10302719997708,158.10681069997372,158.10681069997372,158.10681069997372,158.10681069997372,158.72517819999484,z,0.6129890000156593,None,,,,,,,,,,DM_th,001,2025-03-09_13h30.26.948,MainFlow,2024.2.4,144.06294974955276,2025-03-09 13h30.41.102286 +0700,
1,3,52,word/wordth0523.png,70,70,0,x,0.8386603000108153,None,0,70,70,70,158.7304601999931,,,,,,,158.7304601999931,158.7304601999931,159.74844259998645,159.75205059998552,159.75205059998552,159.75205059998552,159.75205059998552,160.59302689999458,x,0.8386603000108153,None,,,,,,,,,,DM_th,001,2025-03-09_13h30.26.948,MainFlow,2024.2.4,144.06294974955276,2025-03-09 13h30.41.102286 +0700,
1,1,22,word/wordth0221.png,71,71,0,z,0.7162851000030059,None,0,71,71,71,160.59835339998244,,,,,,,160.59835339998244,160.59835339998244,161.60742349998327,161.61071009997977,161.61071009997977,161.61071009997977,161.61071009997977,162.32901689998107,z,0.7162851000030059,None,,,,,,,,,,DM_th,001,2025-03-09_13h30.26.948,MainFlow,2024.2.4,144.06294974955276,2025-03-09 13h30.41.102286 +0700,
1,1,6,word/wordth0061.png,72,72,0,z,0.47524140001041815,None,0,72,72,72,162.33400009997422,,,,,,,162.33400009997422,162.33400009997422,163.34708429998136,163.3506770999811,163.3506770999811,163.3506770999811,163.3506770999811,163.82943629997317,z,0.47524140001041815,None,,,,,,,,,,DM_th,001,2025-03-09_13h30.26.948,MainFlow,2024.2.4,144.06294974955276,2025-03-09 13h30.41.102286 +0700,
1,2,30,word/wordth0302.png,73,73,0,x,0.7375664999999572,None,0,73,73,73,163.8339594999852,,,,,,,163.8339594999852,163.8339594999852,164.83169959997758,164.83460099998047,164.83460099998047,164.83460099998047,164.83460099998047,165.57842449998134,x,0.7375664999999572,None,,,,,,,,,,DM_th,001,2025-03-09_13h30.26.948,MainFlow,2024.2.4,144.06294974955276,2025-03-09 13h30.41.102286 +0700,
1,1,51,word/wordth0511.png,74,74,0,z,0.672362700017402,None,0,74,74,74,165.58324229999562,,,,,,,165.58324229999562,165.58324229999562,166.59786859998712,166.6011660999793,166.6011660999793,166.6011660999793,166.6011660999793,167.2791457999847,z,0.672362700017402,None,,,,,,,,,,DM_th,001,2025-03-09_13h30.26.948,MainFlow,2024.2.4,144.06294974955276,2025-03-09 13h30.41.102286 +0700,
1,2,50,word/wordth0502.png,75,75,0,x,0.7840274999907706,None,0,75,75,75,167.28442259997246,,,,,,,167.28442259997246,167.28442259997246,168.29298729999573,168.29611129997647,168.29611129997647,168.29611129997647,168.29611129997647,169.08456619997742,x,0.7840274999907706,None,,,,,,,,,,DM_th,001,2025-03-09_13h30.26.948,MainFlow,2024.2.4,144.06294974955276,2025-03-09 13h30.41.102286 +0700,
1,3,95,word/wordth0953.png,76,76,0,x,1.0190462000027765,None,0,76,76,76,169.08971419997397,,,,,,,169.08971419997397,169.08971419997397,170.09646879998036,170.0998649999965,170.0998649999965,170.0998649999965,170.0998649999965,171.1271442999714,x,1.0190462000027765,None,,,,,,,,,,DM_th,001,2025-03-09_13h30.26.948,MainFlow,2024.2.4,144.06294974955276,2025-03-09 13h30.41.102286 +0700,
1,1,75,word/wordth0751.png,77,77,0,z,0.6008206999977119,None,0,77,77,77,171.13081889998284,,,,,,,171.13081889998284,171.13081889998284,172.13753119998728,172.14097229999606,172.14097229999606,172.14097229999606,172.14097229999606,172.74380629998632,z,0.6008206999977119,None,,,,,,,,,,DM_th,001,2025-03-09_13h30.26.948,MainFlow,2024.2.4,144.06294974955276,2025-03-09 13h30.41.102286 +0700,
1,1,95,word/wordth0951.png,78,78,0,z,0.8101489999971818,None,0,78,78,78,172.74883689999115,,,,,,,172.74883689999115,172.74883689999115,173.75877049998962,173.76206029998139,173.76206029998139,173.76206029998139,173.76206029998139,174.57589799998095,z,0.8101489999971818,None,,,,,,,,,,DM_th,001,2025-03-09_13h30.26.948,MainFlow,2024.2.4,144.06294974955276,2025-03-09 13h30.41.102286 +0700,
1,2,8,word/wordth0082.png,79,79,0,x,0.6060838000266813,None,0,79,79,79,174.58151779999025,,,,,,,174.58151779999025,174.58151779999025,175.59930919998442,175.60267169997678,175.60267169997678,175.60267169997678,175.60267169997678,176.21496269997442,x,0.6060838000266813,None,,,,,,,,,,DM_th,001,2025-03-09_13h30.26.948,MainFlow,2024.2.4,144.06294974955276,2025-03-09 13h30.41.102286 +0700,
1,3,75,word/wordth0753.png,80,80,0,x,3.195248600008199,None,0,80,80,80,176.2202955999819,,,,,,,176.2202955999819,176.2202955999819,177.23760639998363,177.24121139998897,177.24121139998897,177.24121139998897,177.24121139998897,180.44361879999633,x,3.195248600008199,None,,,,,,,,,,DM_th,001,2025-03-09_13h30.26.948,MainFlow,2024.2.4,144.06294974955276,2025-03-09 13h30.41.102286 +0700,
1,1,28,word/wordth0281.png,81,81,0,z,1.3421776000177488,None,0,81,81,81,180.44858739999472,,,,,,,180.44858739999472,180.44858739999472,181.4624010999978,181.4659352999879,181.4659352999879,181.4659352999879,181.4659352999879,182.81086030000006,z,1.3421776000177488,None,,,,,,,,,,DM_th,001,2025-03-09_13h30.26.948,MainFlow,2024.2.4,144.06294974955276,2025-03-09 13h30.41.102286 +0700,
1,3,42,word/wordth0423.png,82,82,0,z,0.9051051999849733,None,0,82,82,82,182.81611679997877,,,,,,,182.81611679997877,182.81611679997877,183.8310441999929,183.83434559998568,183.83434559998568,183.83434559998568,183.83434559998568,184.74142489998485,z,0.9051051999849733,None,,,,,,,,,,DM_th,001,2025-03-09_13h30.26.948,MainFlow,2024.2.4,144.06294974955276,2025-03-09 13h30.41.102286 +0700,
1,3,46,word/wordth0463.png,83,83,0,x,0.9318309999944177,None,0,83,83,83,184.74642999999924,,,,,,,184.74642999999924,184.74642999999924,185.7632195999904,185.76647629999206,185.76647629999206,185.76647629999206,185.76647629999206,186.70003899998846,x,0.9318309999944177,None,,,,,,,,,,DM_th,001,2025-03-09_13h30.26.948,MainFlow,2024.2.4,144.06294974955276,2025-03-09 13h30.41.102286 +0700,
1,3,1,word/wordth0013.png,84,84,0,x,0.8036100000026636,None,0,84,84,84,186.70475329997134,,,,,,,186.70475329997134,186.70475329997134,187.72276989999227,187.72607330000028,187.72607330000028,187.72607330000028,187.72607330000028,188.53252909998992,x,0.8036100000026636,None,,,,,,,,,,DM_th,001,2025-03-09_13h30.26.948,MainFlow,2024.2.4,144.06294974955276,2025-03-09 13h30.41.102286 +0700,
1,2,70,word/wordth0702.png,85,85,0,x,0.7867397000081837,None,0,85,85,85,188.53739159999532,,,,,,,188.53739159999532,188.53739159999532,189.5563352999743,189.56005309999455,189.56005309999455,189.56005309999455,189.56005309999455,190.35226509999484,x,0.7867397000081837,None,,,,,,,,,,DM_th,001,2025-03-09_13h30.26.948,MainFlow,2024.2.4,144.06294974955276,2025-03-09 13h30.41.102286 +0700,
1,1,7,word/wordth0071.png,86,86,0,z,0.72041999999783,None,0,86,86,86,190.3563302999828,,,,,,,190.3563302999828,190.3563302999828,191.3646100999904,191.36755189998075,191.36755189998075,191.36755189998075,191.36755189998075,192.0939367999963,z,0.72041999999783,None,,,,,,,,,,DM_th,001,2025-03-09_13h30.26.948,MainFlow,2024.2.4,144.06294974955276,2025-03-09 13h30.41.102286 +0700,
1,2,7,word/wordth0072.png,87,87,0,x,0.8146189000108279,None,0,87,87,87,192.09911179999472,,,,,,,192.09911179999472,192.09911179999472,193.10859049999272,193.11185379998642,193.11185379998642,193.11185379998642,193.11185379998642,193.9335401999997,x,0.8146189000108279,None,,,,,,,,,,DM_th,001,2025-03-09_13h30.26.948,MainFlow,2024.2.4,144.06294974955276,2025-03-09 13h30.41.102286 +0700,
1,2,24,word/wordth0242.png,88,88,0,x,0.6374538000090979,None,0,88,88,88,193.93895699997665,,,,,,,193.93895699997665,193.93895699997665,194.96170729998266,194.9653901999991,194.9653901999991,194.9653901999991,194.9653901999991,195.60729939999874,x,0.6374538000090979,None,,,,,,,,,,DM_th,001,2025-03-09_13h30.26.948,MainFlow,2024.2.4,144.06294974955276,2025-03-09 13h30.41.102286 +0700,
1,3,26,word/wordth0263.png,89,89,0,x,0.6849821000068914,None,0,89,89,89,195.61231509997742,,,,,,,195.61231509997742,195.61231509997742,196.62776159998612,196.6312210999895,196.6312210999895,196.6312210999895,196.6312210999895,197.32208209999953,x,0.6849821000068914,None,,,,,,,,,,DM_th,001,2025-03-09_13h30.26.948,MainFlow,2024.2.4,144.06294974955276,2025-03-09 13h30.41.102286 +0700,
1,2,23,word/wordth0232.png,90,90,0,x,1.0747463000006974,None,0,90,90,90,197.327123199997,,,,,,,197.327123199997,197.327123199997,198.34250609998708,198.34589269998833,198.34589269998833,198.34589269998833,198.34589269998833,199.426922499988,x,1.0747463000006974,None,,,,,,,,,,DM_th,001,2025-03-09_13h30.26.948,MainFlow,2024.2.4,144.06294974955276,2025-03-09 13h30.41.102286 +0700,
1,2,75,word/wordth0752.png,91,91,0,x,1.3831613999791443,None,0,91,91,91,199.43090809998102,,,,,,,199.43090809998102,199.43090809998102,200.4482326999714,200.45167749997927,200.45167749997927,200.45167749997927,200.45167749997927,201.84173019998707,x,1.3831613999791443,None,,,,,,,,,,DM_th,001,2025-03-09_13h30.26.948,MainFlow,2024.2.4,144.06294974955276,2025-03-09 13h30.41.102286 +0700,
1,2,6,word/wordth0062.png,92,92,0,x,0.6092415999737568,None,0,92,92,92,201.8470673999982,,,,,,,201.8470673999982,201.8470673999982,202.85955729999114,202.8630897999974,202.8630897999974,202.8630897999974,202.8630897999974,203.47543019999284,x,0.6092415999737568,None,,,,,,,,,,DM_th,001,2025-03-09_13h30.26.948,MainFlow,2024.2.4,144.06294974955276,2025-03-09 13h30.41.102286 +0700,
1,2,93,word/wordth0932.png,93,93,0,x,0.9842404999944847,None,0,93,93,93,203.48074989998713,,,,,,,203.48074989998713,203.48074989998713,204.4899572999857,204.49312239998835,204.49312239998835,204.49312239998835,204.49312239998835,205.48028079999494,x,0.9842404999944847,None,,,,,,,,,,DM_th,001,2025-03-09_13h30.26.948,MainFlow,2024.2.4,144.06294974955276,2025-03-09 13h30.41.102286 +0700,
1,2,48,word/wordth0482.png,94,94,0,x,0.6707915000151843,None,0,94,94,94,205.48539429999073,,,,,,,205.48539429999073,205.48539429999073,206.49772429998848,206.5013820999884,206.5013820999884,206.5013820999884,206.5013820999884,207.1749716999766,x,0.6707915000151843,None,,,,,,,,,,DM_th,001,2025-03-09_13h30.26.948,MainFlow,2024.2.4,144.06294974955276,2025-03-09 13h30.41.102286 +0700,
1,1,70,word/wordth0701.png,95,95,0,z,0.7090961999783758,None,0,95,95,95,207.17962109998916,,,,,,,207.17962109998916,207.17962109998916,208.1982052999956,208.2016463999753,208.2016463999753,208.2016463999753,208.2016463999753,208.91686569998274,z,0.7090961999783758,None,,,,,,,,,,DM_th,001,2025-03-09_13h30.26.948,MainFlow,2024.2.4,144.06294974955276,2025-03-09 13h30.41.102286 +0700,
1,2,66,word/wordth0662.png,96,96,0,x,0.5940324999974109,None,0,96,96,96,208.92225579998922,,,,,,,208.92225579998922,208.92225579998922,209.9342412999831,209.9377392999886,209.9377392999886,209.9377392999886,209.9377392999886,210.53505149998819,x,0.5940324999974109,None,,,,,,,,,,DM_th,001,2025-03-09_13h30.26.948,MainFlow,2024.2.4,144.06294974955276,2025-03-09 13h30.41.102286 +0700,
1,1,26,word/wordth0261.png,97,97,0,z,0.6589731999847572,None,0,97,97,97,210.53998959998717,,,,,,,210.53998959998717,210.53998959998717,211.5519348999951,211.5556297999865,211.5556297999865,211.5556297999865,211.5556297999865,212.21746919999714,z,0.6589731999847572,None,,,,,,,,,,DM_th,001,2025-03-09_13h30.26.948,MainFlow,2024.2.4,144.06294974955276,2025-03-09 13h30.41.102286 +0700,
1,3,9,word/wordth0093.png,98,98,0,x,0.7377418999967631,None,0,98,98,98,212.22359119998873,,,,,,,212.22359119998873,212.22359119998873,213.23992349999025,213.24340539998957,213.24340539998957,213.24340539998957,213.24340539998957,213.98563499999,x,0.7377418999967631,None,213.24340539998957,213.24340539998957,,,,,,,,DM_th,001,2025-03-09_13h30.26.948,MainFlow,2024.2.4,144.06294974955276,2025-03-09 13h30.41.102286 +0700,
1,2,61,word/wordth0612.png,99,99,0,x,0.5135302999988198,None,0,99,99,99,213.99070169997867,,,,,,,213.99070169997867,213.99070169997867,215.0028707999736,215.00601259997347,215.00601259997347,215.00601259997347,215.00601259997347,215.526741699985,x,0.5135302999988198,None,,,,,,,,,,DM_th,001,2025-03-09_13h30.26.948,MainFlow,2024.2.4,144.06294974955276,2025-03-09 13h30.41.102286 +0700,
1,3,8,word/wordth0083.png,100,100,0,z,2.5661904999869876,None,0,100,100,100,215.53214239998488,,,,,,,215.53214239998488,215.53214239998488,216.5467789999966,216.55063989997143,216.55063989997143,216.55063989997143,216.55063989997143,219.12609099998372,z,2.5661904999869876,None,,,,,,,,,,DM_th,001,2025-03-09_13h30.26.948,MainFlow,2024.2.4,144.06294974955276,2025-03-09 13h30.41.102286 +0700,
1,1,8,word/wordth0081.png,101,101,0,z,0.6725587000255473,None,0,101,101,101,219.13058339999407,,,,,,,219.13058339999407,219.13058339999407,220.1468048999959,220.15022829998634,220.15022829998634,220.15022829998634,220.15022829998634,220.82531559999916,z,0.6725587000255473,None,220.15022829998634,220.15022829998634,,,,,,,,DM_th,001,2025-03-09_13h30.26.948,MainFlow,2024.2.4,144.06294974955276,2025-03-09 13h30.41.102286 +0700,
1,2,44,word/wordth0442.png,102,102,0,x,0.6004986000189092,None,0,102,102,102,220.82979519999935,,,,,,,220.82979519999935,220.82979519999935,221.84773429998313,221.85115149998455,221.85115149998455,221.85115149998455,221.85115149998455,222.4572697999829,x,0.6004986000189092,None,,,,,,,,,,DM_th,001,2025-03-09_13h30.26.948,MainFlow,2024.2.4,144.06294974955276,2025-03-09 13h30.41.102286 +0700,
1,3,31,word/wordth0313.png,103,103,0,x,0.8772171999735292,None,0,103,103,103,222.46132259999285,,,,,,,222.46132259999285,222.46132259999285,223.47185639999225,223.47523439998622,223.47523439998622,223.47523439998622,223.47523439998622,224.35862019998604,x,0.8772171999735292,None,,,,,,,,,,DM_th,001,2025-03-09_13h30.26.948,MainFlow,2024.2.4,144.06294974955276,2025-03-09 13h30.41.102286 +0700,
1,1,89,word/wordth0891.png,104,104,0,z,1.1385690000024624,None,0,104,104,104,224.36382829997456,,,,,,,224.36382829997456,224.36382829997456,225.3845184999809,225.38815289997729,225.38815289997729,225.38815289997729,225.38815289997729,226.5317283999757,z,1.1385690000024624,None,,,,,,,,,,DM_th,001,2025-03-09_13h30.26.948,MainFlow,2024.2.4,144.06294974955276,2025-03-09 13h30.41.102286 +0700,
1,3,70,word/wordth0703.png,105,105,0,x,0.6377171999774873,None,0,105,105,105,226.53690979999374,,,,,,,226.53690979999374,226.53690979999374,227.55009369997424,227.5534975999908,227.5534975999908,227.5534975999908,227.5534975999908,228.19999659998575,x,0.6377171999774873,None,,,,,,,,,,DM_th,001,2025-03-09_13h30.26.948,MainFlow,2024.2.4,144.06294974955276,2025-03-09 13h30.41.102286 +0700,
1,3,68,word/wordth0683.png,106,106,0,x,0.8169593999919016,None,0,106,106,106,228.2049008999893,,,,,,,228.2049008999893,228.2049008999893,229.2233167999948,229.22681569997803,229.22681569997803,229.22681569997803,229.22681569997803,230.0464529999881,x,0.8169593999919016,None,229.22681569997803,229.22681569997803,,,,,,,,DM_th,001,2025-03-09_13h30.26.948,MainFlow,2024.2.4,144.06294974955276,2025-03-09 13h30.41.102286 +0700,
1,3,10,word/wordth0103.png,107,107,0,x,0.7634723999944981,None,0,107,107,107,230.05142039997736,,,,,,,230.05142039997736,230.05142039997736,231.0572110999783,231.06029919997673,231.06029919997673,231.06029919997673,231.06029919997673,231.82925439998507,x,0.7634723999944981,None,,,,,,,,,,DM_th,001,2025-03-09_13h30.26.948,MainFlow,2024.2.4,144.06294974955276,2025-03-09 13h30.41.102286 +0700,
1,3,94,word/wordth0943.png,108,108,0,x,1.0791250000183936,None,0,108,108,108,231.8345788999868,,,,,,,231.8345788999868,231.8345788999868,232.85357869998552,232.85710549997748,232.85710549997748,232.85710549997748,232.85710549997748,233.94103839999298,x,1.0791250000183936,None,,,,,,,,,,DM_th,001,2025-03-09_13h30.26.948,MainFlow,2024.2.4,144.06294974955276,2025-03-09 13h30.41.102286 +0700,
1,1,3,word/wordth0031.png,109,109,0,z,0.7991020000190474,None,0,109,109,109,233.94678399999975,,,,,,,233.94678399999975,233.94678399999975,234.9608000999724,234.96418129999074,234.96418129999074,234.96418129999074,234.96418129999074,235.76558319997275,z,0.7991020000190474,None,,,,,,,,,,DM_th,001,2025-03-09_13h30.26.948,MainFlow,2024.2.4,144.06294974955276,2025-03-09 13h30.41.102286 +0700,
1,3,63,word/wordth0633.png,110,110,0,x,0.5944438999867998,None,0,110,110,110,235.77128369998536,,,,,,,235.77128369998536,235.77128369998536,236.77961159998085,236.78303919997416,236.78303919997416,236.78303919997416,236.78303919997416,237.38390189997153,x,0.5944438999867998,None,,,,,,,,,,DM_th,001,2025-03-09_13h30.26.948,MainFlow,2024.2.4,144.06294974955276,2025-03-09 13h30.41.102286 +0700,
1,2,9,word/wordth0092.png,111,111,0,x,0.6516072000085842,None,0,111,111,111,237.3890322999796,,,,,,,237.3890322999796,237.3890322999796,238.38376739999512,238.38671139997314,238.38671139997314,238.38671139997314,238.38671139997314,239.04375299997628,x,0.6516072000085842,None,,,,,,,,,,DM_th,001,2025-03-09_13h30.26.948,MainFlow,2024.2.4,144.06294974955276,2025-03-09 13h30.41.102286 +0700,
1,3,7,word/wordth0073.png,112,112,0,x,0.5647624999983236,None,0,112,112,112,239.04845069997828,,,,,,,239.04845069997828,239.04845069997828,240.05319399997825,240.05662959997426,240.05662959997426,240.05662959997426,240.05662959997426,240.6258506999875,x,0.5647624999983236,None,,,,,,,,,,DM_th,001,2025-03-09_13h30.26.948,MainFlow,2024.2.4,144.06294974955276,2025-03-09 13h30.41.102286 +0700,
1,2,41,word/wordth0412.png,113,113,0,x,0.7731732999964152,None,0,113,113,113,240.63150219997624,,,,,,,240.63150219997624,240.63150219997624,241.62603479999234,241.62894619998406,241.62894619998406,241.62894619998406,241.62894619998406,242.4048308999918,x,0.7731732999964152,None,,,,,,,,,,DM_th,001,2025-03-09_13h30.26.948,MainFlow,2024.2.4,144.06294974955276,2025-03-09 13h30.41.102286 +0700,
1,1,9,word/wordth0091.png,114,114,0,z,0.7940487999876495,None,0,114,114,114,242.40931309998268,,,,,,,242.40931309998268,242.40931309998268,243.42434199998388,243.42767029997776,243.42767029997776,243.42767029997776,243.42767029997776,244.2236962999741,z,0.7940487999876495,None,,,,,,,,,,DM_th,001,2025-03-09_13h30.26.948,MainFlow,2024.2.4,144.06294974955276,2025-03-09 13h30.41.102286 +0700,
1,1,94,word/wordth0941.png,115,115,0,z,0.589888400019845,None,0,115,115,115,244.22832639998524,,,,,,,244.22832639998524,244.22832639998524,245.24442299999646,245.24777739998535,245.24777739998535,245.24777739998535,245.24777739998535,245.8404933999991,z,0.589888400019845,None,,,,,,,,,,DM_th,001,2025-03-09_13h30.26.948,MainFlow,2024.2.4,144.06294974955276,2025-03-09 13h30.41.102286 +0700,
1,1,52,word/wordth0521.png,116,116,0,z,0.579731100006029,None,0,116,116,116,245.84565639999346,,,,,,,245.84565639999346,245.84565639999346,246.856693299982,246.8600636999763,246.8600636999763,246.8600636999763,246.8600636999763,247.4444322999916,z,0.579731100006029,None,,,,,,,,,,DM_th,001,2025-03-09_13h30.26.948,MainFlow,2024.2.4,144.06294974955276,2025-03-09 13h30.41.102286 +0700,
1,2,88,word/wordth0882.png,117,117,0,x,0.9401222000014968,None,0,117,117,117,247.4497493999952,,,,,,,247.4497493999952,247.4497493999952,248.46523559998604,248.46891149997828,248.46891149997828,248.46891149997828,248.46891149997828,249.4167081999767,x,0.9401222000014968,None,,,,,,,,,,DM_th,001,2025-03-09_13h30.26.948,MainFlow,2024.2.4,144.06294974955276,2025-03-09 13h30.41.102286 +0700,
1,1,41,word/wordth0411.png,118,118,0,z,0.8724425000254996,None,0,118,118,118,249.4214436999755,,,,,,,249.4214436999755,249.4214436999755,250.4321810999827,250.4355470999726,250.4355470999726,250.4355470999726,250.4355470999726,251.3128691999882,z,0.8724425000254996,None,,,,,,,,,,DM_th,001,2025-03-09_13h30.26.948,MainFlow,2024.2.4,144.06294974955276,2025-03-09 13h30.41.102286 +0700,
1,3,30,word/wordth0303.png,119,119,0,x,2.7664566000166815,None,0,119,119,119,251.31902669998817,,,,,,,251.31902669998817,251.31902669998817,252.33770649999497,252.34116699997685,252.34116699997685,252.34116699997685,252.34116699997685,255.10899199999403,x,2.7664566000166815,None,,,,,,,,,,DM_th,001,2025-03-09_13h30.26.948,MainFlow,2024.2.4,144.06294974955276,2025-03-09 13h30.41.102286 +0700,
,,,,,,,,,,,,,,,,,,,,,,,,,,,,,,,,,,255.10910969998804,255.11464179999894,255.11464179999894,297.0043053999834,space,41.88660369999707,None,DM_th,001,2025-03-09_13h30.26.948,MainFlow,2024.2.4,144.06294974955276,2025-03-09 13h30.41.102286 +0700,
