lang,stimuli,imageid,worddir,thisN,thisTrialN,thisRepN,key_resp.keys,key_resp.rt,key_resp.duration,trials.thisRepN,trials.thisTrialN,trials.thisN,trials.thisIndex,thisRow.t,notes,tutorial.started,tutorial.stopped,key_instruct.keys,key_instruct.rt,key_instruct.duration,instructblank.started,cross1.started,letterselect.started,imageword.started,text_2.started,cross2.started,key_resp.started,letterselect.stopped,trials.key_resp.keys,trials.key_resp.rt,trials.key_resp.duration,instructblank.stopped,cross1.stopped,ending.started,text_3.started,ending_key.started,ending.stopped,ending_key.keys,ending_key.rt,ending_key.duration,participant,session,date,expName,psychopyVersion,frameRate,expStart,
,,,,,,,,,,,,,,,,0.0033558000000084576,2.0108940000000075,space,1.9667119999999159,None,,,,,,,,,,,,,,,,,,,,,GSR_en,001,2025-03-07_11h12.02.686,MainFlow,2024.2.4,134.93164362906217,2025-03-07 11h12.17.382536 +0700,
2,1,66,word/worden0661.png,0,0,0,z,4.132204799999954,None,0,0,0,0,2.083526200000051,,,,,,,2.083526200000051,2.083526200000051,3.09960389999992,3.140250500000093,3.140250500000093,3.140250500000093,3.140250500000093,7.277128700000048,z,4.132204799999954,None,,,,,,,,,,GSR_en,001,2025-03-07_11h12.02.686,MainFlow,2024.2.4,134.93164362906217,2025-03-07 11h12.17.382536 +0700,
2,1,3,word/worden0031.png,1,1,0,z,0.7172557999999754,None,0,1,1,1,7.282998000000134,,,,,,,7.282998000000134,7.282998000000134,8.32169470000008,8.32853339999997,8.32853339999997,8.32853339999997,8.32853339999997,9.050661799999943,z,0.7172557999999754,None,,,,,,,,,,GSR_en,001,2025-03-07_11h12.02.686,MainFlow,2024.2.4,134.93164362906217,2025-03-07 11h12.17.382536 +0700,
2,2,71,word/worden0712.png,2,2,0,x,0.7397056000002067,None,0,2,2,2,9.057502500000055,,,,,,,9.057502500000055,9.057502500000055,10.10152590000007,10.108942600000091,10.108942600000091,10.108942600000091,10.108942600000091,10.860445100000106,x,0.7397056000002067,None,,,,,,,,,,GSR_en,001,2025-03-07_11h12.02.686,MainFlow,2024.2.4,134.93164362906217,2025-03-07 11h12.17.382536 +0700,
2,3,27,word/worden0273.png,3,3,0,x,0.6663048000000344,None,0,3,3,3,10.867656500000066,,,,,,,10.867656500000066,10.867656500000066,11.906082100000049,11.91328139999996,11.91328139999996,11.91328139999996,11.91328139999996,12.583373200000096,x,0.6663048000000344,None,,,,,,,,,,GSR_en,001,2025-03-07_11h12.02.686,MainFlow,2024.2.4,134.93164362906217,2025-03-07 11h12.17.382536 +0700,
2,3,88,word/worden0883.png,4,4,0,x,0.97028239999986,None,0,4,4,4,12.590397500000108,,,,,,,12.590397500000108,12.590397500000108,13.63491840000006,13.642509100000098,13.642509100000098,13.642509100000098,13.642509100000098,14.623448900000085,x,0.97028239999986,None,,,,,,,,,,GSR_en,001,2025-03-07_11h12.02.686,MainFlow,2024.2.4,134.93164362906217,2025-03-07 11h12.17.382536 +0700,
2,1,28,word/worden0281.png,5,5,0,z,0.6337839999998778,None,0,5,5,5,14.629778100000067,,,,,,,14.629778100000067,14.629778100000067,15.653935199999978,15.659625700000106,15.659625700000106,15.659625700000106,15.659625700000106,16.29778209999995,z,0.6337839999998778,None,15.659625700000106,15.659625700000106,,,,,,,,GSR_en,001,2025-03-07_11h12.02.686,MainFlow,2024.2.4,134.93164362906217,2025-03-07 11h12.17.382536 +0700,
2,1,50,word/worden0501.png,6,6,0,z,0.7038789000000634,None,0,6,6,6,16.306063900000026,,,,,,,16.306063900000026,16.306063900000026,17.35442050000006,17.36300610000012,17.36300610000012,17.36300610000012,17.36300610000012,18.07454860000007,z,0.7038789000000634,None,,,,,,,,,,GSR_en,001,2025-03-07_11h12.02.686,MainFlow,2024.2.4,134.93164362906217,2025-03-07 11h12.17.382536 +0700,
2,1,41,word/worden0411.png,7,7,0,z,0.52087900000015,None,0,7,7,7,18.080417099999977,,,,,,,18.080417099999977,18.080417099999977,19.127450500000123,19.13521209999999,19.13521209999999,19.13521209999999,19.13521209999999,19.66692379999995,z,0.52087900000015,None,19.13521209999999,19.13521209999999,,,,,,,,GSR_en,001,2025-03-07_11h12.02.686,MainFlow,2024.2.4,134.93164362906217,2025-03-07 11h12.17.382536 +0700,
2,2,52,word/worden0522.png,8,8,0,x,0.6166318999999021,None,0,8,8,8,19.674860699999954,,,,,,,19.674860699999954,19.674860699999954,20.696078700000044,20.702809800000068,20.702809800000068,20.702809800000068,20.702809800000068,21.3271357000001,x,0.6166318999999021,None,,,,,,,,,,GSR_en,001,2025-03-07_11h12.02.686,MainFlow,2024.2.4,134.93164362906217,2025-03-07 11h12.17.382536 +0700,
2,3,6,word/worden0063.png,9,9,0,x,0.9843630999998823,None,0,9,9,9,21.33427400000005,,,,,,,21.33427400000005,21.33427400000005,22.375096499999927,22.38284060000001,22.38284060000001,22.38284060000001,22.38284060000001,23.37954119999995,x,0.9843630999998823,None,,,,,,,,,,GSR_en,001,2025-03-07_11h12.02.686,MainFlow,2024.2.4,134.93164362906217,2025-03-07 11h12.17.382536 +0700,
2,3,46,word/worden0463.png,10,10,0,x,0.810094700000036,None,0,10,10,10,23.386471999999912,,,,,,,23.386471999999912,23.386471999999912,24.429406599999993,24.43532479999999,24.43532479999999,24.43532479999999,24.43532479999999,25.25121379999996,x,0.810094700000036,None,,,,,,,,,,GSR_en,001,2025-03-07_11h12.02.686,MainFlow,2024.2.4,134.93164362906217,2025-03-07 11h12.17.382536 +0700,
2,2,30,word/worden0302.png,11,11,0,x,0.9035000999999738,None,0,11,11,11,25.2568275000001,,,,,,,25.2568275000001,25.2568275000001,26.287704300000087,26.293352599999935,26.293352599999935,26.293352599999935,26.293352599999935,27.20606049999992,x,0.9035000999999738,None,,,,,,,,,,GSR_en,001,2025-03-07_11h12.02.686,MainFlow,2024.2.4,134.93164362906217,2025-03-07 11h12.17.382536 +0700,
2,2,46,word/worden0462.png,12,12,0,x,0.665673199999901,None,0,12,12,12,27.212304599999925,,,,,,,27.212304599999925,27.212304599999925,28.237893499999927,28.243583599999965,28.243583599999965,28.243583599999965,28.243583599999965,28.917465600000014,x,0.665673199999901,None,,,,,,,,,,GSR_en,001,2025-03-07_11h12.02.686,MainFlow,2024.2.4,134.93164362906217,2025-03-07 11h12.17.382536 +0700,
2,2,70,word/worden0702.png,13,13,0,x,0.8772492000000511,None,0,13,13,13,28.922887200000105,,,,,,,28.922887200000105,28.922887200000105,29.937643799999933,29.943307400000094,29.943307400000094,29.943307400000094,29.943307400000094,30.83032490000005,x,0.8772492000000511,None,,,,,,,,,,GSR_en,001,2025-03-07_11h12.02.686,MainFlow,2024.2.4,134.93164362906217,2025-03-07 11h12.17.382536 +0700,
2,1,70,word/worden0701.png,14,14,0,z,0.628052499999967,None,0,14,14,14,30.8371224,,,,,,,30.8371224,30.8371224,31.862831700000015,31.868845500000134,31.868845500000134,31.868845500000134,31.868845500000134,32.5017957,z,0.628052499999967,None,,,,,,,,,,GSR_en,001,2025-03-07_11h12.02.686,MainFlow,2024.2.4,134.93164362906217,2025-03-07 11h12.17.382536 +0700,
2,1,8,word/worden0081.png,15,15,0,z,0.4822017000001324,None,0,15,15,15,32.50898110000003,,,,,,,32.50898110000003,32.50898110000003,33.528259899999966,33.53351640000005,33.53351640000005,33.53351640000005,33.53351640000005,34.021457600000076,z,0.4822017000001324,None,,,,,,,,,,GSR_en,001,2025-03-07_11h12.02.686,MainFlow,2024.2.4,134.93164362906217,2025-03-07 11h12.17.382536 +0700,
2,3,61,word/worden0613.png,16,16,0,x,0.8339271999998346,None,0,16,16,16,34.02715839999996,,,,,,,34.02715839999996,34.02715839999996,35.04482370000005,35.050752900000134,35.050752900000134,35.050752900000134,35.050752900000134,35.88989349999997,x,0.8339271999998346,None,,,,,,,,,,GSR_en,001,2025-03-07_11h12.02.686,MainFlow,2024.2.4,134.93164362906217,2025-03-07 11h12.17.382536 +0700,
2,3,10,word/worden0103.png,17,17,0,x,0.6476297000001523,None,0,17,17,17,35.896167000000105,,,,,,,35.896167000000105,35.896167000000105,36.92385319999994,36.92970869999999,36.92970869999999,36.92970869999999,36.92970869999999,37.58406480000008,x,0.6476297000001523,None,36.92970869999999,36.92970869999999,,,,,,,,GSR_en,001,2025-03-07_11h12.02.686,MainFlow,2024.2.4,134.93164362906217,2025-03-07 11h12.17.382536 +0700,
2,3,75,word/worden0753.png,18,18,0,x,0.6799095999999736,None,0,18,18,18,37.58953480000014,,,,,,,37.58953480000014,37.58953480000014,38.61152629999992,38.617194100000006,38.617194100000006,38.617194100000006,38.617194100000006,39.30025160000014,x,0.6799095999999736,None,38.617194100000006,38.617194100000006,,,,,,,,GSR_en,001,2025-03-07_11h12.02.686,MainFlow,2024.2.4,134.93164362906217,2025-03-07 11h12.17.382536 +0700,
2,2,63,word/worden0632.png,19,19,0,x,0.8201485000001867,None,0,19,19,19,39.308357300000125,,,,,,,39.308357300000125,39.308357300000125,40.347917699999925,40.35523869999997,40.35523869999997,40.35523869999997,40.35523869999997,41.17975589999992,x,0.8201485000001867,None,,,,,,,,,,GSR_en,001,2025-03-07_11h12.02.686,MainFlow,2024.2.4,134.93164362906217,2025-03-07 11h12.17.382536 +0700,
2,3,11,word/worden0113.png,20,20,0,x,0.7283860999998524,None,0,20,20,20,41.18816059999995,,,,,,,41.18816059999995,41.18816059999995,42.22468170000002,42.23221190000004,42.23221190000004,42.23221190000004,42.23221190000004,42.96491590000005,x,0.7283860999998524,None,,,,,,,,,,GSR_en,001,2025-03-07_11h12.02.686,MainFlow,2024.2.4,134.93164362906217,2025-03-07 11h12.17.382536 +0700,
2,2,89,word/worden0892.png,21,21,0,x,1.0555924999998751,None,0,21,21,21,42.9720241,,,,,,,42.9720241,42.9720241,44.0033919,44.010005699999965,44.010005699999965,44.010005699999965,44.010005699999965,45.07073940000009,x,1.0555924999998751,None,,,,,,,,,,GSR_en,001,2025-03-07_11h12.02.686,MainFlow,2024.2.4,134.93164362906217,2025-03-07 11h12.17.382536 +0700,
2,1,9,word/worden0091.png,22,22,0,z,0.6914380999999139,None,0,22,22,22,45.07840690000012,,,,,,,45.07840690000012,45.07840690000012,46.11856839999996,46.12595800000008,46.12595800000008,46.12595800000008,46.12595800000008,46.82549640000002,z,0.6914380999999139,None,,,,,,,,,,GSR_en,001,2025-03-07_11h12.02.686,MainFlow,2024.2.4,134.93164362906217,2025-03-07 11h12.17.382536 +0700,
2,3,28,word/worden0283.png,23,23,0,x,1.0093474000000242,None,0,23,23,23,46.832538300000124,,,,,,,46.832538300000124,46.832538300000124,47.869066200000134,47.87639710000008,47.87639710000008,47.87639710000008,47.87639710000008,48.89755880000007,x,1.0093474000000242,None,,,,,,,,,,GSR_en,001,2025-03-07_11h12.02.686,MainFlow,2024.2.4,134.93164362906217,2025-03-07 11h12.17.382536 +0700,
2,1,82,word/worden0821.png,24,24,0,z,0.9237246999998661,None,0,24,24,24,48.90485970000009,,,,,,,48.90485970000009,48.90485970000009,49.94527080000012,49.95278710000002,49.95278710000002,49.95278710000002,49.95278710000002,50.88100159999999,z,0.9237246999998661,None,,,,,,,,,,GSR_en,001,2025-03-07_11h12.02.686,MainFlow,2024.2.4,134.93164362906217,2025-03-07 11h12.17.382536 +0700,
2,2,28,word/worden0282.png,25,25,0,x,0.8612783000000945,None,0,25,25,25,50.89257109999994,,,,,,,50.89257109999994,50.89257109999994,51.90689590000011,51.91261529999997,51.91261529999997,51.91261529999997,51.91261529999997,52.776899200000116,x,0.8612783000000945,None,,,,,,,,,,GSR_en,001,2025-03-07_11h12.02.686,MainFlow,2024.2.4,134.93164362906217,2025-03-07 11h12.17.382536 +0700,
2,1,23,word/worden0231.png,26,26,0,z,0.5900036000000455,None,0,26,26,26,52.78410780000013,,,,,,,52.78410780000013,52.78410780000013,53.82717679999996,53.8347589,53.8347589,53.8347589,53.8347589,54.4361957000001,z,0.5900036000000455,None,,,,,,,,,,GSR_en,001,2025-03-07_11h12.02.686,MainFlow,2024.2.4,134.93164362906217,2025-03-07 11h12.17.382536 +0700,
2,2,42,word/worden0422.png,27,27,0,x,0.7663327000000208,None,0,27,27,27,54.44356379999999,,,,,,,54.44356379999999,54.44356379999999,55.483515300000136,55.49140239999997,55.49140239999997,55.49140239999997,55.49140239999997,56.25937620000013,x,0.7663327000000208,None,,,,,,,,,,GSR_en,001,2025-03-07_11h12.02.686,MainFlow,2024.2.4,134.93164362906217,2025-03-07 11h12.17.382536 +0700,
2,2,93,word/worden0932.png,28,28,0,x,0.7761169000000336,None,0,28,28,28,56.26472250000006,,,,,,,56.26472250000006,56.26472250000006,57.28032200000007,57.28563320000012,57.28563320000012,57.28563320000012,57.28563320000012,58.06444740000006,x,0.7761169000000336,None,,,,,,,,,,GSR_en,001,2025-03-07_11h12.02.686,MainFlow,2024.2.4,134.93164362906217,2025-03-07 11h12.17.382536 +0700,
2,1,88,word/worden0881.png,29,29,0,z,0.7731615999998667,None,0,29,29,29,58.07522180000001,,,,,,,58.07522180000001,58.07522180000001,59.08728580000002,59.09303950000003,59.09303950000003,59.09303950000003,59.09303950000003,59.87058739999998,z,0.7731615999998667,None,,,,,,,,,,GSR_en,001,2025-03-07_11h12.02.686,MainFlow,2024.2.4,134.93164362906217,2025-03-07 11h12.17.382536 +0700,
2,3,31,word/worden0313.png,30,30,0,x,0.6874253999999382,None,0,30,30,30,59.876285399999915,,,,,,,59.876285399999915,59.876285399999915,60.88822520000008,60.89417000000003,60.89417000000003,60.89417000000003,60.89417000000003,61.58461579999994,x,0.6874253999999382,None,,,,,,,,,,GSR_en,001,2025-03-07_11h12.02.686,MainFlow,2024.2.4,134.93164362906217,2025-03-07 11h12.17.382536 +0700,
2,2,75,word/worden0752.png,31,31,0,x,0.6318536999999651,None,0,31,31,31,61.595620900000085,,,,,,,61.595620900000085,61.595620900000085,62.60829100000001,62.61478920000013,62.61478920000013,62.61478920000013,62.61478920000013,63.25408360000006,x,0.6318536999999651,None,,,,,,,,,,GSR_en,001,2025-03-07_11h12.02.686,MainFlow,2024.2.4,134.93164362906217,2025-03-07 11h12.17.382536 +0700,
2,2,48,word/worden0482.png,32,32,0,x,0.785005799999908,None,0,32,32,32,63.26198720000002,,,,,,,63.26198720000002,63.26198720000002,64.30942260000006,64.3169018000001,64.3169018000001,64.3169018000001,64.3169018000001,65.1047337,x,0.785005799999908,None,,,,,,,,,,GSR_en,001,2025-03-07_11h12.02.686,MainFlow,2024.2.4,134.93164362906217,2025-03-07 11h12.17.382536 +0700,
2,1,26,word/worden0261.png,33,33,0,z,0.6491588999999749,None,0,33,33,33,65.11047580000013,,,,,,,65.11047580000013,65.11047580000013,66.12820940000006,66.13447500000007,66.13447500000007,66.13447500000007,66.13447500000007,66.79271300000005,z,0.6491588999999749,None,,,,,,,,,,GSR_en,001,2025-03-07_11h12.02.686,MainFlow,2024.2.4,134.93164362906217,2025-03-07 11h12.17.382536 +0700,
2,2,41,word/worden0412.png,34,34,0,x,0.5283969000001889,None,0,34,34,34,66.80012319999992,,,,,,,66.80012319999992,66.80012319999992,67.83395440000004,67.84148069999992,67.84148069999992,67.84148069999992,67.84148069999992,68.37962500000003,x,0.5283969000001889,None,,,,,,,,,,GSR_en,001,2025-03-07_11h12.02.686,MainFlow,2024.2.4,134.93164362906217,2025-03-07 11h12.17.382536 +0700,
2,3,66,word/worden0663.png,35,35,0,x,0.9661229000000731,None,0,35,35,35,68.38700330000006,,,,,,,68.38700330000006,68.38700330000006,69.43136299999992,69.43869459999996,69.43869459999996,69.43869459999996,69.43869459999996,70.41374599999995,x,0.9661229000000731,None,,,,,,,,,,GSR_en,001,2025-03-07_11h12.02.686,MainFlow,2024.2.4,134.93164362906217,2025-03-07 11h12.17.382536 +0700,
2,1,6,word/worden0061.png,36,36,0,z,0.5594711000001098,None,0,36,36,36,70.42051130000004,,,,,,,70.42051130000004,70.42051130000004,71.458617,71.46700390000001,71.46700390000001,71.46700390000001,71.46700390000001,72.02961540000001,z,0.5594711000001098,None,,,,,,,,,,GSR_en,001,2025-03-07_11h12.02.686,MainFlow,2024.2.4,134.93164362906217,2025-03-07 11h12.17.382536 +0700,
2,1,42,word/worden0421.png,37,37,0,z,0.628115500000149,None,0,37,37,37,72.03736589999994,,,,,,,72.03736589999994,72.03736589999994,73.07862780000005,73.08611900000005,73.08611900000005,73.08611900000005,73.08611900000005,73.7187027,z,0.628115500000149,None,,,,,,,,,,GSR_en,001,2025-03-07_11h12.02.686,MainFlow,2024.2.4,134.93164362906217,2025-03-07 11h12.17.382536 +0700,
2,3,41,word/worden0413.png,38,38,0,x,0.6955376999999316,None,0,38,38,38,73.7256969,,,,,,,73.7256969,73.7256969,74.74204920000011,74.74889929999995,74.74889929999995,74.74889929999995,74.74889929999995,75.44954239999993,x,0.6955376999999316,None,,,,,,,,,,GSR_en,001,2025-03-07_11h12.02.686,MainFlow,2024.2.4,134.93164362906217,2025-03-07 11h12.17.382536 +0700,
2,2,23,word/worden0232.png,39,39,0,x,0.5979503999999451,None,0,39,39,39,75.45803539999997,,,,,,,75.45803539999997,75.45803539999997,76.49108840000008,76.49836699999992,76.49836699999992,76.49836699999992,76.49836699999992,77.1042129,x,0.5979503999999451,None,,,,,,,,,,GSR_en,001,2025-03-07_11h12.02.686,MainFlow,2024.2.4,134.93164362906217,2025-03-07 11h12.17.382536 +0700,
2,3,96,word/worden0963.png,40,40,0,x,0.9341750999999476,None,0,40,40,40,77.11235009999996,,,,,,,77.11235009999996,77.11235009999996,78.15496469999994,78.16242729999999,78.16242729999999,78.16242729999999,78.16242729999999,79.10685050000006,x,0.9341750999999476,None,,,,,,,,,,GSR_en,001,2025-03-07_11h12.02.686,MainFlow,2024.2.4,134.93164362906217,2025-03-07 11h12.17.382536 +0700,
2,1,61,word/worden0611.png,41,41,0,z,0.6258034999998472,None,0,41,41,41,79.11449450000009,,,,,,,79.11449450000009,79.11449450000009,80.15479540000001,80.16217740000002,80.16217740000002,80.16217740000002,80.16217740000002,80.79826709999998,z,0.6258034999998472,None,,,,,,,,,,GSR_en,001,2025-03-07_11h12.02.686,MainFlow,2024.2.4,134.93164362906217,2025-03-07 11h12.17.382536 +0700,
2,3,9,word/worden0093.png,42,42,0,x,2.265793600000052,None,0,42,42,42,80.80519350000009,,,,,,,80.80519350000009,80.80519350000009,81.84117790000005,81.84847919999993,81.84847919999993,81.84847919999993,81.84847919999993,84.1169112,x,2.265793600000052,None,,,,,,,,,,GSR_en,001,2025-03-07_11h12.02.686,MainFlow,2024.2.4,134.93164362906217,2025-03-07 11h12.17.382536 +0700,
2,3,63,word/worden0633.png,43,43,0,x,2.017919699999993,None,0,43,43,43,84.12348689999999,,,,,,,84.12348689999999,84.12348689999999,85.15050760000008,85.15641090000008,85.15641090000008,85.15641090000008,85.15641090000008,87.17898370000012,x,2.017919699999993,None,85.15641090000008,85.15641090000008,,,,,,,,GSR_en,001,2025-03-07_11h12.02.686,MainFlow,2024.2.4,134.93164362906217,2025-03-07 11h12.17.382536 +0700,
2,3,50,word/worden0503.png,44,44,0,x,0.5866112000001067,None,0,44,44,44,87.18517169999996,,,,,,,87.18517169999996,87.18517169999996,88.20567210000013,88.2110517000001,88.2110517000001,88.2110517000001,88.2110517000001,88.80212950000009,x,0.5866112000001067,None,88.2110517000001,88.2110517000001,,,,,,,,GSR_en,001,2025-03-07_11h12.02.686,MainFlow,2024.2.4,134.93164362906217,2025-03-07 11h12.17.382536 +0700,
2,2,27,word/worden0272.png,45,45,0,x,0.5788641999999982,None,0,45,45,45,88.8078286,,,,,,,88.8078286,88.8078286,89.82065009999997,89.82617610000011,89.82617610000011,89.82617610000011,89.82617610000011,90.41782039999998,x,0.5788641999999982,None,,,,,,,,,,GSR_en,001,2025-03-07_11h12.02.686,MainFlow,2024.2.4,134.93164362906217,2025-03-07 11h12.17.382536 +0700,
2,2,61,word/worden0612.png,46,46,0,x,0.48868350000020655,None,0,46,46,46,90.42434270000012,,,,,,,90.42434270000012,90.42434270000012,91.44304209999996,91.44885849999991,91.44885849999991,91.44885849999991,91.44885849999991,91.94206759999997,x,0.48868350000020655,None,,,,,,,,,,GSR_en,001,2025-03-07_11h12.02.686,MainFlow,2024.2.4,134.93164362906217,2025-03-07 11h12.17.382536 +0700,
2,3,7,word/worden0073.png,47,47,0,x,0.9908238999998957,None,0,47,47,47,91.94825489999994,,,,,,,91.94825489999994,91.94825489999994,92.96700750000014,92.97235580000006,92.97235580000006,92.97235580000006,92.97235580000006,93.97351290000006,x,0.9908238999998957,None,92.97235580000006,92.97235580000006,,,,,,,,GSR_en,001,2025-03-07_11h12.02.686,MainFlow,2024.2.4,134.93164362906217,2025-03-07 11h12.17.382536 +0700,
2,3,23,word/worden0233.png,48,48,0,x,0.6587533999997959,None,0,48,48,48,93.98033690000011,,,,,,,93.98033690000011,93.98033690000011,95.01895029999991,95.02656679999996,95.02656679999996,95.02656679999996,95.02656679999996,95.69428779999998,x,0.6587533999997959,None,,,,,,,,,,GSR_en,001,2025-03-07_11h12.02.686,MainFlow,2024.2.4,134.93164362906217,2025-03-07 11h12.17.382536 +0700,
2,1,95,word/worden0951.png,49,49,0,z,1.0002294999999322,None,0,49,49,49,95.70272960000011,,,,,,,95.70272960000011,95.70272960000011,96.74345719999997,96.75080679999996,96.75080679999996,96.75080679999996,96.75080679999996,97.75780200000008,z,1.0002294999999322,None,,,,,,,,,,GSR_en,001,2025-03-07_11h12.02.686,MainFlow,2024.2.4,134.93164362906217,2025-03-07 11h12.17.382536 +0700,
2,3,42,word/worden0423.png,50,50,0,x,1.0647083000001203,None,0,50,50,50,97.76704880000011,,,,,,,97.76704880000011,97.76704880000011,98.79945870000006,98.8069574000001,98.8069574000001,98.8069574000001,98.8069574000001,99.87857299999996,x,1.0647083000001203,None,,,,,,,,,,GSR_en,001,2025-03-07_11h12.02.686,MainFlow,2024.2.4,134.93164362906217,2025-03-07 11h12.17.382536 +0700,
2,1,30,word/worden0301.png,51,51,0,z,0.5119540000000598,None,0,51,51,51,99.88602429999992,,,,,,,99.88602429999992,99.88602429999992,100.92806350000001,100.93535429999997,100.93535429999997,100.93535429999997,100.93535429999997,101.45119890000001,z,0.5119540000000598,None,,,,,,,,,,GSR_en,001,2025-03-07_11h12.02.686,MainFlow,2024.2.4,134.93164362906217,2025-03-07 11h12.17.382536 +0700,
2,3,87,word/worden0873.png,52,52,0,x,0.7658572999998796,None,0,52,52,52,101.4582167000001,,,,,,,101.4582167000001,101.4582167000001,102.49721019999993,102.50531290000004,102.50531290000004,102.50531290000004,102.50531290000004,103.28344609999999,x,0.7658572999998796,None,,,,,,,,,,GSR_en,001,2025-03-07_11h12.02.686,MainFlow,2024.2.4,134.93164362906217,2025-03-07 11h12.17.382536 +0700,
2,2,6,word/worden0062.png,53,53,0,x,0.9341518000001088,None,0,53,53,53,103.29108369999994,,,,,,,103.29108369999994,103.29108369999994,104.32955749999996,104.33702440000002,104.33702440000002,104.33702440000002,104.33702440000002,105.27536740000005,x,0.9341518000001088,None,,,,,,,,,,GSR_en,001,2025-03-07_11h12.02.686,MainFlow,2024.2.4,134.93164362906217,2025-03-07 11h12.17.382536 +0700,
2,2,68,word/worden0682.png,54,54,0,x,0.783838199999991,None,0,54,54,54,105.28286290000005,,,,,,,105.28286290000005,105.28286290000005,106.30049650000001,106.30631970000013,106.30631970000013,106.30631970000013,106.30631970000013,107.09762879999994,x,0.783838199999991,None,,,,,,,,,,GSR_en,001,2025-03-07_11h12.02.686,MainFlow,2024.2.4,134.93164362906217,2025-03-07 11h12.17.382536 +0700,
2,3,1,word/worden0013.png,55,55,0,x,1.2771803000000546,None,0,55,55,55,107.1029251,,,,,,,107.1029251,107.1029251,108.11819089999995,108.12331010000003,108.12331010000003,108.12331010000003,108.12331010000003,109.40408410000009,x,1.2771803000000546,None,,,,,,,,,,GSR_en,001,2025-03-07_11h12.02.686,MainFlow,2024.2.4,134.93164362906217,2025-03-07 11h12.17.382536 +0700,
2,2,94,word/worden0942.png,56,56,0,x,1.3080545999998776,None,0,56,56,56,109.41037170000004,,,,,,,109.41037170000004,109.41037170000004,110.44687150000004,110.45316279999997,110.45316279999997,110.45316279999997,110.45316279999997,111.76979849999998,x,1.3080545999998776,None,,,,,,,,,,GSR_en,001,2025-03-07_11h12.02.686,MainFlow,2024.2.4,134.93164362906217,2025-03-07 11h12.17.382536 +0700,
2,3,82,word/worden0823.png,57,57,0,x,1.307191800000055,None,0,57,57,57,111.77672209999992,,,,,,,111.77672209999992,111.77672209999992,112.81122600000003,112.81842800000004,112.81842800000004,112.81842800000004,112.81842800000004,114.13569280000002,x,1.307191800000055,None,,,,,,,,,,GSR_en,001,2025-03-07_11h12.02.686,MainFlow,2024.2.4,134.93164362906217,2025-03-07 11h12.17.382536 +0700,
2,1,89,word/worden0891.png,58,58,0,z,0.6079070000000684,None,0,58,58,58,114.14302070000008,,,,,,,114.14302070000008,114.14302070000008,115.18335920000004,115.19084670000007,115.19084670000007,115.19084670000007,115.19084670000007,115.80243960000007,z,0.6079070000000684,None,,,,,,,,,,GSR_en,001,2025-03-07_11h12.02.686,MainFlow,2024.2.4,134.93164362906217,2025-03-07 11h12.17.382536 +0700,
2,1,31,word/worden0311.png,59,59,0,z,0.5554798000000574,None,0,59,59,59,115.80966549999994,,,,,,,115.80966549999994,115.80966549999994,116.84743419999995,116.85481010000012,116.85481010000012,116.85481010000012,116.85481010000012,117.41939789999992,z,0.5554798000000574,None,,,,,,,,,,GSR_en,001,2025-03-07_11h12.02.686,MainFlow,2024.2.4,134.93164362906217,2025-03-07 11h12.17.382536 +0700,
2,2,51,word/worden0512.png,60,60,0,x,0.5863061000000016,None,0,60,60,60,117.4272234,,,,,,,117.4272234,117.4272234,118.4662022,118.4735627,118.4735627,118.4735627,118.4735627,119.06873450000012,x,0.5863061000000016,None,,,,,,,,,,GSR_en,001,2025-03-07_11h12.02.686,MainFlow,2024.2.4,134.93164362906217,2025-03-07 11h12.17.382536 +0700,
2,3,44,word/worden0443.png,61,61,0,x,0.9590209000000414,None,0,61,61,61,119.07630489999997,,,,,,,119.07630489999997,119.07630489999997,120.0984006000001,120.10462310000003,120.10462310000003,120.10462310000003,120.10462310000003,121.06776130000003,x,0.9590209000000414,None,,,,,,,,,,GSR_en,001,2025-03-07_11h12.02.686,MainFlow,2024.2.4,134.93164362906217,2025-03-07 11h12.17.382536 +0700,
2,1,1,word/worden0011.png,62,62,0,z,0.718636800000013,None,0,62,62,62,121.07392060000006,,,,,,,121.07392060000006,121.07392060000006,122.09638940000013,122.10264499999994,122.10264499999994,122.10264499999994,122.10264499999994,122.82429890000003,z,0.718636800000013,None,,,,,,,,,,GSR_en,001,2025-03-07_11h12.02.686,MainFlow,2024.2.4,134.93164362906217,2025-03-07 11h12.17.382536 +0700,
2,1,96,word/worden0961.png,63,63,0,z,0.738944599999968,None,0,63,63,63,122.83094559999995,,,,,,,122.83094559999995,122.83094559999995,123.85430859999997,123.86173409999992,123.86173409999992,123.86173409999992,123.86173409999992,124.60908010000003,z,0.738944599999968,None,,,,,,,,,,GSR_en,001,2025-03-07_11h12.02.686,MainFlow,2024.2.4,134.93164362906217,2025-03-07 11h12.17.382536 +0700,
2,1,11,word/worden0111.png,64,64,0,z,1.5363327000000027,None,0,64,64,64,124.614642,,,,,,,124.614642,124.614642,125.6451555000001,125.65162069999997,125.65162069999997,125.65162069999997,125.65162069999997,127.19134869999993,z,1.5363327000000027,None,,,,,,,,,,GSR_en,001,2025-03-07_11h12.02.686,MainFlow,2024.2.4,134.93164362906217,2025-03-07 11h12.17.382536 +0700,
2,3,70,word/worden0703.png,65,65,0,x,0.7762841999999637,None,0,65,65,65,127.19919959999993,,,,,,,127.19919959999993,127.19919959999993,128.23077839999996,128.2391993000001,128.2391993000001,128.2391993000001,128.2391993000001,129.02254889999995,x,0.7762841999999637,None,,,,,,,,,,GSR_en,001,2025-03-07_11h12.02.686,MainFlow,2024.2.4,134.93164362906217,2025-03-07 11h12.17.382536 +0700,
2,3,71,word/worden0713.png,66,66,0,x,0.7998469000001478,None,0,66,66,66,129.02775270000006,,,,,,,129.02775270000006,129.02775270000006,130.05565960000013,130.06304769999997,130.06304769999997,130.06304769999997,130.06304769999997,130.86611540000013,x,0.7998469000001478,None,,,,,,,,,,GSR_en,001,2025-03-07_11h12.02.686,MainFlow,2024.2.4,134.93164362906217,2025-03-07 11h12.17.382536 +0700,
2,1,68,word/worden0681.png,67,67,0,z,0.5813865000000078,None,0,67,67,67,130.87375049999991,,,,,,,130.87375049999991,130.87375049999991,131.9134927,131.92080170000008,131.92080170000008,131.92080170000008,131.92080170000008,132.50678140000014,z,0.5813865000000078,None,,,,,,,,,,GSR_en,001,2025-03-07_11h12.02.686,MainFlow,2024.2.4,134.93164362906217,2025-03-07 11h12.17.382536 +0700,
2,2,88,word/worden0882.png,68,68,0,x,0.7474253000000317,None,0,68,68,68,132.5149762000001,,,,,,,132.5149762000001,132.5149762000001,133.53185660000008,133.53773780000006,133.53773780000006,133.53773780000006,133.53773780000006,134.2938392000001,x,0.7474253000000317,None,,,,,,,,,,GSR_en,001,2025-03-07_11h12.02.686,MainFlow,2024.2.4,134.93164362906217,2025-03-07 11h12.17.382536 +0700,
2,2,50,word/worden0502.png,69,69,0,x,0.7130895000000237,None,0,69,69,69,134.29878669999994,,,,,,,134.29878669999994,134.29878669999994,135.31651340000008,135.3233361,135.3233361,135.3233361,135.3233361,136.04706290000013,x,0.7130895000000237,None,,,,,,,,,,GSR_en,001,2025-03-07_11h12.02.686,MainFlow,2024.2.4,134.93164362906217,2025-03-07 11h12.17.382536 +0700,
2,3,93,word/worden0933.png,70,70,0,x,0.9139832999999271,None,0,70,70,70,136.05349210000008,,,,,,,136.05349210000008,136.05349210000008,137.09566440000003,137.10297859999991,137.10297859999991,137.10297859999991,137.10297859999991,138.0222672,x,0.9139832999999271,None,,,,,,,,,,GSR_en,001,2025-03-07_11h12.02.686,MainFlow,2024.2.4,134.93164362906217,2025-03-07 11h12.17.382536 +0700,
2,1,63,word/worden0631.png,71,71,0,z,0.6122792999999547,None,0,71,71,71,138.02828190000014,,,,,,,138.02828190000014,138.02828190000014,139.08393219999994,139.0919437,139.0919437,139.0919437,139.0919437,139.71360490000006,z,0.6122792999999547,None,,,,,,,,,,GSR_en,001,2025-03-07_11h12.02.686,MainFlow,2024.2.4,134.93164362906217,2025-03-07 11h12.17.382536 +0700,
2,2,7,word/worden0072.png,72,72,0,x,0.7641718999998375,None,0,72,72,72,139.72150370000008,,,,,,,139.72150370000008,139.72150370000008,140.76091670000005,140.76822900000002,140.76822900000002,140.76822900000002,140.76822900000002,141.5378329,x,0.7641718999998375,None,,,,,,,,,,GSR_en,001,2025-03-07_11h12.02.686,MainFlow,2024.2.4,134.93164362906217,2025-03-07 11h12.17.382536 +0700,
2,2,64,word/worden0642.png,73,73,0,x,0.8696927000000869,None,0,73,73,73,141.54549509999993,,,,,,,141.54549509999993,141.54549509999993,142.57269380000002,142.57843019999996,142.57843019999996,142.57843019999996,142.57843019999996,143.45533120000005,x,0.8696927000000869,None,,,,,,,,,,GSR_en,001,2025-03-07_11h12.02.686,MainFlow,2024.2.4,134.93164362906217,2025-03-07 11h12.17.382536 +0700,
2,1,24,word/worden0241.png,74,74,0,z,0.6003574999999728,None,0,74,74,74,143.4624037000001,,,,,,,143.4624037000001,143.4624037000001,144.50322440000014,144.51081599999998,144.51081599999998,144.51081599999998,144.51081599999998,145.11486409999998,z,0.6003574999999728,None,,,,,,,,,,GSR_en,001,2025-03-07_11h12.02.686,MainFlow,2024.2.4,134.93164362906217,2025-03-07 11h12.17.382536 +0700,
2,2,1,word/worden0012.png,75,75,0,x,0.685007399999904,None,0,75,75,75,145.12160270000004,,,,,,,145.12160270000004,145.12160270000004,146.16242069999998,146.16991329999996,146.16991329999996,146.16991329999996,146.16991329999996,146.85850440000013,x,0.685007399999904,None,,,,,,,,,,GSR_en,001,2025-03-07_11h12.02.686,MainFlow,2024.2.4,134.93164362906217,2025-03-07 11h12.17.382536 +0700,
2,1,46,word/worden0461.png,76,76,0,z,0.5598904999999377,None,0,76,76,76,146.86598789999994,,,,,,,146.86598789999994,146.86598789999994,147.90645300000006,147.9144885999999,147.9144885999999,147.9144885999999,147.9144885999999,148.48621649999995,z,0.5598904999999377,None,,,,,,,,,,GSR_en,001,2025-03-07_11h12.02.686,MainFlow,2024.2.4,134.93164362906217,2025-03-07 11h12.17.382536 +0700,
2,3,52,word/worden0523.png,77,77,0,x,0.6498745999999755,None,0,77,77,77,148.4928351000001,,,,,,,148.4928351000001,148.4928351000001,149.52908300000013,149.5364485,149.5364485,149.5364485,149.5364485,150.1943401000001,x,0.6498745999999755,None,,,,,,,,,,GSR_en,001,2025-03-07_11h12.02.686,MainFlow,2024.2.4,134.93164362906217,2025-03-07 11h12.17.382536 +0700,
2,2,31,word/worden0312.png,78,78,0,x,0.8626848000001246,None,0,78,78,78,150.19979310000008,,,,,,,150.19979310000008,150.19979310000008,151.22061350000013,151.22697110000013,151.22697110000013,151.22697110000013,151.22697110000013,152.09423450000008,x,0.8626848000001246,None,,,,,,,,,,GSR_en,001,2025-03-07_11h12.02.686,MainFlow,2024.2.4,134.93164362906217,2025-03-07 11h12.17.382536 +0700,
2,2,95,word/worden0952.png,79,79,0,x,1.3842526000000817,None,0,79,79,79,152.09999510000011,,,,,,,152.09999510000011,152.09999510000011,153.11559269999998,153.1209742000001,153.1209742000001,153.1209742000001,153.1209742000001,154.51112190000003,x,1.3842526000000817,None,,,,,,,,,,GSR_en,001,2025-03-07_11h12.02.686,MainFlow,2024.2.4,134.93164362906217,2025-03-07 11h12.17.382536 +0700,
2,1,93,word/worden0931.png,80,80,0,z,0.7145092999999179,None,0,80,80,80,154.51748249999991,,,,,,,154.51748249999991,154.51748249999991,155.53123449999998,155.53718660000004,155.53718660000004,155.53718660000004,155.53718660000004,156.26120420000007,z,0.7145092999999179,None,,,,,,,,,,GSR_en,001,2025-03-07_11h12.02.686,MainFlow,2024.2.4,134.93164362906217,2025-03-07 11h12.17.382536 +0700,
2,1,71,word/worden0711.png,81,81,0,z,0.6046615999998721,None,0,81,81,81,156.26825529999996,,,,,,,156.26825529999996,156.26825529999996,157.2764611,157.28199560000007,157.28199560000007,157.28199560000007,157.28199560000007,157.8912021000001,z,0.6046615999998721,None,,,,,,,,,,GSR_en,001,2025-03-07_11h12.02.686,MainFlow,2024.2.4,134.93164362906217,2025-03-07 11h12.17.382536 +0700,
2,1,48,word/worden0481.png,82,82,0,z,0.535345100000086,None,0,82,82,82,157.89802450000002,,,,,,,157.89802450000002,157.89802450000002,158.93725059999997,158.94469729999992,158.94469729999992,158.94469729999992,158.94469729999992,159.49197789999994,z,0.535345100000086,None,,,,,,,,,,GSR_en,001,2025-03-07_11h12.02.686,MainFlow,2024.2.4,134.93164362906217,2025-03-07 11h12.17.382536 +0700,
2,1,94,word/worden0941.png,83,83,0,z,0.5334717000000637,None,0,83,83,83,159.49981290000005,,,,,,,159.49981290000005,159.49981290000005,160.5429094000001,160.5502262,160.5502262,160.5502262,160.5502262,161.0919414,z,0.5334717000000637,None,,,,,,,,,,GSR_en,001,2025-03-07_11h12.02.686,MainFlow,2024.2.4,134.93164362906217,2025-03-07 11h12.17.382536 +0700,
2,3,68,word/worden0683.png,84,84,0,x,0.9938787999999477,None,0,84,84,84,161.09893949999991,,,,,,,161.09893949999991,161.09893949999991,162.13981639999997,162.14721250000002,162.14721250000002,162.14721250000002,162.14721250000002,163.14793699999996,x,0.9938787999999477,None,,,,,,,,,,GSR_en,001,2025-03-07_11h12.02.686,MainFlow,2024.2.4,134.93164362906217,2025-03-07 11h12.17.382536 +0700,
2,2,66,word/worden0662.png,85,85,0,x,0.7128404000000046,None,0,85,85,85,163.15608139999995,,,,,,,163.15608139999995,163.15608139999995,164.18967109999994,164.19686920000004,164.19686920000004,164.19686920000004,164.19686920000004,164.91903129999992,x,0.7128404000000046,None,,,,,,,,,,GSR_en,001,2025-03-07_11h12.02.686,MainFlow,2024.2.4,134.93164362906217,2025-03-07 11h12.17.382536 +0700,
2,3,95,word/worden0953.png,86,86,0,x,1.2930948000000626,None,0,86,86,86,164.9278071000001,,,,,,,164.9278071000001,164.9278071000001,165.94090600000004,165.9464875000001,165.9464875000001,165.9464875000001,165.9464875000001,167.24697259999994,x,1.2930948000000626,None,,,,,,,,,,GSR_en,001,2025-03-07_11h12.02.686,MainFlow,2024.2.4,134.93164362906217,2025-03-07 11h12.17.382536 +0700,
2,3,30,word/worden0303.png,87,87,0,x,0.8095126999999138,None,0,87,87,87,167.25254130000008,,,,,,,167.25254130000008,167.25254130000008,168.2942134,168.30092620000005,168.30092620000005,168.30092620000005,168.30092620000005,169.11386110000012,x,0.8095126999999138,None,168.30092620000005,168.30092620000005,,,,,,,,GSR_en,001,2025-03-07_11h12.02.686,MainFlow,2024.2.4,134.93164362906217,2025-03-07 11h12.17.382536 +0700,
2,3,22,word/worden0223.png,88,88,0,x,0.9735293000001093,None,0,88,88,88,169.12130070000012,,,,,,,169.12130070000012,169.12130070000012,170.1419628000001,170.14834339999993,170.14834339999993,170.14834339999993,170.14834339999993,171.12807930000008,x,0.9735293000001093,None,,,,,,,,,,GSR_en,001,2025-03-07_11h12.02.686,MainFlow,2024.2.4,134.93164362906217,2025-03-07 11h12.17.382536 +0700,
2,1,75,word/worden0751.png,89,89,0,z,0.7301148000001376,None,0,89,89,89,171.13573199999996,,,,,,,171.13573199999996,171.13573199999996,172.18524129999992,172.19252370000004,172.19252370000004,172.19252370000004,172.19252370000004,172.92747809999992,z,0.7301148000001376,None,,,,,,,,,,GSR_en,001,2025-03-07_11h12.02.686,MainFlow,2024.2.4,134.93164362906217,2025-03-07 11h12.17.382536 +0700,
2,1,64,word/worden0641.png,90,90,0,z,0.7895662999999331,None,0,90,90,90,172.93468380000013,,,,,,,172.93468380000013,172.93468380000013,173.9824218000001,173.9900758000001,173.9900758000001,173.9900758000001,173.9900758000001,174.78387620000012,z,0.7895662999999331,None,,,,,,,,,,GSR_en,001,2025-03-07_11h12.02.686,MainFlow,2024.2.4,134.93164362906217,2025-03-07 11h12.17.382536 +0700,
2,1,27,word/worden0271.png,91,91,0,z,0.9153151000000435,None,0,91,91,91,174.7909783,,,,,,,174.7909783,174.7909783,175.81239440000013,175.8187785,175.8187785,175.8187785,175.8187785,176.73649219999993,z,0.9153151000000435,None,,,,,,,,,,GSR_en,001,2025-03-07_11h12.02.686,MainFlow,2024.2.4,134.93164362906217,2025-03-07 11h12.17.382536 +0700,
2,2,24,word/worden0242.png,92,92,0,x,0.6565295999998852,None,0,92,92,92,176.74173410000003,,,,,,,176.74173410000003,176.74173410000003,177.76125460000003,177.7665121,177.7665121,177.7665121,177.7665121,178.43108669999992,x,0.6565295999998852,None,,,,,,,,,,GSR_en,001,2025-03-07_11h12.02.686,MainFlow,2024.2.4,134.93164362906217,2025-03-07 11h12.17.382536 +0700,
2,1,87,word/worden0871.png,93,93,0,z,1.337789900000189,None,0,93,93,93,178.43652309999993,,,,,,,178.43652309999993,178.43652309999993,179.45377759999997,179.45954210000014,179.45954210000014,179.45954210000014,179.45954210000014,180.80679520000012,z,1.337789900000189,None,,,,,,,,,,GSR_en,001,2025-03-07_11h12.02.686,MainFlow,2024.2.4,134.93164362906217,2025-03-07 11h12.17.382536 +0700,
2,1,7,word/worden0071.png,94,94,0,z,0.6063133000000107,None,0,94,94,94,180.81362949999993,,,,,,,180.81362949999993,180.81362949999993,181.86668600000007,181.87399630000004,181.87399630000004,181.87399630000004,181.87399630000004,182.48423739999998,z,0.6063133000000107,None,,,,,,,,,,GSR_en,001,2025-03-07_11h12.02.686,MainFlow,2024.2.4,134.93164362906217,2025-03-07 11h12.17.382536 +0700,
2,2,9,word/worden0092.png,95,95,0,x,0.5164090999999189,None,0,95,95,95,182.49183730000004,,,,,,,182.49183730000004,182.49183730000004,183.53323219999993,183.54072010000004,183.54072010000004,183.54072010000004,183.54072010000004,184.0670966,x,0.5164090999999189,None,,,,,,,,,,GSR_en,001,2025-03-07_11h12.02.686,MainFlow,2024.2.4,134.93164362906217,2025-03-07 11h12.17.382536 +0700,
2,1,44,word/worden0441.png,96,96,0,z,0.6965430000000197,None,0,96,96,96,184.07395109999993,,,,,,,184.07395109999993,184.07395109999993,185.1158792000001,185.12332850000007,185.12332850000007,185.12332850000007,185.12332850000007,185.8254832,z,0.6965430000000197,None,,,,,,,,,,GSR_en,001,2025-03-07_11h12.02.686,MainFlow,2024.2.4,134.93164362906217,2025-03-07 11h12.17.382536 +0700,
2,2,10,word/worden0102.png,97,97,0,x,0.5349929999999858,None,0,97,97,97,185.8327554,,,,,,,185.8327554,185.8327554,186.86932219999994,186.8768003,186.8768003,186.8768003,186.8768003,187.42026880000003,x,0.5349929999999858,None,,,,,,,,,,GSR_en,001,2025-03-07_11h12.02.686,MainFlow,2024.2.4,134.93164362906217,2025-03-07 11h12.17.382536 +0700,
2,2,82,word/worden0822.png,98,98,0,x,0.8005017000000407,None,0,98,98,98,187.42772409999998,,,,,,,187.42772409999998,187.42772409999998,188.4677435000001,188.47482220000006,188.47482220000006,188.47482220000006,188.47482220000006,189.28567190000012,x,0.8005017000000407,None,,,,,,,,,,GSR_en,001,2025-03-07_11h12.02.686,MainFlow,2024.2.4,134.93164362906217,2025-03-07 11h12.17.382536 +0700,
2,3,89,word/worden0893.png,99,99,0,x,0.889771699999983,None,0,99,99,99,189.29411010000013,,,,,,,189.29411010000013,189.29411010000013,190.33400110000002,190.3409673000001,190.3409673000001,190.3409673000001,190.3409673000001,191.23624610000002,x,0.889771699999983,None,,,,,,,,,,GSR_en,001,2025-03-07_11h12.02.686,MainFlow,2024.2.4,134.93164362906217,2025-03-07 11h12.17.382536 +0700,
2,2,44,word/worden0442.png,100,100,0,x,0.7020319999999174,None,0,100,100,100,191.24400029999993,,,,,,,191.24400029999993,191.24400029999993,192.28852600000005,192.29597869999998,192.29597869999998,192.29597869999998,192.29597869999998,193.0032738,x,0.7020319999999174,None,,,,,,,,,,GSR_en,001,2025-03-07_11h12.02.686,MainFlow,2024.2.4,134.93164362906217,2025-03-07 11h12.17.382536 +0700,
2,1,52,word/worden0521.png,101,101,0,z,0.6484044999999696,None,0,101,101,101,193.01002100000005,,,,,,,193.01002100000005,193.01002100000005,194.0526221,194.05995280000002,194.05995280000002,194.05995280000002,194.05995280000002,194.71401420000007,z,0.6484044999999696,None,,,,,,,,,,GSR_en,001,2025-03-07_11h12.02.686,MainFlow,2024.2.4,134.93164362906217,2025-03-07 11h12.17.382536 +0700,
2,1,51,word/worden0511.png,102,102,0,z,1.0615973000001304,None,0,102,102,102,194.7214229000001,,,,,,,194.7214229000001,194.7214229000001,195.75839369999994,195.76598390000004,195.76598390000004,195.76598390000004,195.76598390000004,196.83251510000014,z,1.0615973000001304,None,,,,,,,,,,GSR_en,001,2025-03-07_11h12.02.686,MainFlow,2024.2.4,134.93164362906217,2025-03-07 11h12.17.382536 +0700,
2,3,51,word/worden0513.png,103,103,0,x,0.8933139000000665,None,0,103,103,103,196.83962300000007,,,,,,,196.83962300000007,196.83962300000007,197.88414620000003,197.89148330000012,197.89148330000012,197.89148330000012,197.89148330000012,198.78811210000003,x,0.8933139000000665,None,,,,,,,,,,GSR_en,001,2025-03-07_11h12.02.686,MainFlow,2024.2.4,134.93164362906217,2025-03-07 11h12.17.382536 +0700,
2,2,8,word/worden0082.png,104,104,0,x,0.9434401999999409,None,0,104,104,104,198.79365170000005,,,,,,,198.79365170000005,198.79365170000005,199.81850959999997,199.82471409999994,199.82471409999994,199.82471409999994,199.82471409999994,200.77341589999992,x,0.9434401999999409,None,,,,,,,,,,GSR_en,001,2025-03-07_11h12.02.686,MainFlow,2024.2.4,134.93164362906217,2025-03-07 11h12.17.382536 +0700,
2,2,3,word/worden0032.png,105,105,0,x,0.8579939999999624,None,0,105,105,105,200.7791701000001,,,,,,,200.7791701000001,200.7791701000001,201.79856280000013,201.80557210000006,201.80557210000006,201.80557210000006,201.80557210000006,202.6662606,x,0.8579939999999624,None,,,,,,,,,,GSR_en,001,2025-03-07_11h12.02.686,MainFlow,2024.2.4,134.93164362906217,2025-03-07 11h12.17.382536 +0700,
2,3,3,word/worden0033.png,106,106,0,x,0.5461503999999877,None,0,106,106,106,202.67373969999994,,,,,,,202.67373969999994,202.67373969999994,203.69753179999998,203.70402059999992,203.70402059999992,203.70402059999992,203.70402059999992,204.25497410000003,x,0.5461503999999877,None,,,,,,,,,,GSR_en,001,2025-03-07_11h12.02.686,MainFlow,2024.2.4,134.93164362906217,2025-03-07 11h12.17.382536 +0700,
2,3,64,word/worden0643.png,107,107,0,x,1.0948573999999098,None,0,107,107,107,204.26218489999997,,,,,,,204.26218489999997,204.26218489999997,205.30716619999998,205.3151064000001,205.3151064000001,205.3151064000001,205.3151064000001,206.4134821,x,1.0948573999999098,None,,,,,,,,,,GSR_en,001,2025-03-07_11h12.02.686,MainFlow,2024.2.4,134.93164362906217,2025-03-07 11h12.17.382536 +0700,
2,3,26,word/worden0263.png,108,108,0,x,0.7310020999998414,None,0,108,108,108,206.42248900000004,,,,,,,206.42248900000004,206.42248900000004,207.4429682,207.44900140000004,207.44900140000004,207.44900140000004,207.44900140000004,208.18321190000006,x,0.7310020999998414,None,,,,,,,,,,GSR_en,001,2025-03-07_11h12.02.686,MainFlow,2024.2.4,134.93164362906217,2025-03-07 11h12.17.382536 +0700,
2,2,96,word/worden0962.png,109,109,0,x,1.0536515000001145,None,0,109,109,109,208.18989319999991,,,,,,,208.18989319999991,208.18989319999991,209.22008260000007,209.22600009999996,209.22600009999996,209.22600009999996,209.22600009999996,210.28675909999993,x,1.0536515000001145,None,209.22600009999996,209.22600009999996,,,,,,,,GSR_en,001,2025-03-07_11h12.02.686,MainFlow,2024.2.4,134.93164362906217,2025-03-07 11h12.17.382536 +0700,
2,1,22,word/worden0221.png,110,110,0,z,0.7582061000000522,None,0,110,110,110,210.2927221,,,,,,,210.2927221,210.2927221,211.31860170000004,211.32525770000007,211.32525770000007,211.32525770000007,211.32525770000007,212.08656280000014,z,0.7582061000000522,None,,,,,,,,,,GSR_en,001,2025-03-07_11h12.02.686,MainFlow,2024.2.4,134.93164362906217,2025-03-07 11h12.17.382536 +0700,
2,2,22,word/worden0222.png,111,111,0,x,0.7185486999999284,None,0,111,111,111,212.09592040000007,,,,,,,212.09592040000007,212.09592040000007,213.13714600000003,213.14459450000004,213.14459450000004,213.14459450000004,213.14459450000004,213.87385999999992,x,0.7185486999999284,None,,,,,,,,,,GSR_en,001,2025-03-07_11h12.02.686,MainFlow,2024.2.4,134.93164362906217,2025-03-07 11h12.17.382536 +0700,
2,2,26,word/worden0262.png,112,112,0,x,0.7470925000000079,None,0,112,112,112,213.88065819999997,,,,,,,213.88065819999997,213.88065819999997,214.91894860000002,214.92657480000003,214.92657480000003,214.92657480000003,214.92657480000003,215.6777654,x,0.7470925000000079,None,,,,,,,,,,GSR_en,001,2025-03-07_11h12.02.686,MainFlow,2024.2.4,134.93164362906217,2025-03-07 11h12.17.382536 +0700,
2,3,48,word/worden0483.png,113,113,0,x,0.8131186999999045,None,0,113,113,113,215.68471780000004,,,,,,,215.68471780000004,215.68471780000004,216.70215120000012,216.70821419999993,216.70821419999993,216.70821419999993,216.70821419999993,217.52679880000005,x,0.8131186999999045,None,,,,,,,,,,GSR_en,001,2025-03-07_11h12.02.686,MainFlow,2024.2.4,134.93164362906217,2025-03-07 11h12.17.382536 +0700,
2,2,87,word/worden0872.png,114,114,0,x,0.6912246000001687,None,0,114,114,114,217.5322248,,,,,,,217.5322248,217.5322248,218.55233900000007,218.55823579999992,218.55823579999992,218.55823579999992,218.55823579999992,219.25604049999993,x,0.6912246000001687,None,,,,,,,,,,GSR_en,001,2025-03-07_11h12.02.686,MainFlow,2024.2.4,134.93164362906217,2025-03-07 11h12.17.382536 +0700,
2,1,10,word/worden0101.png,115,115,0,z,0.6646049000000858,None,0,115,115,115,219.2618569000001,,,,,,,219.2618569000001,219.2618569000001,220.27832020000005,220.28357970000002,220.28357970000002,220.28357970000002,220.28357970000002,220.9559260000001,z,0.6646049000000858,None,,,,,,,,,,GSR_en,001,2025-03-07_11h12.02.686,MainFlow,2024.2.4,134.93164362906217,2025-03-07 11h12.17.382536 +0700,
2,3,8,word/worden0083.png,116,116,0,x,0.8618354000000181,None,0,116,116,116,220.96121829999993,,,,,,,220.96121829999993,220.96121829999993,221.97560799999997,221.98078269999996,221.98078269999996,221.98078269999996,221.98078269999996,222.8454888000001,x,0.8618354000000181,None,,,,,,,,,,GSR_en,001,2025-03-07_11h12.02.686,MainFlow,2024.2.4,134.93164362906217,2025-03-07 11h12.17.382536 +0700,
2,3,94,word/worden0943.png,117,117,0,x,0.7444580999999744,None,0,117,117,117,222.85079180000002,,,,,,,222.85079180000002,222.85079180000002,223.87093249999998,223.87757970000007,223.87757970000007,223.87757970000007,223.87757970000007,224.63267990000008,x,0.7444580999999744,None,,,,,,,,,,GSR_en,001,2025-03-07_11h12.02.686,MainFlow,2024.2.4,134.93164362906217,2025-03-07 11h12.17.382536 +0700,
2,2,11,word/worden0112.png,118,118,0,x,0.5372844000000896,None,0,118,118,118,224.63953790000005,,,,,,,224.63953790000005,224.63953790000005,225.65775469999994,225.66342269999996,225.66342269999996,225.66342269999996,225.66342269999996,226.2059753000001,x,0.5372844000000896,None,,,,,,,,,,GSR_en,001,2025-03-07_11h12.02.686,MainFlow,2024.2.4,134.93164362906217,2025-03-07 11h12.17.382536 +0700,
2,3,24,word/worden0243.png,119,119,0,x,0.7903936000000158,None,0,119,119,119,226.21667589999993,,,,,,,226.21667589999993,226.21667589999993,227.2314305,227.23903599999994,227.23903599999994,227.23903599999994,227.23903599999994,228.0366808000001,x,0.7903936000000158,None,,,,,,,,,,GSR_en,001,2025-03-07_11h12.02.686,MainFlow,2024.2.4,134.93164362906217,2025-03-07 11h12.17.382536 +0700,
,,,,,,,,,,,,,,,,,,,,,,,,,,,,,,,,,,228.03698099999997,228.04665709999995,228.04665709999995,229.1723824999999,space,1.1176258000000416,None,GSR_en,001,2025-03-07_11h12.02.686,MainFlow,2024.2.4,134.93164362906217,2025-03-07 11h12.17.382536 +0700,
