lang,stimuli,imageid,worddir,thisN,thisTrialN,thisRepN,key_resp.keys,key_resp.rt,key_resp.duration,trials.thisRepN,trials.thisTrialN,trials.thisN,trials.thisIndex,thisRow.t,notes,tutorial.started,tutorial.stopped,key_instruct.keys,key_instruct.rt,key_instruct.duration,instructblank.started,cross1.started,letterselect.started,imageword.started,text_2.started,cross2.started,key_resp.started,letterselect.stopped,trials.key_resp.keys,trials.key_resp.rt,trials.key_resp.duration,ending.started,text_3.started,ending_key.started,ending.stopped,ending_key.keys,ending_key.rt,ending_key.duration,participant,session,date,expName,psychopyVersion,frameRate,expStart,
,,,,,,,,,,,,,,,,0.008662600070238113,2.395754300057888,space,2.362724599894136,None,,,,,,,,,,,,,,,,,,,KH_en,001,2025-03-09_20h59.08.201,MainFlow,2024.2.4,142.0281042193961,2025-03-09 20h59.19.644991 +0700,
2,1,66,word/worden0661.png,0,0,0,z,4.787247699918225,None,0,0,0,0,2.4277733999770135,,,,,,,2.4277733999770135,2.4277733999770135,3.4095622000750154,3.4218460000120103,3.4218460000120103,3.4218460000120103,3.4218460000120103,8.212045700056478,z,4.787247699918225,None,,,,,,,,KH_en,001,2025-03-09_20h59.08.201,MainFlow,2024.2.4,142.0281042193961,2025-03-09 20h59.19.644991 +0700,
2,1,3,word/worden0031.png,1,1,0,z,0.7817549998871982,None,0,1,1,1,8.218352500116453,,,,,,,8.218352500116453,8.218352500116453,9.207310399971902,9.219384300056845,9.219384300056845,9.219384300056845,9.219384300056845,10.005486899986863,z,0.7817549998871982,None,,,,,,,,KH_en,001,2025-03-09_20h59.08.201,MainFlow,2024.2.4,142.0281042193961,2025-03-09 20h59.19.644991 +0700,
2,2,71,word/worden0712.png,2,2,0,x,1.1001204999629408,None,0,2,2,2,10.011843800079077,,,,,,,10.011843800079077,10.011843800079077,11.000094900140539,11.005034600151703,11.005034600151703,11.005034600151703,11.005034600151703,12.11186520010233,x,1.1001204999629408,None,,,,,,,,KH_en,001,2025-03-09_20h59.08.201,MainFlow,2024.2.4,142.0281042193961,2025-03-09 20h59.19.644991 +0700,
2,3,27,word/worden0273.png,3,3,0,x,1.4107645000331104,None,0,3,3,3,12.118102800101042,,,,,,,12.118102800101042,12.118102800101042,13.106328299967572,13.11132670007646,13.11132670007646,13.11132670007646,13.11132670007646,14.52383380010724,x,1.4107645000331104,None,,,,,,,,KH_en,001,2025-03-09_20h59.08.201,MainFlow,2024.2.4,142.0281042193961,2025-03-09 20h59.19.644991 +0700,
2,3,88,word/worden0883.png,4,4,0,x,2.1988323000259697,None,0,4,4,4,14.530227500014007,,,,,,,14.530227500014007,14.530227500014007,15.519859200110659,15.531260299962014,15.531260299962014,15.531260299962014,15.531260299962014,17.735530300065875,x,2.1988323000259697,None,,,,,,,,KH_en,001,2025-03-09_20h59.08.201,MainFlow,2024.2.4,142.0281042193961,2025-03-09 20h59.19.644991 +0700,
2,1,28,word/worden0281.png,5,5,0,z,0.8033396999817342,None,0,5,5,5,17.741746100131422,,,,,,,17.741746100131422,17.741746100131422,18.731611200142652,18.742786300135776,18.742786300135776,18.742786300135776,18.742786300135776,19.549662800040096,z,0.8033396999817342,None,,,,,,,,KH_en,001,2025-03-09_20h59.08.201,MainFlow,2024.2.4,142.0281042193961,2025-03-09 20h59.19.644991 +0700,
2,1,50,word/worden0501.png,6,6,0,z,1.093774899840355,None,0,6,6,6,19.556117800064385,,,,,,,19.556117800064385,19.556117800064385,20.544425700092688,20.549307300010696,20.549307300010696,20.549307300010696,20.549307300010696,21.649012200068682,z,1.093774899840355,None,,,,,,,,KH_en,001,2025-03-09_20h59.08.201,MainFlow,2024.2.4,142.0281042193961,2025-03-09 20h59.19.644991 +0700,
2,1,41,word/worden0411.png,7,7,0,z,1.0266631999984384,None,0,7,7,7,21.655431400053203,,,,,,,21.655431400053203,21.655431400053203,22.645678899949417,22.65642870008014,22.65642870008014,22.65642870008014,22.65642870008014,23.685757600003853,z,1.0266631999984384,None,,,,,,,,KH_en,001,2025-03-09_20h59.08.201,MainFlow,2024.2.4,142.0281042193961,2025-03-09 20h59.19.644991 +0700,
2,2,52,word/worden0522.png,8,8,0,x,1.5176327999215573,None,0,8,8,8,23.692200200166553,,,,,,,23.692200200166553,23.692200200166553,24.680558199994266,24.685442100046203,24.685442100046203,24.685442100046203,24.685442100046203,26.20912760007195,x,1.5176327999215573,None,,,,,,,,KH_en,001,2025-03-09_20h59.08.201,MainFlow,2024.2.4,142.0281042193961,2025-03-09 20h59.19.644991 +0700,
2,3,6,word/worden0063.png,9,9,0,x,1.659345499938354,None,0,9,9,9,26.215392700163648,,,,,,,26.215392700163648,26.215392700163648,27.20368989999406,27.208752300124615,27.208752300124615,27.208752300124615,27.208752300124615,28.871613300172612,x,1.659345499938354,None,,,,,,,,KH_en,001,2025-03-09_20h59.08.201,MainFlow,2024.2.4,142.0281042193961,2025-03-09 20h59.19.644991 +0700,
2,3,46,word/worden0463.png,10,10,0,x,2.2932171998545527,None,0,10,10,10,28.87790370010771,,,,,,,28.87790370010771,28.87790370010771,29.868326800176874,29.878934300038964,29.878934300038964,29.878934300038964,29.878934300038964,32.17351320013404,x,2.2932171998545527,None,,,,,,,,KH_en,001,2025-03-09_20h59.08.201,MainFlow,2024.2.4,142.0281042193961,2025-03-09 20h59.19.644991 +0700,
2,2,30,word/worden0302.png,11,11,0,x,0.9589843000285327,None,0,11,11,11,32.17985439999029,,,,,,,32.17985439999029,32.17985439999029,33.1680143000558,33.17309579998255,33.17309579998255,33.17309579998255,33.17309579998255,34.13372620008886,x,0.9589843000285327,None,,,,,,,,KH_en,001,2025-03-09_20h59.08.201,MainFlow,2024.2.4,142.0281042193961,2025-03-09 20h59.19.644991 +0700,
2,2,46,word/worden0462.png,12,12,0,x,0.7597432001493871,None,0,12,12,12,34.14017320005223,,,,,,,34.14017320005223,34.14017320005223,35.12894710013643,35.13335880008526,35.13335880008526,35.13335880008526,35.13335880008526,35.89942859997973,x,0.7597432001493871,None,,,,,,,,KH_en,001,2025-03-09_20h59.08.201,MainFlow,2024.2.4,142.0281042193961,2025-03-09 20h59.19.644991 +0700,
2,2,70,word/worden0702.png,13,13,0,x,0.6822637999430299,None,0,13,13,13,35.905881700105965,,,,,,,35.905881700105965,35.905881700105965,36.896340999985114,36.90681940014474,36.90681940014474,36.90681940014474,36.90681940014474,37.59476580005139,x,0.6822637999430299,None,,,,,,,,KH_en,001,2025-03-09_20h59.08.201,MainFlow,2024.2.4,142.0281042193961,2025-03-09 20h59.19.644991 +0700,
2,1,70,word/worden0701.png,14,14,0,z,1.7059309999458492,None,0,14,14,14,37.60109720006585,,,,,,,37.60109720006585,37.60109720006585,38.59000329999253,38.595154399983585,38.595154399983585,38.595154399983585,38.595154399983585,40.30662899999879,z,1.7059309999458492,None,,,,,,,,KH_en,001,2025-03-09_20h59.08.201,MainFlow,2024.2.4,142.0281042193961,2025-03-09 20h59.19.644991 +0700,
2,1,8,word/worden0081.png,15,15,0,z,0.8589562999550253,None,0,15,15,15,40.31302969995886,,,,,,,40.31302969995886,40.31302969995886,41.3011074999813,41.306212899973616,41.306212899973616,41.306212899973616,41.306212899973616,42.16950309998356,z,0.8589562999550253,None,,,,,,,,KH_en,001,2025-03-09_20h59.08.201,MainFlow,2024.2.4,142.0281042193961,2025-03-09 20h59.19.644991 +0700,
2,3,61,word/worden0613.png,16,16,0,x,2.532911099959165,None,0,16,16,16,42.17594250012189,,,,,,,42.17594250012189,42.17594250012189,43.16440190002322,43.16918390011415,43.16918390011415,43.16918390011415,43.16918390011415,45.707845099968836,x,2.532911099959165,None,,,,,,,,KH_en,001,2025-03-09_20h59.08.201,MainFlow,2024.2.4,142.0281042193961,2025-03-09 20h59.19.644991 +0700,
2,3,10,word/worden0103.png,17,17,0,x,1.5148813999257982,None,0,17,17,17,45.71421050000936,,,,,,,45.71421050000936,45.71421050000936,46.70386210014112,46.715250600129366,46.715250600129366,46.715250600129366,46.715250600129366,48.23726650001481,x,1.5148813999257982,None,,,,,,,,KH_en,001,2025-03-09_20h59.08.201,MainFlow,2024.2.4,142.0281042193961,2025-03-09 20h59.19.644991 +0700,
2,3,75,word/worden0753.png,18,18,0,x,1.3453329999465495,None,0,18,18,18,48.24370150011964,,,,,,,48.24370150011964,48.24370150011964,49.232639300171286,49.237755300011486,49.237755300011486,49.237755300011486,49.237755300011486,50.58771590003744,x,1.3453329999465495,None,,,,,,,,KH_en,001,2025-03-09_20h59.08.201,MainFlow,2024.2.4,142.0281042193961,2025-03-09 20h59.19.644991 +0700,
2,2,63,word/worden0632.png,19,19,0,x,0.8590174000710249,None,0,19,19,19,50.59409629995935,,,,,,,50.59409629995935,50.59409629995935,51.581843900028616,51.5880728000775,51.5880728000775,51.5880728000775,51.5880728000775,52.45063590002246,x,0.8590174000710249,None,,,,,,,,KH_en,001,2025-03-09_20h59.08.201,MainFlow,2024.2.4,142.0281042193961,2025-03-09 20h59.19.644991 +0700,
2,3,11,word/worden0113.png,20,20,0,x,8.221918300027028,None,0,20,20,20,52.457090800162405,,,,,,,52.457090800162405,52.457090800162405,53.44549690000713,53.45029940013774,53.45029940013774,53.45029940013774,53.45029940013774,61.675253900000826,x,8.221918300027028,None,,,,,,,,KH_en,001,2025-03-09_20h59.08.201,MainFlow,2024.2.4,142.0281042193961,2025-03-09 20h59.19.644991 +0700,
2,2,89,word/worden0892.png,21,21,0,x,1.1892754998989403,None,0,21,21,21,61.68158500012942,,,,,,,61.68158500012942,61.68158500012942,62.66983909998089,62.67482040007599,62.67482040007599,62.67482040007599,62.67482040007599,63.86507169995457,x,1.1892754998989403,None,,,,,,,,KH_en,001,2025-03-09_20h59.08.201,MainFlow,2024.2.4,142.0281042193961,2025-03-09 20h59.19.644991 +0700,
2,1,9,word/worden0091.png,22,22,0,z,2.1606489999685436,None,0,22,22,22,63.871200000168756,,,,,,,63.871200000168756,63.871200000168756,64.85966660012491,64.86451730015688,64.86451730015688,64.86451730015688,64.86451730015688,67.02769610006362,z,2.1606489999685436,None,,,,,,,,KH_en,001,2025-03-09_20h59.08.201,MainFlow,2024.2.4,142.0281042193961,2025-03-09 20h59.19.644991 +0700,
2,3,28,word/worden0283.png,23,23,0,x,1.333933199988678,None,0,23,23,23,67.03418119996786,,,,,,,67.03418119996786,67.03418119996786,68.02375699998811,68.03518650005572,68.03518650005572,68.03518650005572,68.03518650005572,69.37039040005766,x,1.333933199988678,None,,,,,,,,KH_en,001,2025-03-09_20h59.08.201,MainFlow,2024.2.4,142.0281042193961,2025-03-09 20h59.19.644991 +0700,
2,1,82,word/worden0821.png,24,24,0,z,1.1832933998666704,None,0,24,24,24,69.37680530012585,,,,,,,69.37680530012585,69.37680530012585,70.36676700017415,70.37781210010871,70.37781210010871,70.37781210010871,70.37781210010871,71.56692080013454,z,1.1832933998666704,None,,,,,,,,KH_en,001,2025-03-09_20h59.08.201,MainFlow,2024.2.4,142.0281042193961,2025-03-09 20h59.19.644991 +0700,
2,2,28,word/worden0282.png,25,25,0,x,1.355675300117582,None,0,25,25,25,71.57341900002211,,,,,,,71.57341900002211,71.57341900002211,72.56298339995556,72.5744330000598,72.5744330000598,72.5744330000598,72.5744330000598,73.93733630003408,x,1.355675300117582,None,,,,,,,,KH_en,001,2025-03-09_20h59.08.201,MainFlow,2024.2.4,142.0281042193961,2025-03-09 20h59.19.644991 +0700,
2,1,23,word/worden0231.png,26,26,0,z,1.6732270999345928,None,0,26,26,26,73.94384750002064,,,,,,,73.94384750002064,73.94384750002064,74.93279450014234,74.94486230006441,74.94486230006441,74.94486230006441,74.94486230006441,76.62069350015372,z,1.6732270999345928,None,,,,,,,,KH_en,001,2025-03-09_20h59.08.201,MainFlow,2024.2.4,142.0281042193961,2025-03-09 20h59.19.644991 +0700,
2,2,42,word/worden0422.png,27,27,0,x,0.8778057000599802,None,0,27,27,27,76.62708849995397,,,,,,,76.62708849995397,76.62708849995397,77.615239799954,77.62031710008159,77.62031710008159,77.62031710008159,77.62031710008159,78.50461150007322,x,0.8778057000599802,None,,,,,,,,KH_en,001,2025-03-09_20h59.08.201,MainFlow,2024.2.4,142.0281042193961,2025-03-09 20h59.19.644991 +0700,
2,2,93,word/worden0932.png,28,28,0,x,1.0345507999882102,None,0,28,28,28,78.5108019001782,,,,,,,78.5108019001782,78.5108019001782,79.49896800005808,79.50454840017483,79.50454840017483,79.50454840017483,79.50454840017483,80.54126600013115,x,1.0345507999882102,None,,,,,,,,KH_en,001,2025-03-09_20h59.08.201,MainFlow,2024.2.4,142.0281042193961,2025-03-09 20h59.19.644991 +0700,
2,1,88,word/worden0881.png,29,29,0,z,1.4301934998948127,None,0,29,29,29,80.54771129996516,,,,,,,80.54771129996516,80.54771129996516,81.53583410009742,81.54090759996325,81.54090759996325,81.54090759996325,81.54090759996325,82.97427530004643,z,1.4301934998948127,None,,,,,,,,KH_en,001,2025-03-09_20h59.08.201,MainFlow,2024.2.4,142.0281042193961,2025-03-09 20h59.19.644991 +0700,
2,3,31,word/worden0313.png,30,30,0,x,1.1093621000181884,None,0,30,30,30,82.98070780001581,,,,,,,82.98070780001581,82.98070780001581,83.97108440008014,83.9817236000672,83.9817236000672,83.9817236000672,83.9817236000672,85.09463760000654,x,1.1093621000181884,None,,,,,,,,KH_en,001,2025-03-09_20h59.08.201,MainFlow,2024.2.4,142.0281042193961,2025-03-09 20h59.19.644991 +0700,
2,2,75,word/worden0752.png,31,31,0,x,1.27017470006831,None,0,31,31,31,85.10091800009832,,,,,,,85.10091800009832,85.10091800009832,86.09087850013748,86.10191880003549,86.10191880003549,86.10191880003549,86.10191880003549,87.37460790015757,x,1.27017470006831,None,,,,,,,,KH_en,001,2025-03-09_20h59.08.201,MainFlow,2024.2.4,142.0281042193961,2025-03-09 20h59.19.644991 +0700,
2,2,48,word/worden0482.png,32,32,0,x,0.6059336001053452,None,0,32,32,32,87.38082000007853,,,,,,,87.38082000007853,87.38082000007853,88.37088189995848,88.38215570012107,88.38215570012107,88.38215570012107,88.38215570012107,88.99419700005092,x,0.6059336001053452,None,,,,,,,,KH_en,001,2025-03-09_20h59.08.201,MainFlow,2024.2.4,142.0281042193961,2025-03-09 20h59.19.644991 +0700,
2,1,26,word/worden0261.png,33,33,0,z,0.9062602000776678,None,0,33,33,33,89.00059040007181,,,,,,,89.00059040007181,89.00059040007181,89.98876570002176,89.99382480001077,89.99382480001077,89.99382480001077,89.99382480001077,90.90590230003,z,0.9062602000776678,None,,,,,,,,KH_en,001,2025-03-09_20h59.08.201,MainFlow,2024.2.4,142.0281042193961,2025-03-09 20h59.19.644991 +0700,
2,2,41,word/worden0412.png,34,34,0,x,1.450846099993214,None,0,34,34,34,90.91222149995156,,,,,,,90.91222149995156,90.91222149995156,91.90372729999945,91.91325019998476,91.91325019998476,91.91325019998476,91.91325019998476,93.36584980017506,x,1.450846099993214,None,,,,,,,,KH_en,001,2025-03-09_20h59.08.201,MainFlow,2024.2.4,142.0281042193961,2025-03-09 20h59.19.644991 +0700,
2,3,66,word/worden0663.png,35,35,0,x,1.5348286000080407,None,0,35,35,35,93.37222709995694,,,,,,,93.37222709995694,93.37222709995694,94.36102150008082,94.3662670000922,94.3662670000922,94.3662670000922,94.3662670000922,95.9038925000932,x,1.5348286000080407,None,,,,,,,,KH_en,001,2025-03-09_20h59.08.201,MainFlow,2024.2.4,142.0281042193961,2025-03-09 20h59.19.644991 +0700,
2,1,6,word/worden0061.png,36,36,0,z,0.7495761001482606,None,0,36,36,36,95.91020320006646,,,,,,,95.91020320006646,95.91020320006646,96.89852429996245,96.90351950004697,96.90351950004697,96.90351950004697,96.90351950004697,97.65572970011272,z,0.7495761001482606,None,,,,,,,,KH_en,001,2025-03-09_20h59.08.201,MainFlow,2024.2.4,142.0281042193961,2025-03-09 20h59.19.644991 +0700,
2,1,42,word/worden0421.png,37,37,0,z,0.9340300001204014,None,0,37,37,37,97.66205590008758,,,,,,,97.66205590008758,97.66205590008758,98.65252060000785,98.66306279995479,98.66306279995479,98.66306279995479,98.66306279995479,99.60205140011385,z,0.9340300001204014,None,,,,,,,,KH_en,001,2025-03-09_20h59.08.201,MainFlow,2024.2.4,142.0281042193961,2025-03-09 20h59.19.644991 +0700,
2,3,41,word/worden0413.png,38,38,0,x,2.092441099928692,None,0,38,38,38,99.60843789996579,,,,,,,99.60843789996579,99.60843789996579,100.5971171001438,100.60167270014063,100.60167270014063,100.60167270014063,100.60167270014063,102.69548720004968,x,2.092441099928692,None,,,,,,,,KH_en,001,2025-03-09_20h59.08.201,MainFlow,2024.2.4,142.0281042193961,2025-03-09 20h59.19.644991 +0700,
2,2,23,word/worden0232.png,39,39,0,x,2.4070427999831736,None,0,39,39,39,102.70179220009595,,,,,,,102.70179220009595,102.70179220009595,103.69017100008205,103.69504470005631,103.69504470005631,103.69504470005631,103.69504470005631,106.10845330008306,x,2.4070427999831736,None,,,,,,,,KH_en,001,2025-03-09_20h59.08.201,MainFlow,2024.2.4,142.0281042193961,2025-03-09 20h59.19.644991 +0700,
2,3,96,word/worden0963.png,40,40,0,x,1.6581078001763672,None,0,40,40,40,106.11485980008729,,,,,,,106.11485980008729,106.11485980008729,107.10488660004921,107.11598590016365,107.11598590016365,107.11598590016365,107.11598590016365,108.77798190014437,x,1.6581078001763672,None,,,,,,,,KH_en,001,2025-03-09_20h59.08.201,MainFlow,2024.2.4,142.0281042193961,2025-03-09 20h59.19.644991 +0700,
2,1,61,word/worden0611.png,41,41,0,z,1.2695131001528352,None,0,41,41,41,108.78429100010544,,,,,,,108.78429100010544,108.78429100010544,109.77300240006298,109.7775575001724,109.7775575001724,109.7775575001724,109.7775575001724,111.05100940004922,z,1.2695131001528352,None,,,,,,,,KH_en,001,2025-03-09_20h59.08.201,MainFlow,2024.2.4,142.0281042193961,2025-03-09 20h59.19.644991 +0700,
2,3,9,word/worden0093.png,42,42,0,x,0.9726620998699218,None,0,42,42,42,111.0573929999955,,,,,,,111.0573929999955,111.0573929999955,112.04669540002942,112.05844349996187,112.05844349996187,112.05844349996187,112.05844349996187,113.03229750017636,x,0.9726620998699218,None,,,,,,,,KH_en,001,2025-03-09_20h59.08.201,MainFlow,2024.2.4,142.0281042193961,2025-03-09 20h59.19.644991 +0700,
2,3,63,word/worden0633.png,43,43,0,x,7.143889900064096,None,0,43,43,43,113.03854720015079,,,,,,,113.03854720015079,113.03854720015079,114.02646910003386,114.03221370000392,114.03221370000392,114.03221370000392,114.03221370000392,121.17927690013312,x,7.143889900064096,None,,,,,,,,KH_en,001,2025-03-09_20h59.08.201,MainFlow,2024.2.4,142.0281042193961,2025-03-09 20h59.19.644991 +0700,
2,3,50,word/worden0503.png,44,44,0,x,1.8705988000147045,None,0,44,44,44,121.1855585000012,,,,,,,121.1855585000012,121.1855585000012,122.17575030005537,122.1865999000147,122.1865999000147,122.1865999000147,122.1865999000147,124.06396579998545,x,1.8705988000147045,None,,,,,,,,KH_en,001,2025-03-09_20h59.08.201,MainFlow,2024.2.4,142.0281042193961,2025-03-09 20h59.19.644991 +0700,
2,2,27,word/worden0272.png,45,45,0,x,1.8415558999404311,None,0,45,45,45,124.07043249998242,,,,,,,124.07043249998242,124.07043249998242,125.05892780004069,125.0636514001526,125.0636514001526,125.0636514001526,125.0636514001526,126.90714020002633,x,1.8415558999404311,None,,,,,,,,KH_en,001,2025-03-09_20h59.08.201,MainFlow,2024.2.4,142.0281042193961,2025-03-09 20h59.19.644991 +0700,
2,2,61,word/worden0612.png,46,46,0,x,2.046331499936059,None,0,46,46,46,126.91352810012177,,,,,,,126.91352810012177,126.91352810012177,127.90192280011252,127.90677760005929,127.90677760005929,127.90677760005929,127.90677760005929,129.9588548000902,x,2.046331499936059,None,,,,,,,,KH_en,001,2025-03-09_20h59.08.201,MainFlow,2024.2.4,142.0281042193961,2025-03-09 20h59.19.644991 +0700,
2,3,7,word/worden0073.png,47,47,0,x,3.075658999849111,None,0,47,47,47,129.96509460010566,,,,,,,129.96509460010566,129.96509460010566,130.95360520016402,130.95843650004826,130.95843650004826,130.95843650004826,130.95843650004826,134.03931819996797,x,3.075658999849111,None,,,,,,,,KH_en,001,2025-03-09_20h59.08.201,MainFlow,2024.2.4,142.0281042193961,2025-03-09 20h59.19.644991 +0700,
2,3,23,word/worden0233.png,48,48,0,x,2.8031646001618356,None,0,48,48,48,134.04570310004056,,,,,,,134.04570310004056,134.04570310004056,135.03404950001277,135.0389257001225,135.0389257001225,135.0389257001225,135.0389257001225,137.84867139998823,x,2.8031646001618356,None,,,,,,,,KH_en,001,2025-03-09_20h59.08.201,MainFlow,2024.2.4,142.0281042193961,2025-03-09 20h59.19.644991 +0700,
2,1,95,word/worden0951.png,49,49,0,z,1.4110238999128342,None,0,49,49,49,137.85506059997715,,,,,,,137.85506059997715,137.85506059997715,138.84475040016696,138.85607850016095,138.85607850016095,138.85607850016095,138.85607850016095,140.268170400057,z,1.4110238999128342,None,,,,,,,,KH_en,001,2025-03-09_20h59.08.201,MainFlow,2024.2.4,142.0281042193961,2025-03-09 20h59.19.644991 +0700,
2,3,42,word/worden0423.png,50,50,0,x,2.2796994999516755,None,0,50,50,50,140.27423209999688,,,,,,,140.27423209999688,140.27423209999688,141.26242409995757,141.26739419996738,141.26739419996738,141.26739419996738,141.26739419996738,143.54872069996782,x,2.2796994999516755,None,,,,,,,,KH_en,001,2025-03-09_20h59.08.201,MainFlow,2024.2.4,142.0281042193961,2025-03-09 20h59.19.644991 +0700,
2,1,30,word/worden0301.png,51,51,0,z,0.9979767999611795,None,0,51,51,51,143.55519420001656,,,,,,,143.55519420001656,143.55519420001656,144.54311980004422,144.5491301000584,144.5491301000584,144.5491301000584,144.5491301000584,145.55064050015062,z,0.9979767999611795,None,,,,,,,,KH_en,001,2025-03-09_20h59.08.201,MainFlow,2024.2.4,142.0281042193961,2025-03-09 20h59.19.644991 +0700,
2,3,87,word/worden0873.png,52,52,0,x,2.6298819000367075,None,0,52,52,52,145.55720190005377,,,,,,,145.55720190005377,145.55720190005377,146.5462357001379,146.55821090005338,146.55821090005338,146.55821090005338,146.55821090005338,149.19333859998733,x,2.6298819000367075,None,,,,,,,,KH_en,001,2025-03-09_20h59.08.201,MainFlow,2024.2.4,142.0281042193961,2025-03-09 20h59.19.644991 +0700,
2,2,6,word/worden0062.png,53,53,0,x,2.0191114000044763,None,0,53,53,53,149.19974240008742,,,,,,,149.19974240008742,149.19974240008742,150.18803930003196,150.19297760003246,150.19297760003246,150.19297760003246,150.19297760003246,152.2172564000357,x,2.0191114000044763,None,,,,,,,,KH_en,001,2025-03-09_20h59.08.201,MainFlow,2024.2.4,142.0281042193961,2025-03-09 20h59.19.644991 +0700,
2,2,68,word/worden0682.png,54,54,0,x,0.9645645001437515,None,0,54,54,54,152.22362289996818,,,,,,,152.22362289996818,152.22362289996818,153.2143765001092,153.22462900006212,153.22462900006212,153.22462900006212,153.22462900006212,154.19142389995977,x,0.9645645001437515,None,,,,,,,,KH_en,001,2025-03-09_20h59.08.201,MainFlow,2024.2.4,142.0281042193961,2025-03-09 20h59.19.644991 +0700,
2,3,1,word/worden0013.png,55,55,0,x,2.4543462998699397,None,0,55,55,55,154.19783790013753,,,,,,,154.19783790013753,154.19783790013753,155.18805230013095,155.19881710014306,155.19881710014306,155.19881710014306,155.19881710014306,157.66016420000233,x,2.4543462998699397,None,,,,,,,,KH_en,001,2025-03-09_20h59.08.201,MainFlow,2024.2.4,142.0281042193961,2025-03-09 20h59.19.644991 +0700,
2,2,94,word/worden0942.png,56,56,0,x,1.5534904000815004,None,0,56,56,56,157.66655490011908,,,,,,,157.66655490011908,157.66655490011908,158.6571464999579,158.66761080012657,158.66761080012657,158.66761080012657,158.66761080012657,160.22538860002533,x,1.5534904000815004,None,,,,,,,,KH_en,001,2025-03-09_20h59.08.201,MainFlow,2024.2.4,142.0281042193961,2025-03-09 20h59.19.644991 +0700,
2,3,82,word/worden0823.png,57,57,0,x,1.5732240001671016,None,0,57,57,57,160.2316147000529,,,,,,,160.2316147000529,160.2316147000529,161.2202298999764,161.22487160004675,161.22487160004675,161.22487160004675,161.22487160004675,162.80417130002752,x,1.5732240001671016,None,,,,,,,,KH_en,001,2025-03-09_20h59.08.201,MainFlow,2024.2.4,142.0281042193961,2025-03-09 20h59.19.644991 +0700,
2,1,89,word/worden0891.png,58,58,0,z,1.4422611000481993,None,0,58,58,58,162.81064040004276,,,,,,,162.81064040004276,162.81064040004276,163.79881269996986,163.8038329000119,163.8038329000119,163.8038329000119,163.8038329000119,165.25108810001984,z,1.4422611000481993,None,,,,,,,,KH_en,001,2025-03-09_20h59.08.201,MainFlow,2024.2.4,142.0281042193961,2025-03-09 20h59.19.644991 +0700,
2,1,31,word/worden0311.png,59,59,0,z,1.3153929999098182,None,0,59,59,59,165.2573808999732,,,,,,,165.2573808999732,165.2573808999732,166.24591180006973,166.25072010001168,166.25072010001168,166.25072010001168,166.25072010001168,167.57280059996992,z,1.3153929999098182,None,,,,,,,,KH_en,001,2025-03-09_20h59.08.201,MainFlow,2024.2.4,142.0281042193961,2025-03-09 20h59.19.644991 +0700,
2,2,51,word/worden0512.png,60,60,0,x,0.9308364999014884,None,0,60,60,60,167.57925479998812,,,,,,,167.57925479998812,167.57925479998812,168.56868090014905,168.58026250009425,168.58026250009425,168.58026250009425,168.58026250009425,169.51240680017509,x,0.9308364999014884,None,,,,,,,,KH_en,001,2025-03-09_20h59.08.201,MainFlow,2024.2.4,142.0281042193961,2025-03-09 20h59.19.644991 +0700,
2,3,44,word/worden0443.png,61,61,0,x,1.2554248999804258,None,0,61,61,61,169.51869489997625,,,,,,,169.51869489997625,169.51869489997625,170.50860950001515,170.51973600010388,170.51973600010388,170.51973600010388,170.51973600010388,171.77860389999114,x,1.2554248999804258,None,,,,,,,,KH_en,001,2025-03-09_20h59.08.201,MainFlow,2024.2.4,142.0281042193961,2025-03-09 20h59.19.644991 +0700,
2,1,1,word/worden0011.png,62,62,0,z,0.7490211999975145,None,0,62,62,62,171.78484280011617,,,,,,,171.78484280011617,171.78484280011617,172.77302870014682,172.7780781001784,172.7780781001784,172.7780781001784,172.7780781001784,173.53021030011587,z,0.7490211999975145,None,,,,,,,,KH_en,001,2025-03-09_20h59.08.201,MainFlow,2024.2.4,142.0281042193961,2025-03-09 20h59.19.644991 +0700,
2,1,96,word/worden0961.png,63,63,0,z,2.166248300112784,None,0,63,63,63,173.53659330005758,,,,,,,173.53659330005758,173.53659330005758,174.52495720004663,174.529850800056,174.529850800056,174.529850800056,174.529850800056,176.699999100063,z,2.166248300112784,None,,,,,,,,KH_en,001,2025-03-09_20h59.08.201,MainFlow,2024.2.4,142.0281042193961,2025-03-09 20h59.19.644991 +0700,
2,1,11,word/worden0111.png,64,64,0,z,1.140634800074622,None,0,64,64,64,176.70644600014202,,,,,,,176.70644600014202,176.70644600014202,177.6965785000939,177.7074635999743,177.7074635999743,177.7074635999743,177.7074635999743,178.85510700009763,z,1.140634800074622,None,,,,,,,,KH_en,001,2025-03-09_20h59.08.201,MainFlow,2024.2.4,142.0281042193961,2025-03-09 20h59.19.644991 +0700,
2,3,70,word/worden0703.png,65,65,0,x,1.6574921000283211,None,0,65,65,65,178.8614262000192,,,,,,,178.8614262000192,178.8614262000192,179.84940539998934,179.85461720009334,179.85461720009334,179.85461720009334,179.85461720009334,181.51738480012864,x,1.6574921000283211,None,,,,,,,,KH_en,001,2025-03-09_20h59.08.201,MainFlow,2024.2.4,142.0281042193961,2025-03-09 20h59.19.644991 +0700,
2,3,71,word/worden0713.png,66,66,0,x,0.9320722001139075,None,0,66,66,66,181.52376610017382,,,,,,,181.52376610017382,181.52376610017382,182.51198019995354,182.51701200008392,182.51701200008392,182.51701200008392,182.51701200008392,183.4500286001712,x,0.9320722001139075,None,,,,,,,,KH_en,001,2025-03-09_20h59.08.201,MainFlow,2024.2.4,142.0281042193961,2025-03-09 20h59.19.644991 +0700,
2,1,68,word/worden0681.png,67,67,0,z,2.3758493999484926,None,0,67,67,67,183.4562528000679,,,,,,,183.4562528000679,183.4562528000679,184.44590430008247,184.45726840011775,184.45726840011775,184.45726840011775,184.45726840011775,186.83525210013613,z,2.3758493999484926,None,,,,,,,,KH_en,001,2025-03-09_20h59.08.201,MainFlow,2024.2.4,142.0281042193961,2025-03-09 20h59.19.644991 +0700,
2,2,88,word/worden0882.png,68,68,0,x,1.0704793999902904,None,0,68,68,68,186.84162740013562,,,,,,,186.84162740013562,186.84162740013562,187.8317019001115,187.84262340003625,187.84262340003625,187.84262340003625,187.84262340003625,188.91388650005683,x,1.0704793999902904,None,,,,,,,,KH_en,001,2025-03-09_20h59.08.201,MainFlow,2024.2.4,142.0281042193961,2025-03-09 20h59.19.644991 +0700,
2,2,50,word/worden0502.png,69,69,0,x,1.8407991998828948,None,0,69,69,69,188.91993710002862,,,,,,,188.91993710002862,188.91993710002862,189.90843069995753,189.9132995000109,189.9132995000109,189.9132995000109,189.9132995000109,191.75682210014202,x,1.8407991998828948,None,,,,,,,,KH_en,001,2025-03-09_20h59.08.201,MainFlow,2024.2.4,142.0281042193961,2025-03-09 20h59.19.644991 +0700,
2,3,93,word/worden0933.png,70,70,0,x,1.1176529999356717,None,0,70,70,70,191.7632168000564,,,,,,,191.7632168000564,191.7632168000564,192.7511488001328,192.75643320009112,192.75643320009112,192.75643320009112,192.75643320009112,193.87698840000667,x,1.1176529999356717,None,,,,,,,,KH_en,001,2025-03-09_20h59.08.201,MainFlow,2024.2.4,142.0281042193961,2025-03-09 20h59.19.644991 +0700,
2,1,63,word/worden0631.png,71,71,0,z,1.0454800000879914,None,0,71,71,71,193.88337000017054,,,,,,,193.88337000017054,193.88337000017054,194.8719336001668,194.87664020014927,194.87664020014927,194.87664020014927,194.87664020014927,195.92767810006626,z,1.0454800000879914,None,,,,,,,,KH_en,001,2025-03-09_20h59.08.201,MainFlow,2024.2.4,142.0281042193961,2025-03-09 20h59.19.644991 +0700,
2,2,7,word/worden0072.png,72,72,0,x,0.8670919998548925,None,0,72,72,72,195.93404640001245,,,,,,,195.93404640001245,195.93404640001245,196.92380610015243,196.93505990016274,196.93505990016274,196.93505990016274,196.93505990016274,197.8045822000131,x,0.8670919998548925,None,,,,,,,,KH_en,001,2025-03-09_20h59.08.201,MainFlow,2024.2.4,142.0281042193961,2025-03-09 20h59.19.644991 +0700,
2,2,64,word/worden0642.png,73,73,0,x,1.3191482999827713,None,0,73,73,73,197.81091790017672,,,,,,,197.81091790017672,197.81091790017672,198.80047590006143,198.8119404001627,198.8119404001627,198.8119404001627,198.8119404001627,200.1331972000189,x,1.3191482999827713,None,,,,,,,,KH_en,001,2025-03-09_20h59.08.201,MainFlow,2024.2.4,142.0281042193961,2025-03-09 20h59.19.644991 +0700,
2,1,24,word/worden0241.png,74,74,0,z,1.1264569000340998,None,0,74,74,74,200.1396209001541,,,,,,,200.1396209001541,200.1396209001541,201.12934540002607,201.14066240005195,201.14066240005195,201.14066240005195,201.14066240005195,202.27424350008368,z,1.1264569000340998,None,,,,,,,,KH_en,001,2025-03-09_20h59.08.201,MainFlow,2024.2.4,142.0281042193961,2025-03-09 20h59.19.644991 +0700,
2,2,1,word/worden0012.png,75,75,0,x,0.9054364999756217,None,0,75,75,75,202.28070530015975,,,,,,,202.28070530015975,202.28070530015975,203.27078470005654,203.28166169999167,203.28166169999167,203.28166169999167,203.28166169999167,204.19281570008025,x,0.9054364999756217,None,,,,,,,,KH_en,001,2025-03-09_20h59.08.201,MainFlow,2024.2.4,142.0281042193961,2025-03-09 20h59.19.644991 +0700,
2,1,46,word/worden0461.png,76,76,0,z,0.9073228999041021,None,0,76,76,76,204.19924110011198,,,,,,,204.19924110011198,204.19924110011198,205.1894151000306,205.20028830016963,205.20028830016963,205.20028830016963,205.20028830016963,206.1113311999943,z,0.9073228999041021,None,,,,,,,,KH_en,001,2025-03-09_20h59.08.201,MainFlow,2024.2.4,142.0281042193961,2025-03-09 20h59.19.644991 +0700,
2,3,52,word/worden0523.png,77,77,0,x,3.38153350003995,None,0,77,77,77,206.1178236999549,,,,,,,206.1178236999549,206.1178236999549,207.10605830000713,207.1110974000767,207.1110974000767,207.1110974000767,207.1110974000767,210.4977752000559,x,3.38153350003995,None,,,,,,,,KH_en,001,2025-03-09_20h59.08.201,MainFlow,2024.2.4,142.0281042193961,2025-03-09 20h59.19.644991 +0700,
2,2,31,word/worden0312.png,78,78,0,x,0.8752335999161005,None,0,78,78,78,210.50418419996276,,,,,,,210.50418419996276,210.50418419996276,211.4922728999518,211.497400799999,211.497400799999,211.497400799999,211.497400799999,212.3746536001563,x,0.8752335999161005,None,,,,,,,,KH_en,001,2025-03-09_20h59.08.201,MainFlow,2024.2.4,142.0281042193961,2025-03-09 20h59.19.644991 +0700,
2,2,95,word/worden0952.png,79,79,0,x,1.1343348000664264,None,0,79,79,79,212.38105670013465,,,,,,,212.38105670013465,212.38105670013465,213.3690947999712,213.37428480014205,213.37428480014205,213.37428480014205,213.37428480014205,214.5156821999699,x,1.1343348000664264,None,,,,,,,,KH_en,001,2025-03-09_20h59.08.201,MainFlow,2024.2.4,142.0281042193961,2025-03-09 20h59.19.644991 +0700,
2,1,93,word/worden0931.png,80,80,0,z,1.5222994000650942,None,0,80,80,80,214.5220705999527,,,,,,,214.5220705999527,214.5220705999527,215.51065449998714,215.51531539997086,215.51531539997086,215.51531539997086,215.51531539997086,217.03905929997563,z,1.5222994000650942,None,,,,,,,,KH_en,001,2025-03-09_20h59.08.201,MainFlow,2024.2.4,142.0281042193961,2025-03-09 20h59.19.644991 +0700,
2,1,71,word/worden0711.png,81,81,0,z,1.871042599901557,None,0,81,81,81,217.04546459997073,,,,,,,217.04546459997073,217.04546459997073,218.03354400000535,218.0386680001393,218.0386680001393,218.0386680001393,218.0386680001393,219.91678780014627,z,1.871042599901557,None,,,,,,,,KH_en,001,2025-03-09_20h59.08.201,MainFlow,2024.2.4,142.0281042193961,2025-03-09 20h59.19.644991 +0700,
2,1,48,word/worden0481.png,82,82,0,z,1.0812802999280393,None,0,82,82,82,219.92318490007892,,,,,,,219.92318490007892,219.92318490007892,220.91344800009392,220.92434080014937,220.92434080014937,220.92434080014937,220.92434080014937,222.0093186001759,z,1.0812802999280393,None,,,,,,,,KH_en,001,2025-03-09_20h59.08.201,MainFlow,2024.2.4,142.0281042193961,2025-03-09 20h59.19.644991 +0700,
2,1,94,word/worden0941.png,83,83,0,z,1.5099119001533836,None,0,83,83,83,222.0156988000963,,,,,,,222.0156988000963,222.0156988000963,223.00557720009238,223.01670310017653,223.01670310017653,223.01670310017653,223.01670310017653,224.532668299973,z,1.5099119001533836,None,,,,,,,,KH_en,001,2025-03-09_20h59.08.201,MainFlow,2024.2.4,142.0281042193961,2025-03-09 20h59.19.644991 +0700,
2,3,68,word/worden0683.png,84,84,0,x,2.0345850999001414,None,0,84,84,84,224.53905110014603,,,,,,,224.53905110014603,224.53905110014603,225.52869970002212,225.54007610003464,225.54007610003464,225.54007610003464,225.54007610003464,227.57734630000778,x,2.0345850999001414,None,,,,,,,,KH_en,001,2025-03-09_20h59.08.201,MainFlow,2024.2.4,142.0281042193961,2025-03-09 20h59.19.644991 +0700,
2,2,66,word/worden0662.png,85,85,0,x,1.2935943000484258,None,0,85,85,85,227.5837531001307,,,,,,,227.5837531001307,227.5837531001307,228.57286890014075,228.57702230010182,228.57702230010182,228.57702230010182,228.57702230010182,229.87168100010604,x,1.2935943000484258,None,,,,,,,,KH_en,001,2025-03-09_20h59.08.201,MainFlow,2024.2.4,142.0281042193961,2025-03-09 20h59.19.644991 +0700,
2,3,95,word/worden0953.png,86,86,0,x,1.2169265998527408,None,0,86,86,86,229.877826299984,,,,,,,229.877826299984,229.877826299984,230.86735010007396,230.87876390013844,230.87876390013844,230.87876390013844,230.87876390013844,232.1027687001042,x,1.2169265998527408,None,,,,,,,,KH_en,001,2025-03-09_20h59.08.201,MainFlow,2024.2.4,142.0281042193961,2025-03-09 20h59.19.644991 +0700,
2,3,30,word/worden0303.png,87,87,0,x,2.3854769999161363,None,0,87,87,87,232.10913340002298,,,,,,,232.10913340002298,232.10913340002298,233.0990683999844,233.11015660013072,233.11015660013072,233.11015660013072,233.11015660013072,235.50206710002385,x,2.3854769999161363,None,,,,,,,,KH_en,001,2025-03-09_20h59.08.201,MainFlow,2024.2.4,142.0281042193961,2025-03-09 20h59.19.644991 +0700,
2,3,22,word/worden0223.png,88,88,0,x,1.1142774000763893,None,0,88,88,88,235.50837750011124,,,,,,,235.50837750011124,235.50837750011124,236.49844790017232,236.5093791000545,236.5093791000545,236.5093791000545,236.5093791000545,237.6291635001544,x,1.1142774000763893,None,,,,,,,,KH_en,001,2025-03-09_20h59.08.201,MainFlow,2024.2.4,142.0281042193961,2025-03-09 20h59.19.644991 +0700,
2,1,75,word/worden0751.png,89,89,0,z,1.3240755998995155,None,0,89,89,89,237.63535420014523,,,,,,,237.63535420014523,237.63535420014523,238.625263400143,238.63653940008953,238.63653940008953,238.63653940008953,238.63653940008953,239.96400610008277,z,1.3240755998995155,None,,,,,,,,KH_en,001,2025-03-09_20h59.08.201,MainFlow,2024.2.4,142.0281042193961,2025-03-09 20h59.19.644991 +0700,
2,1,64,word/worden0641.png,90,90,0,z,1.4844529000110924,None,0,90,90,90,239.97033919999376,,,,,,,239.97033919999376,239.97033919999376,240.96122250007465,240.97217700001784,240.97217700001784,240.97217700001784,240.97217700001784,242.46028020000085,z,1.4844529000110924,None,,,,,,,,KH_en,001,2025-03-09_20h59.08.201,MainFlow,2024.2.4,142.0281042193961,2025-03-09 20h59.19.644991 +0700,
2,1,27,word/worden0271.png,91,91,0,z,0.7886573998257518,None,0,91,91,91,242.4667169000022,,,,,,,242.4667169000022,242.4667169000022,243.45497740013525,243.45995580009185,243.45995580009185,243.45995580009185,243.45995580009185,244.2538469999563,z,0.7886573998257518,None,,,,,,,,KH_en,001,2025-03-09_20h59.08.201,MainFlow,2024.2.4,142.0281042193961,2025-03-09 20h59.19.644991 +0700,
2,2,24,word/worden0242.png,92,92,0,z,2.6522238000761718,None,0,92,92,92,244.26016449998133,,,,,,,244.26016449998133,244.26016449998133,245.24881669995375,245.2534243001137,245.2534243001137,245.2534243001137,245.2534243001137,247.91030390001833,z,2.6522238000761718,None,,,,,,,,KH_en,001,2025-03-09_20h59.08.201,MainFlow,2024.2.4,142.0281042193961,2025-03-09 20h59.19.644991 +0700,
2,1,87,word/worden0871.png,93,93,0,z,4.44335910002701,None,0,93,93,93,247.91653729998507,,,,,,,247.91653729998507,247.91653729998507,248.9062262000516,248.91808430012316,248.91808430012316,248.91808430012316,248.91808430012316,253.36715980013832,z,4.44335910002701,None,,,,,,,,KH_en,001,2025-03-09_20h59.08.201,MainFlow,2024.2.4,142.0281042193961,2025-03-09 20h59.19.644991 +0700,
2,1,7,word/worden0071.png,94,94,0,z,0.7158515001647174,None,0,94,94,94,253.37350880005397,,,,,,,253.37350880005397,253.37350880005397,254.36192780011334,254.36674170009792,254.36674170009792,254.36674170009792,254.36674170009792,255.0841386001557,z,0.7158515001647174,None,,,,,,,,KH_en,001,2025-03-09_20h59.08.201,MainFlow,2024.2.4,142.0281042193961,2025-03-09 20h59.19.644991 +0700,
2,2,9,word/worden0092.png,95,95,0,z,0.9671359001658857,None,0,95,95,95,255.09040380013175,,,,,,,255.09040380013175,255.09040380013175,256.0801930001471,256.0915002000984,256.0915002000984,256.0915002000984,256.0915002000984,257.06518810009584,z,0.9671359001658857,None,,,,,,,,KH_en,001,2025-03-09_20h59.08.201,MainFlow,2024.2.4,142.0281042193961,2025-03-09 20h59.19.644991 +0700,
2,1,44,word/worden0441.png,96,96,0,z,1.4099727000575513,None,0,96,96,96,257.0716317000333,,,,,,,257.0716317000333,257.0716317000333,258.0614369001705,258.07264499994926,258.07264499994926,258.07264499994926,258.07264499994926,259.48430630005896,z,1.4099727000575513,None,,,,,,,,KH_en,001,2025-03-09_20h59.08.201,MainFlow,2024.2.4,142.0281042193961,2025-03-09 20h59.19.644991 +0700,
2,2,10,word/worden0102.png,97,97,0,x,1.0398779998067766,None,0,97,97,97,259.4907323999796,,,,,,,259.4907323999796,259.4907323999796,260.4803959999699,260.49173180013895,260.49173180013895,260.49173180013895,260.49173180013895,261.5350266001187,x,1.0398779998067766,None,,,,,,,,KH_en,001,2025-03-09_20h59.08.201,MainFlow,2024.2.4,142.0281042193961,2025-03-09 20h59.19.644991 +0700,
2,2,82,word/worden0822.png,98,98,0,z,1.3972207999322563,None,0,98,98,98,261.54137180000544,,,,,,,261.54137180000544,261.54137180000544,262.5313342001755,262.5423962001223,262.5423962001223,262.5423962001223,262.5423962001223,263.94621690013446,z,1.3972207999322563,None,,,,,,,,KH_en,001,2025-03-09_20h59.08.201,MainFlow,2024.2.4,142.0281042193961,2025-03-09 20h59.19.644991 +0700,
2,3,89,word/worden0893.png,99,99,0,x,2.4008830999955535,None,0,99,99,99,263.9526865000371,,,,,,,263.9526865000371,263.9526865000371,264.94334060000256,264.95471010007896,264.95471010007896,264.95471010007896,264.95471010007896,267.36022770009004,x,2.4008830999955535,None,,,,,,,,KH_en,001,2025-03-09_20h59.08.201,MainFlow,2024.2.4,142.0281042193961,2025-03-09 20h59.19.644991 +0700,
2,2,44,word/worden0442.png,100,100,0,x,0.9248031000606716,None,0,100,100,100,267.3666640999727,,,,,,,267.3666640999727,267.3666640999727,268.3550466999877,268.3598826001398,268.3598826001398,268.3598826001398,268.3598826001398,269.285811400041,x,0.9248031000606716,None,,,,,,,,KH_en,001,2025-03-09_20h59.08.201,MainFlow,2024.2.4,142.0281042193961,2025-03-09 20h59.19.644991 +0700,
2,1,52,word/worden0521.png,101,101,0,z,1.8471566999796778,None,0,101,101,101,269.2921871000435,,,,,,,269.2921871000435,269.2921871000435,270.2804744001478,270.28543920000084,270.28543920000084,270.28543920000084,270.28543920000084,272.1359437999781,z,1.8471566999796778,None,,,,,,,,KH_en,001,2025-03-09_20h59.08.201,MainFlow,2024.2.4,142.0281042193961,2025-03-09 20h59.19.644991 +0700,
2,1,51,word/worden0511.png,102,102,0,z,6.83824949990958,None,0,102,102,102,272.1422759001143,,,,,,,272.1422759001143,272.1422759001143,273.1304411001038,273.13548710010946,273.13548710010946,273.13548710010946,273.13548710010946,279.9770937000867,z,6.83824949990958,None,,,,,,,,KH_en,001,2025-03-09_20h59.08.201,MainFlow,2024.2.4,142.0281042193961,2025-03-09 20h59.19.644991 +0700,
2,3,51,word/worden0513.png,103,103,0,x,1.0849495998118073,None,0,103,103,103,279.98340849997476,,,,,,,279.98340849997476,279.98340849997476,280.9716886000242,280.976673200028,280.976673200028,280.976673200028,280.976673200028,282.06257340009324,x,1.0849495998118073,None,,,,,,,,KH_en,001,2025-03-09_20h59.08.201,MainFlow,2024.2.4,142.0281042193961,2025-03-09 20h59.19.644991 +0700,
2,2,8,word/worden0082.png,104,104,0,x,0.8405168999452144,None,0,104,104,104,282.06879630009644,,,,,,,282.06879630009644,282.06879630009644,283.057093600044,283.0621023999993,283.0621023999993,283.0621023999993,283.0621023999993,283.904709600145,x,0.8405168999452144,None,,,,,,,,KH_en,001,2025-03-09_20h59.08.201,MainFlow,2024.2.4,142.0281042193961,2025-03-09 20h59.19.644991 +0700,
2,2,3,word/worden0032.png,105,105,0,z,2.606321800034493,None,0,105,105,105,283.9109998999629,,,,,,,283.9109998999629,283.9109998999629,284.89962960011326,284.90428659995086,284.90428659995086,284.90428659995086,284.90428659995086,287.5122349001467,z,2.606321800034493,None,,,,,,,,KH_en,001,2025-03-09_20h59.08.201,MainFlow,2024.2.4,142.0281042193961,2025-03-09 20h59.19.644991 +0700,
2,3,3,word/worden0033.png,106,106,0,x,1.2308526998385787,None,0,106,106,106,287.5187959000468,,,,,,,287.5187959000468,287.5187959000468,288.5088657999877,288.5197877001483,288.5197877001483,288.5197877001483,288.5197877001483,289.75769050000235,x,1.2308526998385787,None,,,,,,,,KH_en,001,2025-03-09_20h59.08.201,MainFlow,2024.2.4,142.0281042193961,2025-03-09 20h59.19.644991 +0700,
2,3,64,word/worden0643.png,107,107,0,x,1.8743906000163406,None,0,107,107,107,289.7640680000186,,,,,,,289.7640680000186,289.7640680000186,290.75230329995975,290.7573127001524,290.7573127001524,290.7573127001524,290.7573127001524,292.6356269000098,x,1.8743906000163406,None,,,,,,,,KH_en,001,2025-03-09_20h59.08.201,MainFlow,2024.2.4,142.0281042193961,2025-03-09 20h59.19.644991 +0700,
2,3,26,word/worden0263.png,108,108,0,x,0.6444105999544263,None,0,108,108,108,292.6419546001125,,,,,,,292.6419546001125,292.6419546001125,293.6302022000309,293.63519740011543,293.63519740011543,293.63519740011543,293.63519740011543,294.2831071000546,x,0.6444105999544263,None,,,,,,,,KH_en,001,2025-03-09_20h59.08.201,MainFlow,2024.2.4,142.0281042193961,2025-03-09 20h59.19.644991 +0700,
2,2,96,word/worden0962.png,109,109,0,x,0.8851807999890298,None,0,109,109,109,294.2894491001498,,,,,,,294.2894491001498,294.2894491001498,295.2785235000774,295.29043600009754,295.29043600009754,295.29043600009754,295.29043600009754,296.1807659000624,x,0.8851807999890298,None,,,,,,,,KH_en,001,2025-03-09_20h59.08.201,MainFlow,2024.2.4,142.0281042193961,2025-03-09 20h59.19.644991 +0700,
2,1,22,word/worden0221.png,110,110,0,z,0.8112305998802185,None,0,110,110,110,296.1871599999722,,,,,,,296.1871599999722,296.1871599999722,297.1752182999626,297.1804063001182,297.1804063001182,297.1804063001182,297.1804063001182,297.9951506999787,z,0.8112305998802185,None,,,,,,,,KH_en,001,2025-03-09_20h59.08.201,MainFlow,2024.2.4,142.0281042193961,2025-03-09 20h59.19.644991 +0700,
2,2,22,word/worden0222.png,111,111,0,x,1.5260995000135154,None,0,111,111,111,298.00136320013553,,,,,,,298.00136320013553,298.00136320013553,298.99111840012483,299.00251080002636,299.00251080002636,299.00251080002636,299.00251080002636,300.5323797999881,x,1.5260995000135154,None,,,,,,,,KH_en,001,2025-03-09_20h59.08.201,MainFlow,2024.2.4,142.0281042193961,2025-03-09 20h59.19.644991 +0700,
2,2,26,word/worden0262.png,112,112,0,x,0.8926492999307811,None,0,112,112,112,300.53873610007577,,,,,,,300.53873610007577,300.53873610007577,301.5268349000253,301.5320048001595,301.5320048001595,301.5320048001595,301.5320048001595,302.4300622001756,x,0.8926492999307811,None,,,,,,,,KH_en,001,2025-03-09_20h59.08.201,MainFlow,2024.2.4,142.0281042193961,2025-03-09 20h59.19.644991 +0700,
2,3,48,word/worden0483.png,113,113,0,x,1.459203999955207,None,0,113,113,113,302.4365267001558,,,,,,,302.4365267001558,302.4365267001558,303.426314300159,303.437504600035,303.437504600035,303.437504600035,303.437504600035,304.8983551999554,x,1.459203999955207,None,,,,,,,,KH_en,001,2025-03-09_20h59.08.201,MainFlow,2024.2.4,142.0281042193961,2025-03-09 20h59.19.644991 +0700,
2,2,87,word/worden0872.png,114,114,0,x,2.6801515999250114,None,0,114,114,114,304.90424810000695,,,,,,,304.90424810000695,304.90424810000695,305.892453199951,305.8974614001345,305.8974614001345,305.8974614001345,305.8974614001345,308.5820548001211,x,2.6801515999250114,None,,,,,,,,KH_en,001,2025-03-09_20h59.08.201,MainFlow,2024.2.4,142.0281042193961,2025-03-09 20h59.19.644991 +0700,
2,1,10,word/worden0101.png,115,115,0,z,0.7479121000505984,None,0,115,115,115,308.5884686000645,,,,,,,308.5884686000645,308.5884686000645,309.57683150004596,309.5817244001664,309.5817244001664,309.5817244001664,309.5817244001664,310.33384920004755,z,0.7479121000505984,None,,,,,,,,KH_en,001,2025-03-09_20h59.08.201,MainFlow,2024.2.4,142.0281042193961,2025-03-09 20h59.19.644991 +0700,
2,3,8,word/worden0083.png,116,116,0,x,2.0293716001324356,None,0,116,116,116,310.3401063999627,,,,,,,310.3401063999627,310.3401063999627,311.33027210016735,311.3412440000102,311.3412440000102,311.3412440000102,311.3412440000102,313.3717328000348,x,2.0293716001324356,None,,,,,,,,KH_en,001,2025-03-09_20h59.08.201,MainFlow,2024.2.4,142.0281042193961,2025-03-09 20h59.19.644991 +0700,
2,3,94,word/worden0943.png,117,117,0,x,2.4953741999343038,None,0,117,117,117,313.3780326000415,,,,,,,313.3780326000415,313.3780326000415,314.36645470000803,314.3712387001142,314.3712387001142,314.3712387001142,314.3712387001142,316.8681244000327,x,2.4953741999343038,None,,,,,,,,KH_en,001,2025-03-09_20h59.08.201,MainFlow,2024.2.4,142.0281042193961,2025-03-09 20h59.19.644991 +0700,
2,2,11,word/worden0112.png,118,118,0,x,0.8150403001345694,None,0,118,118,118,316.8745387000963,,,,,,,316.8745387000963,316.8745387000963,317.86457430012524,317.8755731000565,317.8755731000565,317.8755731000565,317.8755731000565,318.6963788000867,x,0.8150403001345694,None,,,,,,,,KH_en,001,2025-03-09_20h59.08.201,MainFlow,2024.2.4,142.0281042193961,2025-03-09 20h59.19.644991 +0700,
2,3,24,word/worden0243.png,119,119,0,x,1.2356068000663072,None,0,119,119,119,318.7027600000147,,,,,,,318.7027600000147,318.7027600000147,319.69115309999324,319.69600760005414,319.69600760005414,319.69600760005414,319.69600760005414,320.9349136000965,x,1.2356068000663072,None,,,,,,,,KH_en,001,2025-03-09_20h59.08.201,MainFlow,2024.2.4,142.0281042193961,2025-03-09 20h59.19.644991 +0700,
,,,,,,,,,,,,,,,,,,,,,,,,,,,,,,,,320.93500400008634,320.94111460004933,320.94111460004933,328.8940573001746,space,7.951492399908602,None,KH_en,001,2025-03-09_20h59.08.201,MainFlow,2024.2.4,142.0281042193961,2025-03-09 20h59.19.644991 +0700,
