lang,stimuli,imageid,worddir,thisN,thisTrialN,thisRepN,key_resp.keys,key_resp.rt,key_resp.duration,trials.thisRepN,trials.thisTrialN,trials.thisN,trials.thisIndex,thisRow.t,notes,tutorial.started,tutorial.stopped,key_instruct.keys,key_instruct.rt,key_instruct.duration,instructblank.started,cross1.started,letterselect.started,imageword.started,text_2.started,cross2.started,key_resp.started,letterselect.stopped,trials.key_resp.keys,trials.key_resp.rt,trials.key_resp.duration,instructblank.stopped,cross1.stopped,ending.started,text_3.started,ending_key.started,ending.stopped,ending_key.keys,ending_key.rt,ending_key.duration,participant,session,date,expName,psychopyVersion,frameRate,expStart,
,,,,,,,,,,,,,,,,0.0030682999968121294,58.386020899997675,space,58.35702040000251,None,,,,,,,,,,,,,,,,,,,,,KR_en,001,2025-03-10_20h50.39.797,MainFlow,2024.2.4,143.87847448621088,2025-03-10 20h50.56.910794 +0700,
2,1,66,word/worden0661.png,0,0,0,x,0.5407613000024867,None,0,0,0,0,58.4264852999986,,,,,,,58.4264852999986,58.4264852999986,59.39741479999793,59.42268739999781,59.42268739999781,59.42268739999781,59.42268739999781,59.97108250000019,x,0.5407613000024867,None,,,,,,,,,,KR_en,001,2025-03-10_20h50.39.797,MainFlow,2024.2.4,143.87847448621088,2025-03-10 20h50.56.910794 +0700,
2,1,3,word/worden0031.png,1,1,0,z,0.5399172000034014,None,0,1,1,1,59.97607579999749,,,,,,,59.97607579999749,59.97607579999749,60.99301489999925,60.996460399997886,60.996460399997886,60.996460399997886,60.996460399997886,61.53987739999866,z,0.5399172000034014,None,,,,,,,,,,KR_en,001,2025-03-10_20h50.39.797,MainFlow,2024.2.4,143.87847448621088,2025-03-10 20h50.56.910794 +0700,
2,2,71,word/worden0712.png,2,2,0,x,0.45512560000133817,None,0,2,2,2,61.54511799999818,,,,,,,61.54511799999818,61.54511799999818,62.5589559,62.56231750000006,62.56231750000006,62.56231750000006,62.56231750000006,63.018947699998535,x,0.45512560000133817,None,,,,,,,,,,KR_en,001,2025-03-10_20h50.39.797,MainFlow,2024.2.4,143.87847448621088,2025-03-10 20h50.56.910794 +0700,
2,3,27,word/worden0273.png,3,3,0,x,0.44832900000255904,None,0,3,3,3,63.02389719999701,,,,,,,63.02389719999701,63.02389719999701,64.03883009999845,64.04211759999816,64.04211759999816,64.04211759999816,64.04211759999816,64.49886589999733,x,0.44832900000255904,None,,,,,,,,,,KR_en,001,2025-03-10_20h50.39.797,MainFlow,2024.2.4,143.87847448621088,2025-03-10 20h50.56.910794 +0700,
2,3,88,word/worden0883.png,4,4,0,x,1.2551380000004428,None,0,4,4,4,64.50365020000027,,,,,,,64.50365020000027,64.50365020000027,65.51784979999866,65.52111909999803,65.52111909999803,65.52111909999803,65.52111909999803,66.78230239999903,x,1.2551380000004428,None,,,,,,,,,,KR_en,001,2025-03-10_20h50.39.797,MainFlow,2024.2.4,143.87847448621088,2025-03-10 20h50.56.910794 +0700,
2,1,28,word/worden0281.png,5,5,0,x,0.34146180000243476,None,0,5,5,5,66.78707549999672,,,,,,,66.78707549999672,66.78707549999672,67.78880879999997,67.79210799999782,67.79210799999782,67.79210799999782,67.79210799999782,68.1360042999986,x,0.34146180000243476,None,,,,,,,,,,KR_en,001,2025-03-10_20h50.39.797,MainFlow,2024.2.4,143.87847448621088,2025-03-10 20h50.56.910794 +0700,
2,1,50,word/worden0501.png,6,6,0,z,0.834262000000308,None,0,6,6,6,68.14100859999962,,,,,,,68.14100859999962,68.14100859999962,69.151712699997,69.1554501999999,69.1554501999999,69.1554501999999,69.1554501999999,69.99772809999922,z,0.834262000000308,None,,,,,,,,,,KR_en,001,2025-03-10_20h50.39.797,MainFlow,2024.2.4,143.87847448621088,2025-03-10 20h50.56.910794 +0700,
2,1,41,word/worden0411.png,7,7,0,z,0.5972381999999925,None,0,7,7,7,70.00164129999757,,,,,,,70.00164129999757,70.00164129999757,71.01390079999692,71.01707549999992,71.01707549999992,71.01707549999992,71.01707549999992,71.62151859999722,z,0.5972381999999925,None,,,,,,,,,,KR_en,001,2025-03-10_20h50.39.797,MainFlow,2024.2.4,143.87847448621088,2025-03-10 20h50.56.910794 +0700,
2,2,52,word/worden0522.png,8,8,0,x,0.525453500002186,None,0,8,8,8,71.62639579999814,,,,,,,71.62639579999814,71.62639579999814,72.64418289999958,72.64757669999744,72.64757669999744,72.64757669999744,72.64757669999744,73.17641299999741,x,0.525453500002186,None,,,,,,,,,,KR_en,001,2025-03-10_20h50.39.797,MainFlow,2024.2.4,143.87847448621088,2025-03-10 20h50.56.910794 +0700,
2,3,6,word/worden0063.png,9,9,0,x,0.6097890999990341,None,0,9,9,9,73.1817489999994,,,,,,,73.1817489999994,73.1817489999994,74.19235229999686,74.19594819999838,74.19594819999838,74.19594819999838,74.19594819999838,74.80862009999692,x,0.6097890999990341,None,,,,,,,,,,KR_en,001,2025-03-10_20h50.39.797,MainFlow,2024.2.4,143.87847448621088,2025-03-10 20h50.56.910794 +0700,
2,3,46,word/worden0463.png,10,10,0,x,0.7304780000013125,None,0,10,10,10,74.81363019999844,,,,,,,74.81363019999844,74.81363019999844,75.8148764999969,75.81858909999937,75.81858909999937,75.81858909999937,75.81858909999937,76.55216699999801,x,0.7304780000013125,None,,,,,,,,,,KR_en,001,2025-03-10_20h50.39.797,MainFlow,2024.2.4,143.87847448621088,2025-03-10 20h50.56.910794 +0700,
2,2,30,word/worden0302.png,11,11,0,x,0.44806249999965075,None,0,11,11,11,76.55673159999787,,,,,,,76.55673159999787,76.55673159999787,77.55515439999726,77.55808259999685,77.55808259999685,77.55808259999685,77.55808259999685,78.00903479999761,x,0.44806249999965075,None,,,,,,,,,,KR_en,001,2025-03-10_20h50.39.797,MainFlow,2024.2.4,143.87847448621088,2025-03-10 20h50.56.910794 +0700,
2,2,46,word/worden0462.png,12,12,0,x,0.4232235000017681,None,0,12,12,12,78.01400619999913,,,,,,,78.01400619999913,78.01400619999913,79.02485799999704,79.02811229999861,79.02811229999861,79.02811229999861,79.02811229999861,79.45355429999836,x,0.4232235000017681,None,,,,,,,,,,KR_en,001,2025-03-10_20h50.39.797,MainFlow,2024.2.4,143.87847448621088,2025-03-10 20h50.56.910794 +0700,
2,2,70,word/worden0702.png,13,13,0,x,0.5830932999997458,None,0,13,13,13,79.45824879999782,,,,,,,79.45824879999782,79.45824879999782,80.46942320000016,80.4730942999995,80.4730942999995,80.4730942999995,80.4730942999995,81.06361499999912,x,0.5830932999997458,None,,,,,,,,,,KR_en,001,2025-03-10_20h50.39.797,MainFlow,2024.2.4,143.87847448621088,2025-03-10 20h50.56.910794 +0700,
2,1,70,word/worden0701.png,14,14,0,z,0.6373845000016445,None,0,14,14,14,81.06890930000009,,,,,,,81.06890930000009,81.06890930000009,82.07637219999742,82.07954830000017,82.07954830000017,82.07954830000017,82.07954830000017,82.72420529999727,z,0.6373845000016445,None,,,,,,,,,,KR_en,001,2025-03-10_20h50.39.797,MainFlow,2024.2.4,143.87847448621088,2025-03-10 20h50.56.910794 +0700,
2,1,8,word/worden0081.png,15,15,0,z,0.5434176000017032,None,0,15,15,15,82.72842999999921,,,,,,,82.72842999999921,82.72842999999921,83.73420599999736,83.73706319999837,83.73706319999837,83.73706319999837,83.73706319999837,84.28527839999879,z,0.5434176000017032,None,,,,,,,,,,KR_en,001,2025-03-10_20h50.39.797,MainFlow,2024.2.4,143.87847448621088,2025-03-10 20h50.56.910794 +0700,
2,3,61,word/worden0613.png,16,16,0,x,0.5304251999987173,None,0,16,16,16,84.29059280000001,,,,,,,84.29059280000001,84.29059280000001,85.30115639999713,85.30483169999934,85.30483169999934,85.30483169999934,85.30483169999934,85.84110689999943,x,0.5304251999987173,None,,,,,,,,,,KR_en,001,2025-03-10_20h50.39.797,MainFlow,2024.2.4,143.87847448621088,2025-03-10 20h50.56.910794 +0700,
2,3,10,word/worden0103.png,17,17,0,x,0.6459501999997883,None,0,17,17,17,85.84572560000015,,,,,,,85.84572560000015,85.84572560000015,86.85942789999899,86.86280569999872,86.86280569999872,86.86280569999872,86.86280569999872,87.51515189999918,x,0.6459501999997883,None,,,,,,,,,,KR_en,001,2025-03-10_20h50.39.797,MainFlow,2024.2.4,143.87847448621088,2025-03-10 20h50.56.910794 +0700,
2,3,75,word/worden0753.png,18,18,0,x,0.460230100001354,None,0,18,18,18,87.51916249999704,,,,,,,87.51916249999704,87.51916249999704,88.51639280000018,88.51949119999699,88.51949119999699,88.51949119999699,88.51949119999699,88.98528439999791,x,0.460230100001354,None,,,,,,,,,,KR_en,001,2025-03-10_20h50.39.797,MainFlow,2024.2.4,143.87847448621088,2025-03-10 20h50.56.910794 +0700,
2,2,63,word/worden0632.png,19,19,0,x,0.444596499997715,None,0,19,19,19,88.99099109999952,,,,,,,88.99099109999952,88.99099109999952,90.00503539999772,90.00823179999861,90.00823179999861,90.00823179999861,90.00823179999861,90.45793069999854,x,0.444596499997715,None,,,,,,,,,,KR_en,001,2025-03-10_20h50.39.797,MainFlow,2024.2.4,143.87847448621088,2025-03-10 20h50.56.910794 +0700,
2,3,11,word/worden0113.png,20,20,0,x,0.3876139999993029,None,0,20,20,20,90.46296679999796,,,,,,,90.46296679999796,90.46296679999796,91.4791699999987,91.48240139999689,91.48240139999689,91.48240139999689,91.48240139999689,91.87422239999796,x,0.3876139999993029,None,,,,,,,,,,KR_en,001,2025-03-10_20h50.39.797,MainFlow,2024.2.4,143.87847448621088,2025-03-10 20h50.56.910794 +0700,
2,2,89,word/worden0892.png,21,21,0,x,0.44953800000075717,None,0,21,21,21,91.87945599999875,,,,,,,91.87945599999875,91.87945599999875,92.87477359999684,92.87768369999685,92.87768369999685,92.87768369999685,92.87768369999685,93.33349089999683,x,0.44953800000075717,None,,,,,,,,,,KR_en,001,2025-03-10_20h50.39.797,MainFlow,2024.2.4,143.87847448621088,2025-03-10 20h50.56.910794 +0700,
2,1,9,word/worden0091.png,22,22,0,z,0.6302875000001222,None,0,22,22,22,93.33731400000033,,,,,,,93.33731400000033,93.33731400000033,94.3503017999974,94.35356630000024,94.35356630000024,94.35356630000024,94.35356630000024,94.99145869999847,z,0.6302875000001222,None,,,,,,,,,,KR_en,001,2025-03-10_20h50.39.797,MainFlow,2024.2.4,143.87847448621088,2025-03-10 20h50.56.910794 +0700,
2,3,28,word/worden0283.png,23,23,0,z,0.5267406000020856,None,0,23,23,23,94.99681159999818,,,,,,,94.99681159999818,94.99681159999818,96.01658820000011,96.02007609999782,96.02007609999782,96.02007609999782,96.02007609999782,96.55390419999821,z,0.5267406000020856,None,,,,,,,,,,KR_en,001,2025-03-10_20h50.39.797,MainFlow,2024.2.4,143.87847448621088,2025-03-10 20h50.56.910794 +0700,
2,1,82,word/worden0821.png,24,24,0,z,0.6949821999987762,None,0,24,24,24,96.5590209999973,,,,,,,96.5590209999973,96.5590209999973,97.57050629999867,97.57392079999772,97.57392079999772,97.57392079999772,97.57392079999772,98.27532520000022,z,0.6949821999987762,None,,,,,,,,,,KR_en,001,2025-03-10_20h50.39.797,MainFlow,2024.2.4,143.87847448621088,2025-03-10 20h50.56.910794 +0700,
2,2,28,word/worden0282.png,25,25,0,x,0.5028849000009359,None,0,25,25,25,98.2808746999981,,,,,,,98.2808746999981,98.2808746999981,99.29524359999778,99.29896499999813,99.29896499999813,99.29896499999813,99.29896499999813,99.80353850000029,x,0.5028849000009359,None,,,,,,,,,,KR_en,001,2025-03-10_20h50.39.797,MainFlow,2024.2.4,143.87847448621088,2025-03-10 20h50.56.910794 +0700,
2,1,23,word/worden0231.png,26,26,0,z,0.5273536999993667,None,0,26,26,26,99.80846219999876,,,,,,,99.80846219999876,99.80846219999876,100.82380099999864,100.82730699999956,100.82730699999956,100.82730699999956,100.82730699999956,101.35851559999719,z,0.5273536999993667,None,,,,,,,,,,KR_en,001,2025-03-10_20h50.39.797,MainFlow,2024.2.4,143.87847448621088,2025-03-10 20h50.56.910794 +0700,
2,2,42,word/worden0422.png,27,27,0,x,0.533665299997665,None,0,27,27,27,101.36364489999687,,,,,,,101.36364489999687,101.36364489999687,102.37154159999773,102.37491119999686,102.37491119999686,102.37491119999686,102.37491119999686,102.91476329999932,x,0.533665299997665,None,,,,,,,,,,KR_en,001,2025-03-10_20h50.39.797,MainFlow,2024.2.4,143.87847448621088,2025-03-10 20h50.56.910794 +0700,
2,2,93,word/worden0932.png,28,28,0,x,0.5679995999998937,None,0,28,28,28,102.91953920000014,,,,,,,102.91953920000014,102.91953920000014,103.92974699999832,103.93326789999992,103.93326789999992,103.93326789999992,103.93326789999992,104.50392689999717,x,0.5679995999998937,None,,,,,,,,,,KR_en,001,2025-03-10_20h50.39.797,MainFlow,2024.2.4,143.87847448621088,2025-03-10 20h50.56.910794 +0700,
2,1,88,word/worden0881.png,29,29,0,z,0.770196900000883,None,0,29,29,29,104.50896499999726,,,,,,,104.50896499999726,104.50896499999726,105.52715509999689,105.53042479999931,105.53042479999931,105.53042479999931,105.53042479999931,106.30340599999909,z,0.770196900000883,None,,,,,,,,,,KR_en,001,2025-03-10_20h50.39.797,MainFlow,2024.2.4,143.87847448621088,2025-03-10 20h50.56.910794 +0700,
2,3,31,word/worden0313.png,30,30,0,x,0.506370800001605,None,0,30,30,30,106.3089407999978,,,,,,,106.3089407999978,106.3089407999978,107.31560139999783,107.31900879999739,107.31900879999739,107.31900879999739,107.31900879999739,107.82956449999983,x,0.506370800001605,None,,,,,,,,,,KR_en,001,2025-03-10_20h50.39.797,MainFlow,2024.2.4,143.87847448621088,2025-03-10 20h50.56.910794 +0700,
2,2,75,word/worden0752.png,31,31,0,x,0.43051529999866034,None,0,31,31,31,107.83474869999918,,,,,,,107.83474869999918,107.83474869999918,108.8435376999987,108.84707899999921,108.84707899999921,108.84707899999921,108.84707899999921,109.28108219999922,x,0.43051529999866034,None,,,,,,,,,,KR_en,001,2025-03-10_20h50.39.797,MainFlow,2024.2.4,143.87847448621088,2025-03-10 20h50.56.910794 +0700,
2,2,48,word/worden0482.png,32,32,0,x,0.7761122999982035,None,0,32,32,32,109.28572669999994,,,,,,,109.28572669999994,109.28572669999994,110.29588049999802,110.29951199999778,110.29951199999778,110.29951199999778,110.29951199999778,111.07871979999982,x,0.7761122999982035,None,,,,,,,,,,KR_en,001,2025-03-10_20h50.39.797,MainFlow,2024.2.4,143.87847448621088,2025-03-10 20h50.56.910794 +0700,
2,1,26,word/worden0261.png,33,33,0,z,0.7019822999973258,None,0,33,33,33,111.08395799999926,,,,,,,111.08395799999926,111.08395799999926,112.09286839999913,112.09615479999775,112.09615479999775,112.09615479999775,112.09615479999775,112.80168929999854,z,0.7019822999973258,None,,,,,,,,,,KR_en,001,2025-03-10_20h50.39.797,MainFlow,2024.2.4,143.87847448621088,2025-03-10 20h50.56.910794 +0700,
2,2,41,word/worden0412.png,34,34,0,x,0.5395369000034407,None,0,34,34,34,112.80604479999965,,,,,,,112.80604479999965,112.80604479999965,113.8258711999988,113.82934749999913,113.82934749999913,113.82934749999913,113.82934749999913,114.37025849999918,x,0.5395369000034407,None,,,,,,,,,,KR_en,001,2025-03-10_20h50.39.797,MainFlow,2024.2.4,143.87847448621088,2025-03-10 20h50.56.910794 +0700,
2,3,66,word/worden0663.png,35,35,0,x,0.40568050000001676,None,0,35,35,35,114.37500459999865,,,,,,,114.37500459999865,114.37500459999865,115.38518159999876,115.38837629999762,115.38837629999762,115.38837629999762,115.38837629999762,115.80085099999997,x,0.40568050000001676,None,,,,,,,,,,KR_en,001,2025-03-10_20h50.39.797,MainFlow,2024.2.4,143.87847448621088,2025-03-10 20h50.56.910794 +0700,
2,1,6,word/worden0061.png,36,36,0,z,0.5886905000006664,None,0,36,36,36,115.80523489999905,,,,,,,115.80523489999905,115.80523489999905,116.80489429999943,116.80805349999719,116.80805349999719,116.80805349999719,116.80805349999719,117.40340069999729,z,0.5886905000006664,None,,,,,,,,,,KR_en,001,2025-03-10_20h50.39.797,MainFlow,2024.2.4,143.87847448621088,2025-03-10 20h50.56.910794 +0700,
2,1,42,word/worden0421.png,37,37,0,z,0.6179799000019557,None,0,37,37,37,117.40946509999776,,,,,,,117.40946509999776,117.40946509999776,118.42620759999772,118.42937899999743,118.42937899999743,118.42937899999743,118.42937899999743,119.04950199999803,z,0.6179799000019557,None,,,,,,,,,,KR_en,001,2025-03-10_20h50.39.797,MainFlow,2024.2.4,143.87847448621088,2025-03-10 20h50.56.910794 +0700,
2,3,41,word/worden0413.png,38,38,0,x,0.4931705000017246,None,0,38,38,38,119.0546222999983,,,,,,,119.0546222999983,119.0546222999983,120.06386169999678,120.06716089999827,120.06716089999827,120.06716089999827,120.06716089999827,120.56403099999807,x,0.4931705000017246,None,,,,,,,,,,KR_en,001,2025-03-10_20h50.39.797,MainFlow,2024.2.4,143.87847448621088,2025-03-10 20h50.56.910794 +0700,
2,2,23,word/worden0232.png,39,39,0,x,0.5747412000018812,None,0,39,39,39,120.56847089999792,,,,,,,120.56847089999792,120.56847089999792,121.58388500000001,121.58728199999678,121.58728199999678,121.58728199999678,121.58728199999678,122.16684759999771,x,0.5747412000018812,None,,,,,,,,,,KR_en,001,2025-03-10_20h50.39.797,MainFlow,2024.2.4,143.87847448621088,2025-03-10 20h50.56.910794 +0700,
2,3,96,word/worden0963.png,40,40,0,x,0.4826716000025044,None,0,40,40,40,122.17205759999706,,,,,,,122.17205759999706,122.17205759999706,123.19067979999818,123.19422679999843,123.19422679999843,123.19422679999843,123.19422679999843,123.68017469999904,x,0.4826716000025044,None,,,,,,,,,,KR_en,001,2025-03-10_20h50.39.797,MainFlow,2024.2.4,143.87847448621088,2025-03-10 20h50.56.910794 +0700,
2,1,61,word/worden0611.png,41,41,0,z,0.6162538999997196,None,0,41,41,41,123.68565279999893,,,,,,,123.68565279999893,123.68565279999893,124.69971789999909,124.70325069999672,124.70325069999672,124.70325069999672,124.70325069999672,125.32595219999712,z,0.6162538999997196,None,,,,,,,,,,KR_en,001,2025-03-10_20h50.39.797,MainFlow,2024.2.4,143.87847448621088,2025-03-10 20h50.56.910794 +0700,
2,3,9,word/worden0093.png,42,42,0,x,0.6116728999986663,None,0,42,42,42,125.33124619999944,,,,,,,125.33124619999944,125.33124619999944,126.33134749999954,126.33450679999805,126.33450679999805,126.33450679999805,126.33450679999805,126.9506681999992,x,0.6116728999986663,None,,,,,,,,,,KR_en,001,2025-03-10_20h50.39.797,MainFlow,2024.2.4,143.87847448621088,2025-03-10 20h50.56.910794 +0700,
2,3,63,word/worden0633.png,43,43,0,x,0.5902204000012716,None,0,43,43,43,126.95585349999965,,,,,,,126.95585349999965,126.95585349999965,127.94973039999968,127.95275429999674,127.95275429999674,127.95275429999674,127.95275429999674,128.54792819999784,x,0.5902204000012716,None,,,,,,,,,,KR_en,001,2025-03-10_20h50.39.797,MainFlow,2024.2.4,143.87847448621088,2025-03-10 20h50.56.910794 +0700,
2,3,50,word/worden0503.png,44,44,0,x,0.6953377999998338,None,0,44,44,44,128.55288669999936,,,,,,,128.55288669999936,128.55288669999936,129.55879879999702,129.5619338999968,129.5619338999968,129.5619338999968,129.5619338999968,130.26190879999922,x,0.6953377999998338,None,,,,,,,,,,KR_en,001,2025-03-10_20h50.39.797,MainFlow,2024.2.4,143.87847448621088,2025-03-10 20h50.56.910794 +0700,
2,2,27,word/worden0272.png,45,45,0,x,0.4481887999972969,None,0,45,45,45,130.26770249999754,,,,,,,130.26770249999754,130.26770249999754,131.2743507999985,131.2772711999969,131.2772711999969,131.2772711999969,131.2772711999969,131.72807850000027,x,0.4481887999972969,None,,,,,,,,,,KR_en,001,2025-03-10_20h50.39.797,MainFlow,2024.2.4,143.87847448621088,2025-03-10 20h50.56.910794 +0700,
2,2,61,word/worden0612.png,46,46,0,x,0.7233605000001262,None,0,46,46,46,131.73286609999923,,,,,,,131.73286609999923,131.73286609999923,132.73033049999867,132.7334379999993,132.7334379999993,132.7334379999993,132.7334379999993,133.46318059999976,x,0.7233605000001262,None,,,,,,,,,,KR_en,001,2025-03-10_20h50.39.797,MainFlow,2024.2.4,143.87847448621088,2025-03-10 20h50.56.910794 +0700,
2,3,7,word/worden0073.png,47,47,0,x,0.5334063000009337,None,0,47,47,47,133.4683804999986,,,,,,,133.4683804999986,133.4683804999986,134.46239309999874,134.46523369999704,134.46523369999704,134.46523369999704,134.46523369999704,135.00460810000004,x,0.5334063000009337,None,,,,,,,,,,KR_en,001,2025-03-10_20h50.39.797,MainFlow,2024.2.4,143.87847448621088,2025-03-10 20h50.56.910794 +0700,
2,3,23,word/worden0233.png,48,48,0,x,0.5051710000007006,None,0,48,48,48,135.00983989999804,,,,,,,135.00983989999804,135.00983989999804,136.01528779999717,136.01844919999712,136.01844919999712,136.01844919999712,136.01844919999712,136.52660919999835,x,0.5051710000007006,None,,,,,,,,,,KR_en,001,2025-03-10_20h50.39.797,MainFlow,2024.2.4,143.87847448621088,2025-03-10 20h50.56.910794 +0700,
2,1,95,word/worden0951.png,49,49,0,z,0.6760461000012583,None,0,49,49,49,136.5325520999977,,,,,,,136.5325520999977,136.5325520999977,137.53767489999882,137.54102369999964,137.54102369999964,137.54102369999964,137.54102369999964,138.22053849999793,z,0.6760461000012583,None,,,,,,,,,,KR_en,001,2025-03-10_20h50.39.797,MainFlow,2024.2.4,143.87847448621088,2025-03-10 20h50.56.910794 +0700,
2,3,42,word/worden0423.png,50,50,0,x,0.4968888999974297,None,0,50,50,50,138.2256090999981,,,,,,,138.2256090999981,138.2256090999981,139.24542409999776,139.24900449999768,139.24900449999768,139.24900449999768,139.24900449999768,139.74706679999872,x,0.4968888999974297,None,,,,,,,,,,KR_en,001,2025-03-10_20h50.39.797,MainFlow,2024.2.4,143.87847448621088,2025-03-10 20h50.56.910794 +0700,
2,1,30,word/worden0301.png,51,51,0,z,0.5675924000024679,None,0,51,51,51,139.75208329999805,,,,,,,139.75208329999805,139.75208329999805,140.76874349999707,140.7720625999973,140.7720625999973,140.7720625999973,140.7720625999973,141.343785699999,z,0.5675924000024679,None,,,,,,,,,,KR_en,001,2025-03-10_20h50.39.797,MainFlow,2024.2.4,143.87847448621088,2025-03-10 20h50.56.910794 +0700,
2,3,87,word/worden0873.png,52,52,0,x,0.4771333000026061,None,0,52,52,52,141.3490559999991,,,,,,,141.3490559999991,141.3490559999991,142.36009299999932,142.36351439999999,142.36351439999999,142.36351439999999,142.36351439999999,142.84332269999868,x,0.4771333000026061,None,,,,,,,,,,KR_en,001,2025-03-10_20h50.39.797,MainFlow,2024.2.4,143.87847448621088,2025-03-10 20h50.56.910794 +0700,
2,2,6,word/worden0062.png,53,53,0,x,0.40455239999937476,None,0,53,53,53,142.84859169999982,,,,,,,142.84859169999982,142.84859169999982,143.86406059999717,143.8675435999976,143.8675435999976,143.8675435999976,143.8675435999976,144.27398659999744,x,0.40455239999937476,None,,,,,,,,,,KR_en,001,2025-03-10_20h50.39.797,MainFlow,2024.2.4,143.87847448621088,2025-03-10 20h50.56.910794 +0700,
2,2,68,word/worden0682.png,54,54,0,x,0.45717530000183615,None,0,54,54,54,144.27895539999736,,,,,,,144.27895539999736,144.27895539999736,145.29457489999913,145.2980484999971,145.2980484999971,145.2980484999971,145.2980484999971,145.76007190000018,x,0.45717530000183615,None,,,,,,,,,,KR_en,001,2025-03-10_20h50.39.797,MainFlow,2024.2.4,143.87847448621088,2025-03-10 20h50.56.910794 +0700,
2,3,1,word/worden0013.png,55,55,0,x,0.5045863000013924,None,0,55,55,55,145.7647427999982,,,,,,,145.7647427999982,145.7647427999982,146.77699459999712,146.7801948999986,146.7801948999986,146.7801948999986,146.7801948999986,147.28725219999978,x,0.5045863000013924,None,,,,,,,,,,KR_en,001,2025-03-10_20h50.39.797,MainFlow,2024.2.4,143.87847448621088,2025-03-10 20h50.56.910794 +0700,
2,2,94,word/worden0942.png,56,56,0,x,0.4730282000018633,None,0,56,56,56,147.29221539999708,,,,,,,147.29221539999708,147.29221539999708,148.29947159999938,148.30273899999884,148.30273899999884,148.30273899999884,148.30273899999884,148.77976109999872,x,0.4730282000018633,None,,,,,,,,,,KR_en,001,2025-03-10_20h50.39.797,MainFlow,2024.2.4,143.87847448621088,2025-03-10 20h50.56.910794 +0700,
2,3,82,word/worden0823.png,57,57,0,x,0.41528480000124546,None,0,57,57,57,148.78508389999843,,,,,,,148.78508389999843,148.78508389999843,149.7985873999969,149.8017633999989,149.8017633999989,149.8017633999989,149.8017633999989,150.22376169999916,x,0.41528480000124546,None,,,,,,,,,,KR_en,001,2025-03-10_20h50.39.797,MainFlow,2024.2.4,143.87847448621088,2025-03-10 20h50.56.910794 +0700,
2,1,89,word/worden0891.png,58,58,0,z,0.6395605000034266,None,0,58,58,58,150.22903210000004,,,,,,,150.22903210000004,150.22903210000004,151.2399501999971,151.24307159999807,151.24307159999807,151.24307159999807,151.24307159999807,151.8899265,z,0.6395605000034266,None,,,,,,,,,,KR_en,001,2025-03-10_20h50.39.797,MainFlow,2024.2.4,143.87847448621088,2025-03-10 20h50.56.910794 +0700,
2,1,31,word/worden0311.png,59,59,0,x,0.43455829999948037,None,0,59,59,59,151.89537519999794,,,,,,,151.89537519999794,151.89537519999794,152.90301779999936,152.90626909999992,152.90626909999992,152.90626909999992,152.90626909999992,153.34339799999725,x,0.43455829999948037,None,,,,,,,,,,KR_en,001,2025-03-10_20h50.39.797,MainFlow,2024.2.4,143.87847448621088,2025-03-10 20h50.56.910794 +0700,
2,2,51,word/worden0512.png,60,60,0,x,0.4256272999991779,None,0,60,60,60,153.34937739999805,,,,,,,153.34937739999805,153.34937739999805,154.36676689999877,154.37003419999746,154.37003419999746,154.37003419999746,154.37003419999746,154.79930649999733,x,0.4256272999991779,None,154.37003419999746,154.37003419999746,,,,,,,,KR_en,001,2025-03-10_20h50.39.797,MainFlow,2024.2.4,143.87847448621088,2025-03-10 20h50.56.910794 +0700,
2,3,44,word/worden0443.png,61,61,0,x,0.5323453999990306,None,0,61,61,61,154.80460099999982,,,,,,,154.80460099999982,154.80460099999982,155.81553109999732,155.81922949999716,155.81922949999716,155.81922949999716,155.81922949999716,156.3559177999996,x,0.5323453999990306,None,,,,,,,,,,KR_en,001,2025-03-10_20h50.39.797,MainFlow,2024.2.4,143.87847448621088,2025-03-10 20h50.56.910794 +0700,
2,1,1,word/worden0011.png,62,62,0,z,0.5005666999968525,None,0,62,62,62,156.361834299998,,,,,,,156.361834299998,156.361834299998,157.36661019999883,157.36992079999982,157.36992079999982,157.36992079999982,157.36992079999982,157.87590159999672,z,0.5005666999968525,None,,,,,,,,,,KR_en,001,2025-03-10_20h50.39.797,MainFlow,2024.2.4,143.87847448621088,2025-03-10 20h50.56.910794 +0700,
2,1,96,word/worden0961.png,63,63,0,z,0.6076547000011487,None,0,63,63,63,157.88044539999828,,,,,,,157.88044539999828,157.88044539999828,158.8911165999998,158.89450039999792,158.89450039999792,158.89450039999792,158.89450039999792,159.5062352999994,z,0.6076547000011487,None,,,,,,,,,,KR_en,001,2025-03-10_20h50.39.797,MainFlow,2024.2.4,143.87847448621088,2025-03-10 20h50.56.910794 +0700,
2,1,11,word/worden0111.png,64,64,0,z,0.7597252000014123,None,0,64,64,64,159.51197729999694,,,,,,,159.51197729999694,159.51197729999694,160.52336889999788,160.52669249999963,160.52669249999963,160.52669249999963,160.52669249999963,161.29199809999773,z,0.7597252000014123,None,,,,,,,,,,KR_en,001,2025-03-10_20h50.39.797,MainFlow,2024.2.4,143.87847448621088,2025-03-10 20h50.56.910794 +0700,
2,3,70,word/worden0703.png,65,65,0,x,1.049027400000341,None,0,65,65,65,161.29711219999808,,,,,,,161.29711219999808,161.29711219999808,162.30533359999754,162.30872949999684,162.30872949999684,162.30872949999684,162.30872949999684,163.3599624999988,x,1.049027400000341,None,,,,,,,,,,KR_en,001,2025-03-10_20h50.39.797,MainFlow,2024.2.4,143.87847448621088,2025-03-10 20h50.56.910794 +0700,
2,3,71,word/worden0713.png,66,66,0,x,0.5496689999999944,None,0,66,66,66,163.36541789999683,,,,,,,163.36541789999683,163.36541789999683,164.3802187000001,164.38383919999978,164.38383919999978,164.38383919999978,164.38383919999978,164.93661539999812,x,0.5496689999999944,None,,,,,,,,,,KR_en,001,2025-03-10_20h50.39.797,MainFlow,2024.2.4,143.87847448621088,2025-03-10 20h50.56.910794 +0700,
2,1,68,word/worden0681.png,67,67,0,z,0.6173986999965564,None,0,67,67,67,164.94234119999965,,,,,,,164.94234119999965,164.94234119999965,165.95517649999965,165.9588608999984,165.9588608999984,165.9588608999984,165.9588608999984,166.5830004999989,z,0.6173986999965564,None,,,,,,,,,,KR_en,001,2025-03-10_20h50.39.797,MainFlow,2024.2.4,143.87847448621088,2025-03-10 20h50.56.910794 +0700,
2,2,88,word/worden0882.png,68,68,0,x,0.9646909000002779,None,0,68,68,68,166.5869719000002,,,,,,,166.5869719000002,166.5869719000002,167.59338989999742,167.5961776999975,167.5961776999975,167.5961776999975,167.5961776999975,168.56750679999823,x,0.9646909000002779,None,,,,,,,,,,KR_en,001,2025-03-10_20h50.39.797,MainFlow,2024.2.4,143.87847448621088,2025-03-10 20h50.56.910794 +0700,
2,2,50,word/worden0502.png,69,69,0,x,0.779690399998799,None,0,69,69,69,168.57279749999725,,,,,,,168.57279749999725,168.57279749999725,169.5889774999996,169.59231609999915,169.59231609999915,169.59231609999915,169.59231609999915,170.3794175999974,x,0.779690399998799,None,,,,,,,,,,KR_en,001,2025-03-10_20h50.39.797,MainFlow,2024.2.4,143.87847448621088,2025-03-10 20h50.56.910794 +0700,
2,3,93,word/worden0933.png,70,70,0,x,0.463845999998739,None,0,70,70,70,170.38489879999906,,,,,,,170.38489879999906,170.38489879999906,171.39193799999703,171.3951257999979,171.3951257999979,171.3951257999979,171.3951257999979,171.86478579999675,x,0.463845999998739,None,,,,,,,,,,KR_en,001,2025-03-10_20h50.39.797,MainFlow,2024.2.4,143.87847448621088,2025-03-10 20h50.56.910794 +0700,
2,1,63,word/worden0631.png,71,71,0,z,0.5833382000018901,None,0,71,71,71,171.87065079999957,,,,,,,171.87065079999957,171.87065079999957,172.875130299999,172.8786231999984,172.8786231999984,172.8786231999984,172.8786231999984,173.46938640000008,z,0.5833382000018901,None,,,,,,,,,,KR_en,001,2025-03-10_20h50.39.797,MainFlow,2024.2.4,143.87847448621088,2025-03-10 20h50.56.910794 +0700,
2,2,7,word/worden0072.png,72,72,0,x,0.43569949999800883,None,0,72,72,72,173.47475169999962,,,,,,,173.47475169999962,173.47475169999962,174.4860888000003,174.48957359999986,174.48957359999986,174.48957359999986,174.48957359999986,174.92800949999946,x,0.43569949999800883,None,,,,,,,,,,KR_en,001,2025-03-10_20h50.39.797,MainFlow,2024.2.4,143.87847448621088,2025-03-10 20h50.56.910794 +0700,
2,2,64,word/worden0642.png,73,73,0,x,0.4795328000000154,None,0,73,73,73,174.93267019999985,,,,,,,174.93267019999985,174.93267019999985,175.9390902999985,175.9422986999998,175.9422986999998,175.9422986999998,175.9422986999998,176.42730349999692,x,0.4795328000000154,None,,,,,,,,,,KR_en,001,2025-03-10_20h50.39.797,MainFlow,2024.2.4,143.87847448621088,2025-03-10 20h50.56.910794 +0700,
2,1,24,word/worden0241.png,74,74,0,z,0.5647841999998491,None,0,74,74,74,176.43241599999965,,,,,,,176.43241599999965,176.43241599999965,177.43724759999895,177.44085049999921,177.44085049999921,177.44085049999921,177.44085049999921,178.01048599999922,z,0.5647841999998491,None,,,,,,,,,,KR_en,001,2025-03-10_20h50.39.797,MainFlow,2024.2.4,143.87847448621088,2025-03-10 20h50.56.910794 +0700,
2,2,1,word/worden0012.png,75,75,0,x,0.4452662000003329,None,0,75,75,75,178.01545799999803,,,,,,,178.01545799999803,178.01545799999803,179.03099259999726,179.03446689999691,179.03446689999691,179.03446689999691,179.03446689999691,179.4822275999977,x,0.4452662000003329,None,,,,,,,,,,KR_en,001,2025-03-10_20h50.39.797,MainFlow,2024.2.4,143.87847448621088,2025-03-10 20h50.56.910794 +0700,
2,1,46,word/worden0461.png,76,76,0,z,0.5410049000020081,None,0,76,76,76,179.48733749999883,,,,,,,179.48733749999883,179.48733749999883,180.50905449999846,180.51251799999955,180.51251799999955,180.51251799999955,180.51251799999955,181.05951639999694,z,0.5410049000020081,None,,,,,,,,,,KR_en,001,2025-03-10_20h50.39.797,MainFlow,2024.2.4,143.87847448621088,2025-03-10 20h50.56.910794 +0700,
2,3,52,word/worden0523.png,77,77,0,x,0.503255600000557,None,0,77,77,77,181.06344719999834,,,,,,,181.06344719999834,181.06344719999834,182.06242849999762,182.0652835999972,182.0652835999972,182.0652835999972,182.0652835999972,182.57244939999873,x,0.503255600000557,None,,,,,,,,,,KR_en,001,2025-03-10_20h50.39.797,MainFlow,2024.2.4,143.87847448621088,2025-03-10 20h50.56.910794 +0700,
2,2,31,word/worden0312.png,78,78,0,x,0.4046563999982027,None,0,78,78,78,182.57702779999818,,,,,,,182.57702779999818,182.57702779999818,183.58536399999866,183.58901159999732,183.58901159999732,183.58901159999732,183.58901159999732,183.9965106999989,x,0.4046563999982027,None,,,,,,,,,,KR_en,001,2025-03-10_20h50.39.797,MainFlow,2024.2.4,143.87847448621088,2025-03-10 20h50.56.910794 +0700,
2,2,95,word/worden0952.png,79,79,0,x,0.7370957000021008,None,0,79,79,79,184.00151019999976,,,,,,,184.00151019999976,184.00151019999976,185.0163453999994,185.01989419999882,185.01989419999882,185.01989419999882,185.01989419999882,185.75959819999844,x,0.7370957000021008,None,,,,,,,,,,KR_en,001,2025-03-10_20h50.39.797,MainFlow,2024.2.4,143.87847448621088,2025-03-10 20h50.56.910794 +0700,
2,1,93,word/worden0931.png,80,80,0,z,0.8685507000009238,None,0,80,80,80,185.76423309999882,,,,,,,185.76423309999882,185.76423309999882,186.7710468999976,186.77430129999993,186.77430129999993,186.77430129999993,186.77430129999993,187.6484599999967,z,0.8685507000009238,None,,,,,,,,,,KR_en,001,2025-03-10_20h50.39.797,MainFlow,2024.2.4,143.87847448621088,2025-03-10 20h50.56.910794 +0700,
2,1,71,word/worden0711.png,81,81,0,z,0.5726755000032426,None,0,81,81,81,187.65334439999788,,,,,,,187.65334439999788,187.65334439999788,188.65016469999682,188.65397139999914,188.65397139999914,188.65397139999914,188.65397139999914,189.23145079999813,z,0.5726755000032426,None,,,,,,,,,,KR_en,001,2025-03-10_20h50.39.797,MainFlow,2024.2.4,143.87847448621088,2025-03-10 20h50.56.910794 +0700,
2,1,48,word/worden0481.png,82,82,0,z,0.5580855000007432,None,0,82,82,82,189.2362562999988,,,,,,,189.2362562999988,189.2362562999988,190.24914669999998,190.25229089999993,190.25229089999993,190.25229089999993,190.25229089999993,190.81330069999967,z,0.5580855000007432,None,,,,,,,,,,KR_en,001,2025-03-10_20h50.39.797,MainFlow,2024.2.4,143.87847448621088,2025-03-10 20h50.56.910794 +0700,
2,1,94,word/worden0941.png,83,83,0,z,0.5541297000017948,None,0,83,83,83,190.81846349999978,,,,,,,190.81846349999978,190.81846349999978,191.82764779999707,191.83107299999756,191.83107299999756,191.83107299999756,191.83107299999756,192.3906042999988,z,0.5541297000017948,None,,,,,,,,,,KR_en,001,2025-03-10_20h50.39.797,MainFlow,2024.2.4,143.87847448621088,2025-03-10 20h50.56.910794 +0700,
2,3,68,word/worden0683.png,84,84,0,x,0.7655328000000736,None,0,84,84,84,192.3963730999967,,,,,,,192.3963730999967,192.3963730999967,193.40938249999817,193.41284249999808,193.41284249999808,193.41284249999808,193.41284249999808,194.18086349999794,x,0.7655328000000736,None,,,,,,,,,,KR_en,001,2025-03-10_20h50.39.797,MainFlow,2024.2.4,143.87847448621088,2025-03-10 20h50.56.910794 +0700,
2,2,66,word/worden0662.png,85,85,0,x,0.6145780999977433,None,0,85,85,85,194.18587879999905,,,,,,,194.18587879999905,194.18587879999905,195.18260839999857,195.18553109999993,195.18553109999993,195.18553109999993,195.18553109999993,195.8052921999988,x,0.6145780999977433,None,,,,,,,,,,KR_en,001,2025-03-10_20h50.39.797,MainFlow,2024.2.4,143.87847448621088,2025-03-10 20h50.56.910794 +0700,
2,3,95,word/worden0953.png,86,86,0,x,0.5648240000009537,None,0,86,86,86,195.81053599999723,,,,,,,195.81053599999723,195.81053599999723,196.82140509999954,196.82491909999953,196.82491909999953,196.82491909999953,196.82491909999953,197.3955919,x,0.5648240000009537,None,,,,,,,,,,KR_en,001,2025-03-10_20h50.39.797,MainFlow,2024.2.4,143.87847448621088,2025-03-10 20h50.56.910794 +0700,
2,3,30,word/worden0303.png,87,87,0,x,0.6930209999991348,None,0,87,87,87,197.40067559999807,,,,,,,197.40067559999807,197.40067559999807,198.41482509999696,198.41819489999762,198.41819489999762,198.41819489999762,198.41819489999762,199.1187710999984,x,0.6930209999991348,None,,,,,,,,,,KR_en,001,2025-03-10_20h50.39.797,MainFlow,2024.2.4,143.87847448621088,2025-03-10 20h50.56.910794 +0700,
2,3,22,word/worden0223.png,88,88,0,x,0.5265975999973307,None,0,88,88,88,199.12228949999917,,,,,,,199.12228949999917,199.12228949999917,200.13638759999958,200.13936029999968,200.13936029999968,200.13936029999968,200.13936029999968,200.67245529999855,x,0.5265975999973307,None,,,,,,,,,,KR_en,001,2025-03-10_20h50.39.797,MainFlow,2024.2.4,143.87847448621088,2025-03-10 20h50.56.910794 +0700,
2,1,75,word/worden0751.png,89,89,0,z,0.6051737000016146,None,0,89,89,89,200.67771960000027,,,,,,,200.67771960000027,200.67771960000027,201.68396099999882,201.68741279999813,201.68741279999813,201.68741279999813,201.68741279999813,202.2970776000002,z,0.6051737000016146,None,,,,,,,,,,KR_en,001,2025-03-10_20h50.39.797,MainFlow,2024.2.4,143.87847448621088,2025-03-10 20h50.56.910794 +0700,
2,1,64,word/worden0641.png,90,90,0,z,0.7522492999996757,None,0,90,90,90,202.30230759999904,,,,,,,202.30230759999904,202.30230759999904,203.31512179999845,203.3185601999976,203.3185601999976,203.3185601999976,203.3185601999976,204.07432359999802,z,0.7522492999996757,None,,,,,,,,,,KR_en,001,2025-03-10_20h50.39.797,MainFlow,2024.2.4,143.87847448621088,2025-03-10 20h50.56.910794 +0700,
2,1,27,word/worden0271.png,91,91,0,z,0.7387538999973913,None,0,91,91,91,204.07970729999943,,,,,,,204.07970729999943,204.07970729999943,205.0939296999968,205.09748109999782,205.09748109999782,205.09748109999782,205.09748109999782,205.83806289999848,z,0.7387538999973913,None,,,,,,,,,,KR_en,001,2025-03-10_20h50.39.797,MainFlow,2024.2.4,143.87847448621088,2025-03-10 20h50.56.910794 +0700,
2,2,24,word/worden0242.png,92,92,0,x,0.599779899999703,None,0,92,92,92,205.8432748999985,,,,,,,205.8432748999985,205.8432748999985,206.8526665999998,206.85609659999682,206.85609659999682,206.85609659999682,206.85609659999682,207.46242309999798,x,0.599779899999703,None,,,,,,,,,,KR_en,001,2025-03-10_20h50.39.797,MainFlow,2024.2.4,143.87847448621088,2025-03-10 20h50.56.910794 +0700,
2,1,87,word/worden0871.png,93,93,0,z,0.774813300002279,None,0,93,93,93,207.46789629999694,,,,,,,207.46789629999694,207.46789629999694,208.47995629999787,208.4831725999975,208.4831725999975,208.4831725999975,208.4831725999975,209.2625115999981,z,0.774813300002279,None,,,,,,,,,,KR_en,001,2025-03-10_20h50.39.797,MainFlow,2024.2.4,143.87847448621088,2025-03-10 20h50.56.910794 +0700,
2,1,7,word/worden0071.png,94,94,0,z,0.5256291000005149,None,0,94,94,94,209.26931489999697,,,,,,,209.26931489999697,209.26931489999697,210.2844858999997,210.28819339999973,210.28819339999973,210.28819339999973,210.28819339999973,210.81655390000014,z,0.5256291000005149,None,,,,,,,,,,KR_en,001,2025-03-10_20h50.39.797,MainFlow,2024.2.4,143.87847448621088,2025-03-10 20h50.56.910794 +0700,
2,2,9,word/worden0092.png,95,95,0,x,0.4568245999980718,None,0,95,95,95,210.82153149999795,,,,,,,210.82153149999795,210.82153149999795,211.82593079999788,211.82913969999936,211.82913969999936,211.82913969999936,211.82913969999936,212.28850469999816,x,0.4568245999980718,None,,,,,,,,,,KR_en,001,2025-03-10_20h50.39.797,MainFlow,2024.2.4,143.87847448621088,2025-03-10 20h50.56.910794 +0700,
2,1,44,word/worden0441.png,96,96,0,z,0.5581319000011717,None,0,96,96,96,212.29359379999732,,,,,,,212.29359379999732,212.29359379999732,213.3031005999983,213.30651539999963,213.30651539999963,213.30651539999963,213.30651539999963,213.87106409999978,z,0.5581319000011717,None,,,,,,,,,,KR_en,001,2025-03-10_20h50.39.797,MainFlow,2024.2.4,143.87847448621088,2025-03-10 20h50.56.910794 +0700,
2,2,10,word/worden0102.png,97,97,0,x,0.5611310000022058,None,0,97,97,97,213.87651939999705,,,,,,,213.87651939999705,213.87651939999705,214.87976309999794,214.88324609999836,214.88324609999836,214.88324609999836,214.88324609999836,215.44744389999687,x,0.5611310000022058,None,,,,,,,,,,KR_en,001,2025-03-10_20h50.39.797,MainFlow,2024.2.4,143.87847448621088,2025-03-10 20h50.56.910794 +0700,
2,2,82,word/worden0822.png,98,98,0,x,1.448750999999902,None,0,98,98,98,215.45258999999714,,,,,,,215.45258999999714,215.45258999999714,216.465479399998,216.46904299999733,216.46904299999733,216.46904299999733,216.46904299999733,217.91911419999815,x,1.448750999999902,None,,,,,,,,,,KR_en,001,2025-03-10_20h50.39.797,MainFlow,2024.2.4,143.87847448621088,2025-03-10 20h50.56.910794 +0700,
2,3,89,word/worden0893.png,99,99,0,x,0.616522200001782,None,0,99,99,99,217.92432629999894,,,,,,,217.92432629999894,217.92432629999894,218.9393949999976,218.94287039999836,218.94287039999836,218.94287039999836,218.94287039999836,219.5644214999993,x,0.616522200001782,None,,,,,,,,,,KR_en,001,2025-03-10_20h50.39.797,MainFlow,2024.2.4,143.87847448621088,2025-03-10 20h50.56.910794 +0700,
2,2,44,word/worden0442.png,100,100,0,x,0.4623217999978806,None,0,100,100,100,219.56986939999842,,,,,,,219.56986939999842,219.56986939999842,220.57700399999885,220.58027479999873,220.58027479999873,220.58027479999873,220.58027479999873,221.04534099999728,x,0.4623217999978806,None,,,,,,,,,,KR_en,001,2025-03-10_20h50.39.797,MainFlow,2024.2.4,143.87847448621088,2025-03-10 20h50.56.910794 +0700,
2,1,52,word/worden0521.png,101,101,0,z,0.5694278000009945,None,0,101,101,101,221.05104239999855,,,,,,,221.05104239999855,221.05104239999855,222.07047450000027,222.07380600000033,222.07380600000033,222.07380600000033,222.07380600000033,222.64898719999837,z,0.5694278000009945,None,222.07380600000033,222.07380600000033,,,,,,,,KR_en,001,2025-03-10_20h50.39.797,MainFlow,2024.2.4,143.87847448621088,2025-03-10 20h50.56.910794 +0700,
2,1,51,word/worden0511.png,102,102,0,z,0.6034681999990426,None,0,102,102,102,222.65507929999876,,,,,,,222.65507929999876,222.65507929999876,223.66489999999976,223.66838149999967,223.66838149999967,223.66838149999967,223.66838149999967,224.27895809999973,z,0.6034681999990426,None,,,,,,,,,,KR_en,001,2025-03-10_20h50.39.797,MainFlow,2024.2.4,143.87847448621088,2025-03-10 20h50.56.910794 +0700,
2,3,51,word/worden0513.png,103,103,0,x,0.8567070999997668,None,0,103,103,103,224.28419479999866,,,,,,,224.28419479999866,224.28419479999866,225.2907935000003,225.29403209999873,225.29403209999873,225.29403209999873,225.29403209999873,226.1529335999985,x,0.8567070999997668,None,,,,,,,,,,KR_en,001,2025-03-10_20h50.39.797,MainFlow,2024.2.4,143.87847448621088,2025-03-10 20h50.56.910794 +0700,
2,2,8,word/worden0082.png,104,104,0,x,0.49039519999860204,None,0,104,104,104,226.1587615999997,,,,,,,226.1587615999997,226.1587615999997,227.1720908999996,227.17538909999712,227.17538909999712,227.17538909999712,227.17538909999712,227.66797059999953,x,0.49039519999860204,None,,,,,,,,,,KR_en,001,2025-03-10_20h50.39.797,MainFlow,2024.2.4,143.87847448621088,2025-03-10 20h50.56.910794 +0700,
2,2,3,word/worden0032.png,105,105,0,x,0.48104740000053425,None,0,105,105,105,227.6724617999971,,,,,,,227.6724617999971,227.6724617999971,228.68831719999798,228.69169729999703,228.69169729999703,228.69169729999703,228.69169729999703,229.17438649999895,x,0.48104740000053425,None,,,,,,,,,,KR_en,001,2025-03-10_20h50.39.797,MainFlow,2024.2.4,143.87847448621088,2025-03-10 20h50.56.910794 +0700,
2,3,3,word/worden0033.png,106,106,0,x,0.4900871999998344,None,0,106,106,106,229.1793121999981,,,,,,,229.1793121999981,229.1793121999981,230.193327099998,230.19660159999694,230.19660159999694,230.19660159999694,230.19660159999694,230.69406069999968,x,0.4900871999998344,None,,,,,,,,,,KR_en,001,2025-03-10_20h50.39.797,MainFlow,2024.2.4,143.87847448621088,2025-03-10 20h50.56.910794 +0700,
2,3,64,word/worden0643.png,107,107,0,x,0.7491857999993954,None,0,107,107,107,230.69964509999772,,,,,,,230.69964509999772,230.69964509999772,231.71835479999936,231.7222600999994,231.7222600999994,231.7222600999994,231.7222600999994,232.4742229000003,x,0.7491857999993954,None,,,,,,,,,,KR_en,001,2025-03-10_20h50.39.797,MainFlow,2024.2.4,143.87847448621088,2025-03-10 20h50.56.910794 +0700,
2,3,26,word/worden0263.png,108,108,0,x,0.38545719999819994,None,0,108,108,108,232.47992159999922,,,,,,,232.47992159999922,232.47992159999922,233.50521599999774,233.50871170000028,233.50871170000028,233.50871170000028,233.50871170000028,233.8965821999991,x,0.38545719999819994,None,233.50871170000028,233.50871170000028,,,,,,,,KR_en,001,2025-03-10_20h50.39.797,MainFlow,2024.2.4,143.87847448621088,2025-03-10 20h50.56.910794 +0700,
2,2,96,word/worden0962.png,109,109,0,x,0.49163729999781935,None,0,109,109,109,233.90236409999852,,,,,,,233.90236409999852,233.90236409999852,234.9084613999985,234.91147139999885,234.91147139999885,234.91147139999885,234.91147139999885,235.40912860000026,x,0.49163729999781935,None,,,,,,,,,,KR_en,001,2025-03-10_20h50.39.797,MainFlow,2024.2.4,143.87847448621088,2025-03-10 20h50.56.910794 +0700,
2,1,22,word/worden0221.png,110,110,0,z,0.4806462999986252,None,0,110,110,110,235.41400689999864,,,,,,,235.41400689999864,235.41400689999864,236.43005139999877,236.4333923999984,236.4333923999984,236.4333923999984,236.4333923999984,236.9155830999989,z,0.4806462999986252,None,,,,,,,,,,KR_en,001,2025-03-10_20h50.39.797,MainFlow,2024.2.4,143.87847448621088,2025-03-10 20h50.56.910794 +0700,
2,2,22,word/worden0222.png,111,111,0,x,0.3888093999994453,None,0,111,111,111,236.92075379999733,,,,,,,236.92075379999733,236.92075379999733,237.93357209999886,237.93636289999995,237.93636289999995,237.93636289999995,237.93636289999995,238.33153559999846,x,0.3888093999994453,None,,,,,,,,,,KR_en,001,2025-03-10_20h50.39.797,MainFlow,2024.2.4,143.87847448621088,2025-03-10 20h50.56.910794 +0700,
2,2,26,word/worden0262.png,112,112,0,x,0.45194810000248253,None,0,112,112,112,238.33717889999753,,,,,,,238.33717889999753,238.33717889999753,239.35287479999897,239.35633450000023,239.35633450000023,239.35633450000023,239.35633450000023,239.81064329999936,x,0.45194810000248253,None,,,,,,,,,,KR_en,001,2025-03-10_20h50.39.797,MainFlow,2024.2.4,143.87847448621088,2025-03-10 20h50.56.910794 +0700,
2,3,48,word/worden0483.png,113,113,0,x,0.8023933000004035,None,0,113,113,113,239.81610379999984,,,,,,,239.81610379999984,239.81610379999984,240.82362730000023,240.82698809999783,240.82698809999783,240.82698809999783,240.82698809999783,241.63744640000004,x,0.8023933000004035,None,,,,,,,,,,KR_en,001,2025-03-10_20h50.39.797,MainFlow,2024.2.4,143.87847448621088,2025-03-10 20h50.56.910794 +0700,
2,2,87,word/worden0872.png,114,114,0,x,0.4785126999995555,None,0,114,114,114,241.6426623999978,,,,,,,241.6426623999978,241.6426623999978,242.64931839999917,242.6527970999996,242.6527970999996,242.6527970999996,242.6527970999996,243.1359498999991,x,0.4785126999995555,None,,,,,,,,,,KR_en,001,2025-03-10_20h50.39.797,MainFlow,2024.2.4,143.87847448621088,2025-03-10 20h50.56.910794 +0700,
2,1,10,word/worden0101.png,115,115,0,z,0.5194475999996939,None,0,115,115,115,243.1422332000002,,,,,,,243.1422332000002,243.1422332000002,244.14930359999926,244.15277269999933,244.15277269999933,244.15277269999933,244.15277269999933,244.67798760000005,z,0.5194475999996939,None,,,,,,,,,,KR_en,001,2025-03-10_20h50.39.797,MainFlow,2024.2.4,143.87847448621088,2025-03-10 20h50.56.910794 +0700,
2,3,8,word/worden0083.png,116,116,0,x,0.5157863999993424,None,0,116,116,116,244.6831392999993,,,,,,,244.6831392999993,244.6831392999993,245.6841776000001,245.68699229999766,245.68699229999766,245.68699229999766,245.68699229999766,246.20649879999837,x,0.5157863999993424,None,,,,,,,,,,KR_en,001,2025-03-10_20h50.39.797,MainFlow,2024.2.4,143.87847448621088,2025-03-10 20h50.56.910794 +0700,
2,3,94,word/worden0943.png,117,117,0,x,0.4284527999989223,None,0,117,117,117,246.21166769999763,,,,,,,246.21166769999763,246.21166769999763,247.22223239999948,247.22576429999754,247.22576429999754,247.22576429999754,247.22576429999754,247.6564531999975,x,0.4284527999989223,None,,,,,,,,,,KR_en,001,2025-03-10_20h50.39.797,MainFlow,2024.2.4,143.87847448621088,2025-03-10 20h50.56.910794 +0700,
2,2,11,word/worden0112.png,118,118,0,x,0.35228750000169384,None,0,118,118,118,247.66145089999918,,,,,,,247.66145089999918,247.66145089999918,248.6696708999989,248.67325999999957,248.67325999999957,248.67325999999957,248.67325999999957,249.03096430000005,x,0.35228750000169384,None,,,,,,,,,,KR_en,001,2025-03-10_20h50.39.797,MainFlow,2024.2.4,143.87847448621088,2025-03-10 20h50.56.910794 +0700,
2,3,24,word/worden0243.png,119,119,0,x,0.5968912999996974,None,0,119,119,119,249.03646089999893,,,,,,,249.03646089999893,249.03646089999893,250.04396669999915,250.04736599999887,250.04736599999887,250.04736599999887,250.04736599999887,250.64907319999838,x,0.5968912999996974,None,,,,,,,,,,KR_en,001,2025-03-10_20h50.39.797,MainFlow,2024.2.4,143.87847448621088,2025-03-10 20h50.56.910794 +0700,
,,,,,,,,,,,,,,,,,,,,,,,,,,,,,,,,,,250.64927289999832,250.65406369999982,250.65406369999982,262.431468499999,space,11.775746899998921,None,KR_en,001,2025-03-10_20h50.39.797,MainFlow,2024.2.4,143.87847448621088,2025-03-10 20h50.56.910794 +0700,
