lang,stimuli,imageid,worddir,thisN,thisTrialN,thisRepN,key_resp.keys,key_resp.rt,key_resp.duration,trials.thisRepN,trials.thisTrialN,trials.thisN,trials.thisIndex,thisRow.t,notes,tutorial.started,tutorial.stopped,key_instruct.keys,key_instruct.rt,key_instruct.duration,instructblank.started,cross1.started,letterselect.started,imageword.started,text_2.started,cross2.started,key_resp.started,letterselect.stopped,trials.key_resp.keys,trials.key_resp.rt,trials.key_resp.duration,instructblank.stopped,cross1.stopped,ending.started,text_3.started,ending_key.started,ending.stopped,ending_key.keys,ending_key.rt,ending_key.duration,participant,session,date,expName,psychopyVersion,frameRate,expStart,
,,,,,,,,,,,,,,,,0.0029943999979877844,21.363730499997473,space,21.263362199999392,None,,,,,,,,,,,,,,,,,,,,,KR_th,001,2025-03-10_20h45.57.369,MainFlow,2024.2.4,141.50836597891663,2025-03-10 20h46.23.078216 +0700,
1,3,89,word/wordth0893.png,0,0,0,x,0.6090282999975898,None,0,0,0,0,21.393989799998963,,,,,,,21.393989799998963,21.393989799998963,22.395016499998746,22.419530700000905,22.419530700000905,22.419530700000905,22.419530700000905,23.03392239999812,x,0.6090282999975898,None,,,,,,,,,,KR_th,001,2025-03-10_20h45.57.369,MainFlow,2024.2.4,141.50836597891663,2025-03-10 20h46.23.078216 +0700,
1,3,28,word/wordth0283.png,1,1,0,x,0.5647031000007701,None,0,1,1,1,23.038738100000046,,,,,,,23.038738100000046,23.038738100000046,24.054210700000112,24.057570299999497,24.057570299999497,24.057570299999497,24.057570299999497,24.623684199999843,x,0.5647031000007701,None,,,,,,,,,,KR_th,001,2025-03-10_20h45.57.369,MainFlow,2024.2.4,141.50836597891663,2025-03-10 20h46.23.078216 +0700,
1,2,87,word/wordth0872.png,2,2,0,x,0.4300038000001223,None,0,2,2,2,24.62883259999944,,,,,,,24.62883259999944,24.62883259999944,25.636551999999938,25.639435699999012,25.639435699999012,25.639435699999012,25.639435699999012,26.075132800000574,x,0.4300038000001223,None,,,,,,,,,,KR_th,001,2025-03-10_20h45.57.369,MainFlow,2024.2.4,141.50836597891663,2025-03-10 20h46.23.078216 +0700,
1,2,68,word/wordth0682.png,3,3,0,x,0.47451600000204053,None,0,3,3,3,26.07970690000002,,,,,,,26.07970690000002,26.07970690000002,27.084271399999125,27.087918599998375,27.087918599998375,27.087918599998375,27.087918599998375,27.56808589999855,x,0.47451600000204053,None,,,,,,,,,,KR_th,001,2025-03-10_20h45.57.369,MainFlow,2024.2.4,141.50836597891663,2025-03-10 20h46.23.078216 +0700,
1,2,11,word/wordth0112.png,4,4,0,x,0.519781700000749,None,0,4,4,4,27.57260210000095,,,,,,,27.57260210000095,27.57260210000095,28.582756899999367,28.586473600000318,28.586473600000318,28.586473600000318,28.586473600000318,29.108714499998314,x,0.519781700000749,None,,,,,,,,,,KR_th,001,2025-03-10_20h45.57.369,MainFlow,2024.2.4,141.50836597891663,2025-03-10 20h46.23.078216 +0700,
1,3,11,word/wordth0113.png,5,5,0,x,0.634087600003113,None,0,5,5,5,29.113829399997485,,,,,,,29.113829399997485,29.113829399997485,30.132111299997632,30.135788100000354,30.135788100000354,30.135788100000354,30.135788100000354,30.77508179999859,x,0.634087600003113,None,,,,,,,,,,KR_th,001,2025-03-10_20h45.57.369,MainFlow,2024.2.4,141.50836597891663,2025-03-10 20h46.23.078216 +0700,
1,2,71,word/wordth0712.png,6,6,0,x,0.4555681999991066,None,0,6,6,6,30.78036670000074,,,,,,,30.78036670000074,30.78036670000074,31.795915299997432,31.799213599999348,31.799213599999348,31.799213599999348,31.799213599999348,32.26075479999781,x,0.4555681999991066,None,,,,,,,,,,KR_th,001,2025-03-10_20h45.57.369,MainFlow,2024.2.4,141.50836597891663,2025-03-10 20h46.23.078216 +0700,
1,3,44,word/wordth0443.png,7,7,0,x,0.7443444000018644,None,0,7,7,7,32.2660821999998,,,,,,,32.2660821999998,32.2660821999998,33.27865109999766,33.28185339999982,33.28185339999982,33.28185339999982,33.28185339999982,34.031725599998026,x,0.7443444000018644,None,,,,,,,,,,KR_th,001,2025-03-10_20h45.57.369,MainFlow,2024.2.4,141.50836597891663,2025-03-10 20h46.23.078216 +0700,
1,2,82,word/wordth0822.png,8,8,0,x,0.4861354000022402,None,0,8,8,8,34.03647769999952,,,,,,,34.03647769999952,34.03647769999952,35.047334499999124,35.05094499999905,35.05094499999905,35.05094499999905,35.05094499999905,35.538425700000516,x,0.4861354000022402,None,,,,,,,,,,KR_th,001,2025-03-10_20h45.57.369,MainFlow,2024.2.4,141.50836597891663,2025-03-10 20h46.23.078216 +0700,
1,2,28,word/wordth0282.png,9,9,0,x,0.4634799999985262,None,0,9,9,9,35.54317739999897,,,,,,,35.54317739999897,35.54317739999897,36.55921490000037,36.562688300000445,36.562688300000445,36.562688300000445,36.562688300000445,37.0312606999978,x,0.4634799999985262,None,,,,,,,,,,KR_th,001,2025-03-10_20h45.57.369,MainFlow,2024.2.4,141.50836597891663,2025-03-10 20h46.23.078216 +0700,
1,1,23,word/wordth0231.png,10,10,0,x,0.7147151999997732,None,0,10,10,10,37.035900399998354,,,,,,,37.035900399998354,37.035900399998354,38.0503893999994,38.05388390000007,38.05388390000007,38.05388390000007,38.05388390000007,38.77437049999935,x,0.7147151999997732,None,,,,,,,,,,KR_th,001,2025-03-10_20h45.57.369,MainFlow,2024.2.4,141.50836597891663,2025-03-10 20h46.23.078216 +0700,
1,2,63,word/wordth0632.png,11,11,0,x,0.6904619000015373,None,0,11,11,11,38.77849889999925,,,,,,,38.77849889999925,38.77849889999925,39.7864316999985,39.78945439999734,39.78945439999734,39.78945439999734,39.78945439999734,40.48140499999863,x,0.6904619000015373,None,,,,,,,,,,KR_th,001,2025-03-10_20h45.57.369,MainFlow,2024.2.4,141.50836597891663,2025-03-10 20h46.23.078216 +0700,
1,3,71,word/wordth0713.png,12,12,0,x,0.4289285999984713,None,0,12,12,12,40.48670729999867,,,,,,,40.48670729999867,40.48670729999867,41.49097020000045,41.49409269999887,41.49409269999887,41.49409269999887,41.49409269999887,41.92631459999757,x,0.4289285999984713,None,,,,,,,,,,KR_th,001,2025-03-10_20h45.57.369,MainFlow,2024.2.4,141.50836597891663,2025-03-10 20h46.23.078216 +0700,
1,1,1,word/wordth0011.png,13,13,0,z,0.4248433000029763,None,0,13,13,13,41.93077279999852,,,,,,,41.93077279999852,41.93077279999852,42.941075899998395,42.94424209999852,42.94424209999852,42.94424209999852,42.94424209999852,43.376262800000404,z,0.4248433000029763,None,,,,,,,,,,KR_th,001,2025-03-10_20h45.57.369,MainFlow,2024.2.4,141.50836597891663,2025-03-10 20h46.23.078216 +0700,
1,3,41,word/wordth0413.png,14,14,0,x,0.4110986000014236,None,0,14,14,14,43.38185879999946,,,,,,,43.38185879999946,43.38185879999946,44.391726399997424,44.395418599997356,44.395418599997356,44.395418599997356,44.395418599997356,44.80886090000058,x,0.4110986000014236,None,,,,,,,,,,KR_th,001,2025-03-10_20h45.57.369,MainFlow,2024.2.4,141.50836597891663,2025-03-10 20h46.23.078216 +0700,
1,2,64,word/wordth0642.png,15,15,0,x,0.474741099998937,None,0,15,15,15,44.81486009999935,,,,,,,44.81486009999935,44.81486009999935,45.826247400000284,45.82959159999882,45.82959159999882,45.82959159999882,45.82959159999882,46.307141799999954,x,0.474741099998937,None,45.82959159999882,45.82959159999882,,,,,,,,KR_th,001,2025-03-10_20h45.57.369,MainFlow,2024.2.4,141.50836597891663,2025-03-10 20h46.23.078216 +0700,
1,3,6,word/wordth0063.png,16,16,0,x,0.4503383999981452,None,0,16,16,16,46.31191050000052,,,,,,,46.31191050000052,46.31191050000052,47.320112999997946,47.32299499999863,47.32299499999863,47.32299499999863,47.32299499999863,47.778684000000794,x,0.4503383999981452,None,,,,,,,,,,KR_th,001,2025-03-10_20h45.57.369,MainFlow,2024.2.4,141.50836597891663,2025-03-10 20h46.23.078216 +0700,
1,2,31,word/wordth0312.png,17,17,0,x,0.42993489999935264,None,0,17,17,17,47.783869399998366,,,,,,,47.783869399998366,47.783869399998366,48.79680829999779,48.80061790000036,48.80061790000036,48.80061790000036,48.80061790000036,49.23780629999965,x,0.42993489999935264,None,,,,,,,,,,KR_th,001,2025-03-10_20h45.57.369,MainFlow,2024.2.4,141.50836597891663,2025-03-10 20h46.23.078216 +0700,
1,1,46,word/wordth0461.png,18,18,0,z,0.5326544999988982,None,0,18,18,18,49.24174889999995,,,,,,,49.24174889999995,49.24174889999995,50.25427359999958,50.25768849999804,50.25768849999804,50.25768849999804,50.25768849999804,50.793336999999156,z,0.5326544999988982,None,,,,,,,,,,KR_th,001,2025-03-10_20h45.57.369,MainFlow,2024.2.4,141.50836597891663,2025-03-10 20h46.23.078216 +0700,
1,3,51,word/wordth0513.png,19,19,0,x,0.5149289000000863,None,0,19,19,19,50.799150399998325,,,,,,,50.799150399998325,50.799150399998325,51.80524969999897,51.808283200000005,51.808283200000005,51.808283200000005,51.808283200000005,52.32715969999845,x,0.5149289000000863,None,,,,,,,,,,KR_th,001,2025-03-10_20h45.57.369,MainFlow,2024.2.4,141.50836597891663,2025-03-10 20h46.23.078216 +0700,
1,2,26,word/wordth0262.png,20,20,0,x,0.443900999998732,None,0,20,20,20,52.33210929999768,,,,,,,52.33210929999768,52.33210929999768,53.34403739999834,53.34748949999994,53.34748949999994,53.34748949999994,53.34748949999994,53.797728199999256,x,0.443900999998732,None,,,,,,,,,,KR_th,001,2025-03-10_20h45.57.369,MainFlow,2024.2.4,141.50836597891663,2025-03-10 20h46.23.078216 +0700,
1,2,96,word/wordth0962.png,21,21,0,x,0.4420671999978367,None,0,21,21,21,53.80336579999857,,,,,,,53.80336579999857,53.80336579999857,54.809555399999226,54.812377899997955,54.812377899997955,54.812377899997955,54.812377899997955,55.25779809999949,x,0.4420671999978367,None,,,,,,,,,,KR_th,001,2025-03-10_20h45.57.369,MainFlow,2024.2.4,141.50836597891663,2025-03-10 20h46.23.078216 +0700,
1,1,31,word/wordth0311.png,22,22,0,z,0.5413741000011214,None,0,22,22,22,55.262185399999,,,,,,,55.262185399999,55.262185399999,56.27216209999824,56.27584469999783,56.27584469999783,56.27584469999783,56.27584469999783,56.81973529999959,z,0.5413741000011214,None,,,,,,,,,,KR_th,001,2025-03-10_20h45.57.369,MainFlow,2024.2.4,141.50836597891663,2025-03-10 20h46.23.078216 +0700,
1,2,94,word/wordth0942.png,23,23,0,x,0.6991121000028215,None,0,23,23,23,56.823975499999506,,,,,,,56.823975499999506,56.823975499999506,57.83304599999974,57.836452100000315,57.836452100000315,57.836452100000315,57.836452100000315,58.54036659999838,x,0.6991121000028215,None,,,,,,,,,,KR_th,001,2025-03-10_20h45.57.369,MainFlow,2024.2.4,141.50836597891663,2025-03-10 20h46.23.078216 +0700,
1,3,48,word/wordth0483.png,24,24,0,x,0.44453579999753856,None,0,24,24,24,58.545579599998746,,,,,,,58.545579599998746,58.545579599998746,59.55962680000084,59.56302180000057,59.56302180000057,59.56302180000057,59.56302180000057,60.01177280000047,x,0.44453579999753856,None,,,,,,,,,,KR_th,001,2025-03-10_20h45.57.369,MainFlow,2024.2.4,141.50836597891663,2025-03-10 20h46.23.078216 +0700,
1,3,24,word/wordth0243.png,25,25,0,x,0.47488739999971585,None,0,25,25,25,60.0175765999993,,,,,,,60.0175765999993,60.0175765999993,61.03253760000007,61.03573959999994,61.03573959999994,61.03573959999994,61.03573959999994,61.512325199997576,x,0.47488739999971585,None,,,,,,,,,,KR_th,001,2025-03-10_20h45.57.369,MainFlow,2024.2.4,141.50836597891663,2025-03-10 20h46.23.078216 +0700,
1,1,87,word/wordth0871.png,26,26,0,z,0.5884690999992017,None,0,26,26,26,61.51726309999867,,,,,,,61.51726309999867,61.51726309999867,62.53334679999898,62.53671349999786,62.53671349999786,62.53671349999786,62.53671349999786,63.12929399999848,z,0.5884690999992017,None,,,,,,,,,,KR_th,001,2025-03-10_20h45.57.369,MainFlow,2024.2.4,141.50836597891663,2025-03-10 20h46.23.078216 +0700,
1,2,51,word/wordth0512.png,27,27,0,z,0.5840551000001142,None,0,27,27,27,63.13497129999814,,,,,,,63.13497129999814,63.13497129999814,64.13300139999774,64.13606620000064,64.13606620000064,64.13606620000064,64.13606620000064,64.72742119999748,z,0.5840551000001142,None,,,,,,,,,,KR_th,001,2025-03-10_20h45.57.369,MainFlow,2024.2.4,141.50836597891663,2025-03-10 20h46.23.078216 +0700,
1,3,27,word/wordth0273.png,28,28,0,x,0.47105870000086725,None,0,28,28,28,64.7320613999982,,,,,,,64.7320613999982,64.7320613999982,65.73126209999828,65.7340669999976,65.7340669999976,65.7340669999976,65.7340669999976,66.21225559999948,x,0.47105870000086725,None,,,,,,,,,,KR_th,001,2025-03-10_20h45.57.369,MainFlow,2024.2.4,141.50836597891663,2025-03-10 20h46.23.078216 +0700,
1,2,22,word/wordth0222.png,29,29,0,x,0.40883450000183075,None,0,29,29,29,66.2176217999986,,,,,,,66.2176217999986,66.2176217999986,67.2265026999994,67.22939109999788,67.22939109999788,67.22939109999788,67.22939109999788,67.64248909999878,x,0.40883450000183075,None,,,,,,,,,,KR_th,001,2025-03-10_20h45.57.369,MainFlow,2024.2.4,141.50836597891663,2025-03-10 20h46.23.078216 +0700,
1,3,23,word/wordth0233.png,30,30,0,x,0.46728559999974095,None,0,30,30,30,67.64798940000037,,,,,,,67.64798940000037,67.64798940000037,68.65827349999745,68.66188649999822,68.66188649999822,68.66188649999822,68.66188649999822,69.13526229999843,x,0.46728559999974095,None,,,,,,,,,,KR_th,001,2025-03-10_20h45.57.369,MainFlow,2024.2.4,141.50836597891663,2025-03-10 20h46.23.078216 +0700,
1,1,48,word/wordth0481.png,31,31,0,x,0.32987190000130795,None,0,31,31,31,69.14071139999942,,,,,,,69.14071139999942,69.14071139999942,70.16037379999761,70.16363769999953,70.16363769999953,70.16363769999953,70.16363769999953,70.49575859999823,x,0.32987190000130795,None,,,,,,,,,,KR_th,001,2025-03-10_20h45.57.369,MainFlow,2024.2.4,141.50836597891663,2025-03-10 20h46.23.078216 +0700,
1,2,10,word/wordth0102.png,32,32,0,x,0.7044076000020141,None,0,32,32,32,70.5015319999984,,,,,,,70.5015319999984,70.5015319999984,71.51833419999821,71.521546699998,71.521546699998,71.521546699998,71.521546699998,72.23368889999983,x,0.7044076000020141,None,,,,,,,,,,KR_th,001,2025-03-10_20h45.57.369,MainFlow,2024.2.4,141.50836597891663,2025-03-10 20h46.23.078216 +0700,
1,3,64,word/wordth0643.png,33,33,0,x,1.0632800999992469,None,0,33,33,33,72.23994590000075,,,,,,,72.23994590000075,72.23994590000075,73.25146849999874,73.25513219999993,73.25513219999993,73.25513219999993,73.25513219999993,74.32320009999967,x,1.0632800999992469,None,,,,,,,,,,KR_th,001,2025-03-10_20h45.57.369,MainFlow,2024.2.4,141.50836597891663,2025-03-10 20h46.23.078216 +0700,
1,3,22,word/wordth0223.png,34,34,0,x,0.76164240000071,None,0,34,34,34,74.32945879999897,,,,,,,74.32945879999897,74.32945879999897,75.35241029999816,75.35587949999899,75.35587949999899,75.35587949999899,75.35587949999899,76.12031229999775,x,0.76164240000071,None,,,,,,,,,,KR_th,001,2025-03-10_20h45.57.369,MainFlow,2024.2.4,141.50836597891663,2025-03-10 20h46.23.078216 +0700,
1,1,42,word/wordth0421.png,35,35,0,z,0.7515626000022166,None,0,35,35,35,76.12557089999973,,,,,,,76.12557089999973,76.12557089999973,77.13324590000047,77.13625369999863,77.13625369999863,77.13625369999863,77.13625369999863,77.89139019999857,z,0.7515626000022166,None,,,,,,,,,,KR_th,001,2025-03-10_20h45.57.369,MainFlow,2024.2.4,141.50836597891663,2025-03-10 20h46.23.078216 +0700,
1,2,1,word/wordth0012.png,36,36,0,x,0.858123500001966,None,0,36,36,36,77.89614710000023,,,,,,,77.89614710000023,77.89614710000023,78.89491400000043,78.89771189999738,78.89771189999738,78.89771189999738,78.89771189999738,79.75899700000082,x,0.858123500001966,None,,,,,,,,,,KR_th,001,2025-03-10_20h45.57.369,MainFlow,2024.2.4,141.50836597891663,2025-03-10 20h46.23.078216 +0700,
1,1,82,word/wordth0821.png,37,37,0,z,0.6545747999989544,None,0,37,37,37,79.76379739999902,,,,,,,79.76379739999902,79.76379739999902,80.76961709999887,80.77280880000035,80.77280880000035,80.77280880000035,80.77280880000035,81.43226519999735,z,0.6545747999989544,None,,,,,,,,,,KR_th,001,2025-03-10_20h45.57.369,MainFlow,2024.2.4,141.50836597891663,2025-03-10 20h46.23.078216 +0700,
1,2,3,word/wordth0032.png,38,38,0,x,0.5083776999999827,None,0,38,38,38,81.43700030000036,,,,,,,81.43700030000036,81.43700030000036,82.44232869999905,82.44587200000024,82.44587200000024,82.44587200000024,82.44587200000024,82.96024319999924,x,0.5083776999999827,None,,,,,,,,,,KR_th,001,2025-03-10_20h45.57.369,MainFlow,2024.2.4,141.50836597891663,2025-03-10 20h46.23.078216 +0700,
1,1,68,word/wordth0681.png,39,39,0,z,0.48255730000164476,None,0,39,39,39,82.96611320000011,,,,,,,82.96611320000011,82.96611320000011,83.97179879999749,83.97471279999809,83.97471279999809,83.97471279999809,83.97471279999809,84.45927799999845,z,0.48255730000164476,None,,,,,,,,,,KR_th,001,2025-03-10_20h45.57.369,MainFlow,2024.2.4,141.50836597891663,2025-03-10 20h46.23.078216 +0700,
1,1,66,word/wordth0661.png,40,40,0,z,0.5906123999993724,None,0,40,40,40,84.46427059999769,,,,,,,84.46427059999769,84.46427059999769,85.4685204999987,85.47158959999797,85.47158959999797,85.47158959999797,85.47158959999797,86.06965919999857,z,0.5906123999993724,None,,,,,,,,,,KR_th,001,2025-03-10_20h45.57.369,MainFlow,2024.2.4,141.50836597891663,2025-03-10 20h46.23.078216 +0700,
1,2,42,word/wordth0422.png,41,41,0,x,0.5160790999980236,None,0,41,41,41,86.07485769999766,,,,,,,86.07485769999766,86.07485769999766,87.08552229999987,87.08877980000034,87.08877980000034,87.08877980000034,87.08877980000034,87.61175999999978,x,0.5160790999980236,None,,,,,,,,,,KR_th,001,2025-03-10_20h45.57.369,MainFlow,2024.2.4,141.50836597891663,2025-03-10 20h46.23.078216 +0700,
1,3,93,word/wordth0933.png,42,42,0,x,0.47396999999909895,None,0,42,42,42,87.61643899999763,,,,,,,87.61643899999763,87.61643899999763,88.63050379999913,88.6339040999992,88.6339040999992,88.6339040999992,88.6339040999992,89.11285239999779,x,0.47396999999909895,None,,,,,,,,,,KR_th,001,2025-03-10_20h45.57.369,MainFlow,2024.2.4,141.50836597891663,2025-03-10 20h46.23.078216 +0700,
1,1,71,word/wordth0711.png,43,43,0,z,0.5185834000003524,None,0,43,43,43,89.11848810000083,,,,,,,89.11848810000083,89.11848810000083,90.14330649999829,90.14691689999745,90.14691689999745,90.14691689999745,90.14691689999745,90.67233959999794,z,0.5185834000003524,None,90.14691689999745,90.14691689999745,,,,,,,,KR_th,001,2025-03-10_20h45.57.369,MainFlow,2024.2.4,141.50836597891663,2025-03-10 20h46.23.078216 +0700,
1,1,64,word/wordth0641.png,44,44,0,x,0.481917599998269,None,0,44,44,44,90.67828159999772,,,,,,,90.67828159999772,90.67828159999772,91.68426510000063,91.687677599999,91.687677599999,91.687677599999,91.687677599999,92.1731226999982,x,0.481917599998269,None,,,,,,,,,,KR_th,001,2025-03-10_20h45.57.369,MainFlow,2024.2.4,141.50836597891663,2025-03-10 20h46.23.078216 +0700,
1,1,88,word/wordth0881.png,45,45,0,z,0.5549245000001974,None,0,45,45,45,92.17809099999795,,,,,,,92.17809099999795,92.17809099999795,93.18464749999839,93.18780829999741,93.18780829999741,93.18780829999741,93.18780829999741,93.74951009999859,z,0.5549245000001974,None,,,,,,,,,,KR_th,001,2025-03-10_20h45.57.369,MainFlow,2024.2.4,141.50836597891663,2025-03-10 20h46.23.078216 +0700,
1,3,87,word/wordth0873.png,46,46,0,x,0.7026745000002848,None,0,46,46,46,93.7540525000004,,,,,,,93.7540525000004,93.7540525000004,94.76554989999931,94.76905569999872,94.76905569999872,94.76905569999872,94.76905569999872,95.47772729999997,x,0.7026745000002848,None,,,,,,,,,,KR_th,001,2025-03-10_20h45.57.369,MainFlow,2024.2.4,141.50836597891663,2025-03-10 20h46.23.078216 +0700,
1,3,3,word/wordth0033.png,47,47,0,x,0.6459231000008003,None,0,47,47,47,95.48291419999805,,,,,,,95.48291419999805,95.48291419999805,96.4893822999984,96.49238809999952,96.49238809999952,96.49238809999952,96.49238809999952,97.14421939999738,x,0.6459231000008003,None,,,,,,,,,,KR_th,001,2025-03-10_20h45.57.369,MainFlow,2024.2.4,141.50836597891663,2025-03-10 20h46.23.078216 +0700,
1,2,95,word/wordth0952.png,48,48,0,x,0.5078219999995781,None,0,48,48,48,97.14917369999966,,,,,,,97.14917369999966,97.14917369999966,98.15793239999766,98.16146689999732,98.16146689999732,98.16146689999732,98.16146689999732,98.67263459999958,x,0.5078219999995781,None,,,,,,,,,,KR_th,001,2025-03-10_20h45.57.369,MainFlow,2024.2.4,141.50836597891663,2025-03-10 20h46.23.078216 +0700,
1,1,11,word/wordth0111.png,49,49,0,z,0.6303776999993715,None,0,49,49,49,98.6781618999994,,,,,,,98.6781618999994,98.6781618999994,99.67756010000085,99.68040549999932,99.68040549999932,99.68040549999932,99.68040549999932,100.3169084000001,z,0.6303776999993715,None,,,,,,,,,,KR_th,001,2025-03-10_20h45.57.369,MainFlow,2024.2.4,141.50836597891663,2025-03-10 20h46.23.078216 +0700,
1,1,10,word/wordth0101.png,50,50,0,z,0.5211835999980394,None,0,50,50,50,100.32215879999785,,,,,,,100.32215879999785,100.32215879999785,101.32829579999816,101.33146809999744,101.33146809999744,101.33146809999744,101.33146809999744,101.85818049999943,z,0.5211835999980394,None,,,,,,,,,,KR_th,001,2025-03-10_20h45.57.369,MainFlow,2024.2.4,141.50836597891663,2025-03-10 20h46.23.078216 +0700,
1,1,44,word/wordth0441.png,51,51,0,z,0.4111664000010933,None,0,51,51,51,101.86354930000016,,,,,,,101.86354930000016,101.86354930000016,102.87926759999755,102.88270959999863,102.88270959999863,102.88270959999863,102.88270959999863,103.29635769999732,z,0.4111664000010933,None,,,,,,,,,,KR_th,001,2025-03-10_20h45.57.369,MainFlow,2024.2.4,141.50836597891663,2025-03-10 20h46.23.078216 +0700,
1,1,96,word/wordth0961.png,52,52,0,z,0.6002594999990833,None,0,52,52,52,103.30093159999888,,,,,,,103.30093159999888,103.30093159999888,104.31186979999984,104.3152055999999,104.3152055999999,104.3152055999999,104.3152055999999,104.92026269999769,z,0.6002594999990833,None,,,,,,,,,,KR_th,001,2025-03-10_20h45.57.369,MainFlow,2024.2.4,141.50836597891663,2025-03-10 20h46.23.078216 +0700,
1,2,27,word/wordth0272.png,53,53,0,x,0.5711914999992587,None,0,53,53,53,104.92554989999917,,,,,,,104.92554989999917,104.92554989999917,105.93859569999768,105.941985999998,105.941985999998,105.941985999998,105.941985999998,106.51732749999792,x,0.5711914999992587,None,,,,,,,,,,KR_th,001,2025-03-10_20h45.57.369,MainFlow,2024.2.4,141.50836597891663,2025-03-10 20h46.23.078216 +0700,
1,1,63,word/wordth0631.png,54,54,0,z,0.7846259000034479,None,0,54,54,54,106.52240080000047,,,,,,,106.52240080000047,106.52240080000047,107.53138939999917,107.53483679999772,107.53483679999772,107.53483679999772,107.53483679999772,108.32356099999743,z,0.7846259000034479,None,,,,,,,,,,KR_th,001,2025-03-10_20h45.57.369,MainFlow,2024.2.4,141.50836597891663,2025-03-10 20h46.23.078216 +0700,
1,3,66,word/wordth0663.png,55,55,0,x,0.6120133999975224,None,0,55,55,55,108.32924849999836,,,,,,,108.32924849999836,108.32924849999836,109.33767069999885,109.34134139999878,109.34134139999878,109.34134139999878,109.34134139999878,109.95563689999835,x,0.6120133999975224,None,,,,,,,,,,KR_th,001,2025-03-10_20h45.57.369,MainFlow,2024.2.4,141.50836597891663,2025-03-10 20h46.23.078216 +0700,
1,3,88,word/wordth0883.png,56,56,0,x,0.5812514999997802,None,0,56,56,56,109.9605436999991,,,,,,,109.9605436999991,109.9605436999991,110.97828289999961,110.98141249999753,110.98141249999753,110.98141249999753,110.98141249999753,111.56484930000079,x,0.5812514999997802,None,,,,,,,,,,KR_th,001,2025-03-10_20h45.57.369,MainFlow,2024.2.4,141.50836597891663,2025-03-10 20h46.23.078216 +0700,
1,3,96,word/wordth0963.png,57,57,0,x,0.46406970000316505,None,0,57,57,57,111.57005639999988,,,,,,,111.57005639999988,111.57005639999988,112.60899670000072,112.61264849999861,112.61264849999861,112.61264849999861,112.61264849999861,113.07851450000089,x,0.46406970000316505,None,,,,,,,,,,KR_th,001,2025-03-10_20h45.57.369,MainFlow,2024.2.4,141.50836597891663,2025-03-10 20h46.23.078216 +0700,
1,2,52,word/wordth0522.png,58,58,0,x,0.4337329000009049,None,0,58,58,58,113.08367539999745,,,,,,,113.08367539999745,113.08367539999745,114.09902299999885,114.1022011999994,114.1022011999994,114.1022011999994,114.1022011999994,114.54328439999881,x,0.4337329000009049,None,,,,,,,,,,KR_th,001,2025-03-10_20h45.57.369,MainFlow,2024.2.4,141.50836597891663,2025-03-10 20h46.23.078216 +0700,
1,3,50,word/wordth0503.png,59,59,0,x,0.6077604999991308,None,0,59,59,59,114.54848710000078,,,,,,,114.54848710000078,114.54848710000078,115.56147499999861,115.56472209999993,115.56472209999993,115.56472209999993,115.56472209999993,116.1758688000009,x,0.6077604999991308,None,,,,,,,,,,KR_th,001,2025-03-10_20h45.57.369,MainFlow,2024.2.4,141.50836597891663,2025-03-10 20h46.23.078216 +0700,
1,3,61,word/wordth0613.png,60,60,0,x,0.49700060000031954,None,0,60,60,60,116.18033500000092,,,,,,,116.18033500000092,116.18033500000092,117.19195519999994,117.1952941999989,117.1952941999989,117.1952941999989,117.1952941999989,117.6959930999983,x,0.49700060000031954,None,,,,,,,,,,KR_th,001,2025-03-10_20h45.57.369,MainFlow,2024.2.4,141.50836597891663,2025-03-10 20h46.23.078216 +0700,
1,2,46,word/wordth0462.png,61,61,0,x,0.4106062999999267,None,0,61,61,61,117.70078759999888,,,,,,,117.70078759999888,117.70078759999888,118.71350709999751,118.71690490000037,118.71690490000037,118.71690490000037,118.71690490000037,119.13277109999763,x,0.4106062999999267,None,,,,,,,,,,KR_th,001,2025-03-10_20h45.57.369,MainFlow,2024.2.4,141.50836597891663,2025-03-10 20h46.23.078216 +0700,
1,1,61,word/wordth0611.png,62,62,0,z,0.49403829999937443,None,0,62,62,62,119.137969899999,,,,,,,119.137969899999,119.137969899999,120.1549019999984,120.1583075999988,120.1583075999988,120.1583075999988,120.1583075999988,120.65304389999801,z,0.49403829999937443,None,,,,,,,,,,KR_th,001,2025-03-10_20h45.57.369,MainFlow,2024.2.4,141.50836597891663,2025-03-10 20h46.23.078216 +0700,
1,1,24,word/wordth0241.png,63,63,0,z,0.4720173000023351,None,0,63,63,63,120.65864080000028,,,,,,,120.65864080000028,120.65864080000028,121.67426989999876,121.67745569999897,121.67745569999897,121.67745569999897,121.67745569999897,122.15235050000047,z,0.4720173000023351,None,,,,,,,,,,KR_th,001,2025-03-10_20h45.57.369,MainFlow,2024.2.4,141.50836597891663,2025-03-10 20h46.23.078216 +0700,
1,2,89,word/wordth0892.png,64,64,0,x,0.5378326999998535,None,0,64,64,64,122.15813409999828,,,,,,,122.15813409999828,122.15813409999828,123.16671270000006,123.16999550000037,123.16999550000037,123.16999550000037,123.16999550000037,123.71101389999967,x,0.5378326999998535,None,,,,,,,,,,KR_th,001,2025-03-10_20h45.57.369,MainFlow,2024.2.4,141.50836597891663,2025-03-10 20h46.23.078216 +0700,
1,1,30,word/wordth0301.png,65,65,0,z,0.35984620000090217,None,0,65,65,65,123.71661440000025,,,,,,,123.71661440000025,123.71661440000025,124.71654610000041,124.7196041999996,124.7196041999996,124.7196041999996,124.7196041999996,125.08250829999815,z,0.35984620000090217,None,124.7196041999996,124.7196041999996,,,,,,,,KR_th,001,2025-03-10_20h45.57.369,MainFlow,2024.2.4,141.50836597891663,2025-03-10 20h46.23.078216 +0700,
1,1,93,word/wordth0931.png,66,66,0,z,0.6446695000013278,None,0,66,66,66,125.08811779999814,,,,,,,125.08811779999814,125.08811779999814,126.09240499999942,126.09545230000003,126.09545230000003,126.09545230000003,126.09545230000003,126.74253060000046,z,0.6446695000013278,None,,,,,,,,,,KR_th,001,2025-03-10_20h45.57.369,MainFlow,2024.2.4,141.50836597891663,2025-03-10 20h46.23.078216 +0700,
1,1,50,word/wordth0501.png,67,67,0,z,0.5363121000009414,None,0,67,67,67,126.74763170000006,,,,,,,126.74763170000006,126.74763170000006,127.75133279999864,127.75482019999981,127.75482019999981,127.75482019999981,127.75482019999981,128.29798369999844,z,0.5363121000009414,None,,,,,,,,,,KR_th,001,2025-03-10_20h45.57.369,MainFlow,2024.2.4,141.50836597891663,2025-03-10 20h46.23.078216 +0700,
1,3,82,word/wordth0823.png,68,68,0,x,0.5713950999997905,None,0,68,68,68,128.30290559999776,,,,,,,128.30290559999776,128.30290559999776,129.31223630000022,129.3153257999984,129.3153257999984,129.3153257999984,129.3153257999984,129.8939238999992,x,0.5713950999997905,None,,,,,,,,,,KR_th,001,2025-03-10_20h45.57.369,MainFlow,2024.2.4,141.50836597891663,2025-03-10 20h46.23.078216 +0700,
1,1,27,word/wordth0271.png,69,69,0,z,0.47287560000040685,None,0,69,69,69,129.89971909999804,,,,,,,129.89971909999804,129.89971909999804,130.91453869999896,130.91772879999917,130.91772879999917,130.91772879999917,130.91772879999917,131.39424710000094,z,0.47287560000040685,None,,,,,,,,,,KR_th,001,2025-03-10_20h45.57.369,MainFlow,2024.2.4,141.50836597891663,2025-03-10 20h46.23.078216 +0700,
1,3,52,word/wordth0523.png,70,70,0,x,0.5492583000013838,None,0,70,70,70,131.39950999999928,,,,,,,131.39950999999928,131.39950999999928,132.41488519999984,132.41906910000034,132.41906910000034,132.41906910000034,132.41906910000034,132.97020780000094,x,0.5492583000013838,None,,,,,,,,,,KR_th,001,2025-03-10_20h45.57.369,MainFlow,2024.2.4,141.50836597891663,2025-03-10 20h46.23.078216 +0700,
1,1,22,word/wordth0221.png,71,71,0,z,0.41956569999820204,None,0,71,71,71,132.97557450000022,,,,,,,132.97557450000022,132.97557450000022,133.98973719999776,133.99300070000027,133.99300070000027,133.99300070000027,133.99300070000027,134.4144434000009,z,0.41956569999820204,None,,,,,,,,,,KR_th,001,2025-03-10_20h45.57.369,MainFlow,2024.2.4,141.50836597891663,2025-03-10 20h46.23.078216 +0700,
1,1,6,word/wordth0061.png,72,72,0,z,0.4063496999988274,None,0,72,72,72,134.41971299999932,,,,,,,134.41971299999932,134.41971299999932,135.43410179999773,135.43761869999798,135.43761869999798,135.43761869999798,135.43761869999798,135.84607449999748,z,0.4063496999988274,None,,,,,,,,,,KR_th,001,2025-03-10_20h45.57.369,MainFlow,2024.2.4,141.50836597891663,2025-03-10 20h46.23.078216 +0700,
1,2,30,word/wordth0302.png,73,73,0,x,0.5669310999983281,None,0,73,73,73,135.85122249999768,,,,,,,135.85122249999768,135.85122249999768,136.85353119999854,136.85659749999832,136.85659749999832,136.85659749999832,136.85659749999832,137.42795750000005,x,0.5669310999983281,None,,,,,,,,,,KR_th,001,2025-03-10_20h45.57.369,MainFlow,2024.2.4,141.50836597891663,2025-03-10 20h46.23.078216 +0700,
1,1,51,word/wordth0511.png,74,74,0,z,0.41058129999873927,None,0,74,74,74,137.43308529999922,,,,,,,137.43308529999922,137.43308529999922,138.43685579999874,138.44003929999963,138.44003929999963,138.44003929999963,138.44003929999963,138.85744440000053,z,0.41058129999873927,None,,,,,,,,,,KR_th,001,2025-03-10_20h45.57.369,MainFlow,2024.2.4,141.50836597891663,2025-03-10 20h46.23.078216 +0700,
1,2,50,word/wordth0502.png,75,75,0,x,0.5331784000009065,None,0,75,75,75,138.86341339999854,,,,,,,138.86341339999854,138.86341339999854,139.87595890000011,139.8792871000005,139.8792871000005,139.8792871000005,139.8792871000005,140.41315329999998,x,0.5331784000009065,None,,,,,,,,,,KR_th,001,2025-03-10_20h45.57.369,MainFlow,2024.2.4,141.50836597891663,2025-03-10 20h46.23.078216 +0700,
1,3,95,word/wordth0953.png,76,76,0,x,0.5584312999999383,None,0,76,76,76,140.41864109999733,,,,,,,140.41864109999733,140.41864109999733,141.41608300000007,141.41890419999982,141.41890419999982,141.41890419999982,141.41890419999982,141.98314200000095,x,0.5584312999999383,None,,,,,,,,,,KR_th,001,2025-03-10_20h45.57.369,MainFlow,2024.2.4,141.50836597891663,2025-03-10 20h46.23.078216 +0700,
1,1,75,word/wordth0751.png,77,77,0,z,0.5906283000003896,None,0,77,77,77,141.98780199999965,,,,,,,141.98780199999965,141.98780199999965,142.9960930999987,142.99945739999748,142.99945739999748,142.99945739999748,142.99945739999748,143.5942303999982,z,0.5906283000003896,None,,,,,,,,,,KR_th,001,2025-03-10_20h45.57.369,MainFlow,2024.2.4,141.50836597891663,2025-03-10 20h46.23.078216 +0700,
1,1,95,word/wordth0951.png,78,78,0,z,0.5615954999993846,None,0,78,78,78,143.59869160000017,,,,,,,143.59869160000017,143.59869160000017,144.6116836000001,144.61471579999852,144.61471579999852,144.61471579999852,144.61471579999852,145.18428660000063,z,0.5615954999993846,None,,,,,,,,,,KR_th,001,2025-03-10_20h45.57.369,MainFlow,2024.2.4,141.50836597891663,2025-03-10 20h46.23.078216 +0700,
1,2,8,word/wordth0082.png,79,79,0,x,0.5356630999995105,None,0,79,79,79,145.18854519999877,,,,,,,145.18854519999877,145.18854519999877,146.19876459999796,146.20194889999766,146.20194889999766,146.20194889999766,146.20194889999766,146.73891129999902,x,0.5356630999995105,None,,,,,,,,,,KR_th,001,2025-03-10_20h45.57.369,MainFlow,2024.2.4,141.50836597891663,2025-03-10 20h46.23.078216 +0700,
1,3,75,word/wordth0753.png,80,80,0,x,0.8382453999984136,None,0,80,80,80,146.7437162999995,,,,,,,146.7437162999995,146.7437162999995,147.75901429999794,147.76232349999918,147.76232349999918,147.76232349999918,147.76232349999918,148.6062381999982,x,0.8382453999984136,None,,,,,,,,,,KR_th,001,2025-03-10_20h45.57.369,MainFlow,2024.2.4,141.50836597891663,2025-03-10 20h46.23.078216 +0700,
1,1,28,word/wordth0281.png,81,81,0,z,0.5819465000022319,None,0,81,81,81,148.61153229999763,,,,,,,148.61153229999763,148.61153229999763,149.6346138000008,149.63831089999803,149.63831089999803,149.63831089999803,149.63831089999803,150.22407849999945,z,0.5819465000022319,None,,,,,,,,,,KR_th,001,2025-03-10_20h45.57.369,MainFlow,2024.2.4,141.50836597891663,2025-03-10 20h46.23.078216 +0700,
1,3,42,word/wordth0423.png,82,82,0,z,0.44196800000281655,None,0,82,82,82,150.22913849999895,,,,,,,150.22913849999895,150.22913849999895,151.23802849999993,151.24145299999873,151.24145299999873,151.24145299999873,151.24145299999873,151.69001999999819,z,0.44196800000281655,None,,,,,,,,,,KR_th,001,2025-03-10_20h45.57.369,MainFlow,2024.2.4,141.50836597891663,2025-03-10 20h46.23.078216 +0700,
1,3,46,word/wordth0463.png,83,83,0,x,0.47361240000100224,None,0,83,83,83,151.69410589999825,,,,,,,151.69410589999825,151.69410589999825,152.7165531999999,152.72080239999923,152.72080239999923,152.72080239999923,152.72080239999923,153.19743290000042,x,0.47361240000100224,None,,,,,,,,,,KR_th,001,2025-03-10_20h45.57.369,MainFlow,2024.2.4,141.50836597891663,2025-03-10 20h46.23.078216 +0700,
1,3,1,word/wordth0013.png,84,84,0,x,0.6844058000024233,None,0,84,84,84,153.20322490000035,,,,,,,153.20322490000035,153.20322490000035,154.21495199999845,154.21840940000038,154.21840940000038,154.21840940000038,154.21840940000038,154.91004389999944,x,0.6844058000024233,None,154.21840940000038,154.21840940000038,,,,,,,,KR_th,001,2025-03-10_20h45.57.369,MainFlow,2024.2.4,141.50836597891663,2025-03-10 20h46.23.078216 +0700,
1,2,70,word/wordth0702.png,85,85,0,x,0.7030888000008417,None,0,85,85,85,154.9157215999985,,,,,,,154.9157215999985,154.9157215999985,155.9267140999982,155.93000960000063,155.93000960000063,155.93000960000063,155.93000960000063,156.63951000000088,x,0.7030888000008417,None,,,,,,,,,,KR_th,001,2025-03-10_20h45.57.369,MainFlow,2024.2.4,141.50836597891663,2025-03-10 20h46.23.078216 +0700,
1,1,7,word/wordth0071.png,86,86,0,z,0.4464798000008159,None,0,86,86,86,156.6447315000005,,,,,,,156.6447315000005,156.6447315000005,157.6552331999992,157.65862320000087,157.65862320000087,157.65862320000087,157.65862320000087,158.11062889999812,z,0.4464798000008159,None,,,,,,,,,,KR_th,001,2025-03-10_20h45.57.369,MainFlow,2024.2.4,141.50836597891663,2025-03-10 20h46.23.078216 +0700,
1,2,7,word/wordth0072.png,87,87,0,x,0.6856541000015568,None,0,87,87,87,158.11646029999974,,,,,,,158.11646029999974,158.11646029999974,159.12875279999935,159.13194569999905,159.13194569999905,159.13194569999905,159.13194569999905,159.81951809999737,x,0.6856541000015568,None,,,,,,,,,,KR_th,001,2025-03-10_20h45.57.369,MainFlow,2024.2.4,141.50836597891663,2025-03-10 20h46.23.078216 +0700,
1,2,24,word/wordth0242.png,88,88,0,x,0.6393634999985807,None,0,88,88,88,159.82461789999797,,,,,,,159.82461789999797,159.82461789999797,160.8287495000004,160.83199189999868,160.83199189999868,160.83199189999868,160.83199189999868,161.4785069999998,x,0.6393634999985807,None,,,,,,,,,,KR_th,001,2025-03-10_20h45.57.369,MainFlow,2024.2.4,141.50836597891663,2025-03-10 20h46.23.078216 +0700,
1,3,26,word/wordth0263.png,89,89,0,x,0.4713080000001355,None,0,89,89,89,161.48386649999884,,,,,,,161.48386649999884,161.48386649999884,162.48321479999868,162.48613159999877,162.48613159999877,162.48613159999877,162.48613159999877,162.96422320000056,x,0.4713080000001355,None,,,,,,,,,,KR_th,001,2025-03-10_20h45.57.369,MainFlow,2024.2.4,141.50836597891663,2025-03-10 20h46.23.078216 +0700,
1,2,23,word/wordth0232.png,90,90,0,x,0.4335008999987622,None,0,90,90,90,162.96964699999808,,,,,,,162.96964699999808,162.96964699999808,163.9813890999976,163.98484309999913,163.98484309999913,163.98484309999913,163.98484309999913,164.42384559999846,x,0.4335008999987622,None,,,,,,,,,,KR_th,001,2025-03-10_20h45.57.369,MainFlow,2024.2.4,141.50836597891663,2025-03-10 20h46.23.078216 +0700,
1,2,75,word/wordth0752.png,91,91,0,x,0.539634600001591,None,0,91,91,91,164.4302949999983,,,,,,,164.4302949999983,164.4302949999983,165.42772970000078,165.43053409999993,165.43053409999993,165.43053409999993,165.43053409999993,165.97221539999737,x,0.539634600001591,None,,,,,,,,,,KR_th,001,2025-03-10_20h45.57.369,MainFlow,2024.2.4,141.50836597891663,2025-03-10 20h46.23.078216 +0700,
1,2,6,word/wordth0062.png,92,92,0,x,0.5220165999999153,None,0,92,92,92,165.9761604999985,,,,,,,165.9761604999985,165.9761604999985,166.97718809999787,166.9800706999995,166.9800706999995,166.9800706999995,166.9800706999995,167.50557429999753,x,0.5220165999999153,None,,,,,,,,,,KR_th,001,2025-03-10_20h45.57.369,MainFlow,2024.2.4,141.50836597891663,2025-03-10 20h46.23.078216 +0700,
1,2,93,word/wordth0932.png,93,93,0,x,0.4903362000004563,None,0,93,93,93,167.5105481999999,,,,,,,167.5105481999999,167.5105481999999,168.5250264999995,168.52864000000045,168.52864000000045,168.52864000000045,168.52864000000045,169.0256621999979,x,0.4903362000004563,None,,,,,,,,,,KR_th,001,2025-03-10_20h45.57.369,MainFlow,2024.2.4,141.50836597891663,2025-03-10 20h46.23.078216 +0700,
1,2,48,word/wordth0482.png,94,94,0,x,0.44975479999993695,None,0,94,94,94,169.03094729999793,,,,,,,169.03094729999793,169.03094729999793,170.04525759999888,170.04863099999784,170.04863099999784,170.04863099999784,170.04863099999784,170.50534759999937,x,0.44975479999993695,None,,,,,,,,,,KR_th,001,2025-03-10_20h45.57.369,MainFlow,2024.2.4,141.50836597891663,2025-03-10 20h46.23.078216 +0700,
1,1,70,word/wordth0701.png,95,95,0,z,0.5114060999985668,None,0,95,95,95,170.5099556999994,,,,,,,170.5099556999994,170.5099556999994,171.5246350999987,171.52777950000018,171.52777950000018,171.52777950000018,171.52777950000018,172.04675950000092,z,0.5114060999985668,None,,,,,,,,,,KR_th,001,2025-03-10_20h45.57.369,MainFlow,2024.2.4,141.50836597891663,2025-03-10 20h46.23.078216 +0700,
1,2,66,word/wordth0662.png,96,96,0,x,0.5037554999980784,None,0,96,96,96,172.05147429999852,,,,,,,172.05147429999852,172.05147429999852,173.06082239999887,173.06404810000095,173.06404810000095,173.06404810000095,173.06404810000095,173.57357359999878,x,0.5037554999980784,None,,,,,,,,,,KR_th,001,2025-03-10_20h45.57.369,MainFlow,2024.2.4,141.50836597891663,2025-03-10 20h46.23.078216 +0700,
1,1,26,word/wordth0261.png,97,97,0,x,0.475161800000933,None,0,97,97,97,173.57881160000034,,,,,,,173.57881160000034,173.57881160000034,174.59173659999942,174.59460359999866,174.59460359999866,174.59460359999866,174.59460359999866,175.07343469999978,x,0.475161800000933,None,,,,,,,,,,KR_th,001,2025-03-10_20h45.57.369,MainFlow,2024.2.4,141.50836597891663,2025-03-10 20h46.23.078216 +0700,
1,3,9,word/wordth0093.png,98,98,0,x,0.4399865999985195,None,0,98,98,98,175.07860849999997,,,,,,,175.07860849999997,175.07860849999997,176.09743829999934,176.10087009999916,176.10087009999916,176.10087009999916,176.10087009999916,176.54533679999804,x,0.4399865999985195,None,,,,,,,,,,KR_th,001,2025-03-10_20h45.57.369,MainFlow,2024.2.4,141.50836597891663,2025-03-10 20h46.23.078216 +0700,
1,2,61,word/wordth0612.png,99,99,0,x,0.5675834000030591,None,0,99,99,99,176.55064199999833,,,,,,,176.55064199999833,176.55064199999833,177.55503899999894,177.55799289999777,177.55799289999777,177.55799289999777,177.55799289999777,178.12842079999973,x,0.5675834000030591,None,,,,,,,,,,KR_th,001,2025-03-10_20h45.57.369,MainFlow,2024.2.4,141.50836597891663,2025-03-10 20h46.23.078216 +0700,
1,3,8,word/wordth0083.png,100,100,0,x,0.4290387000000919,None,0,100,100,100,178.13351229999898,,,,,,,178.13351229999898,178.13351229999898,179.14637930000026,179.14984619999814,179.14984619999814,179.14984619999814,179.14984619999814,179.58032850000018,x,0.4290387000000919,None,,,,,,,,,,KR_th,001,2025-03-10_20h45.57.369,MainFlow,2024.2.4,141.50836597891663,2025-03-10 20h46.23.078216 +0700,
1,1,8,word/wordth0081.png,101,101,0,z,0.6515268000002834,None,0,101,101,101,179.58469029999833,,,,,,,179.58469029999833,179.58469029999833,180.6001268,180.60364199999822,180.60364199999822,180.60364199999822,180.60364199999822,181.2593080000006,z,0.6515268000002834,None,,,,,,,,,,KR_th,001,2025-03-10_20h45.57.369,MainFlow,2024.2.4,141.50836597891663,2025-03-10 20h46.23.078216 +0700,
1,2,44,word/wordth0442.png,102,102,0,x,0.5945657999982359,None,0,102,102,102,181.26479729999846,,,,,,,181.26479729999846,181.26479729999846,182.27217089999976,182.2753797999976,182.2753797999976,182.2753797999976,182.2753797999976,182.87814050000088,x,0.5945657999982359,None,,,,,,,,,,KR_th,001,2025-03-10_20h45.57.369,MainFlow,2024.2.4,141.50836597891663,2025-03-10 20h46.23.078216 +0700,
1,3,31,word/wordth0313.png,103,103,0,x,0.557047700000112,None,0,103,103,103,182.88322979999793,,,,,,,182.88322979999793,182.88322979999793,183.90223159999732,183.905625899999,183.905625899999,183.905625899999,183.905625899999,184.46770769999785,x,0.557047700000112,None,,,,,,,,,,KR_th,001,2025-03-10_20h45.57.369,MainFlow,2024.2.4,141.50836597891663,2025-03-10 20h46.23.078216 +0700,
1,1,89,word/wordth0891.png,104,104,0,z,0.6551902999999584,None,0,104,104,104,184.4726903999981,,,,,,,184.4726903999981,184.4726903999981,185.48776459999863,185.49100370000087,185.49100370000087,185.49100370000087,185.49100370000087,186.14792849999867,z,0.6551902999999584,None,,,,,,,,,,KR_th,001,2025-03-10_20h45.57.369,MainFlow,2024.2.4,141.50836597891663,2025-03-10 20h46.23.078216 +0700,
1,3,70,word/wordth0703.png,105,105,0,x,0.6871479000001273,None,0,105,105,105,186.1527618,,,,,,,186.1527618,186.1527618,187.1621414000001,187.16544609999983,187.16544609999983,187.16544609999983,187.16544609999983,187.85578739999983,x,0.6871479000001273,None,,,,,,,,,,KR_th,001,2025-03-10_20h45.57.369,MainFlow,2024.2.4,141.50836597891663,2025-03-10 20h46.23.078216 +0700,
1,3,68,word/wordth0683.png,106,106,0,x,0.44517090000226744,None,0,106,106,106,187.8608600999978,,,,,,,187.8608600999978,187.8608600999978,188.87332799999785,188.87646060000043,188.87646060000043,188.87646060000043,188.87646060000043,189.32749989999866,x,0.44517090000226744,None,,,,,,,,,,KR_th,001,2025-03-10_20h45.57.369,MainFlow,2024.2.4,141.50836597891663,2025-03-10 20h46.23.078216 +0700,
1,3,10,word/wordth0103.png,107,107,0,x,0.7985336999990977,None,0,107,107,107,189.3327317000003,,,,,,,189.3327317000003,189.3327317000003,190.35109809999994,190.3543080999989,190.3543080999989,190.3543080999989,190.3543080999989,191.15433459999986,x,0.7985336999990977,None,,,,,,,,,,KR_th,001,2025-03-10_20h45.57.369,MainFlow,2024.2.4,141.50836597891663,2025-03-10 20h46.23.078216 +0700,
1,3,94,word/wordth0943.png,108,108,0,x,0.4427904000003764,None,0,108,108,108,191.15882939999938,,,,,,,191.15882939999938,191.15882939999938,192.17077129999961,192.17410860000018,192.17410860000018,192.17410860000018,192.17410860000018,192.61995390000084,x,0.4427904000003764,None,,,,,,,,,,KR_th,001,2025-03-10_20h45.57.369,MainFlow,2024.2.4,141.50836597891663,2025-03-10 20h46.23.078216 +0700,
1,1,3,word/wordth0031.png,109,109,0,z,0.3849382999978843,None,0,109,109,109,192.62617039999895,,,,,,,192.62617039999895,192.62617039999895,193.63422549999814,193.63732569999775,193.63732569999775,193.63732569999775,193.63732569999775,194.02820879999854,z,0.3849382999978843,None,,,,,,,,,,KR_th,001,2025-03-10_20h45.57.369,MainFlow,2024.2.4,141.50836597891663,2025-03-10 20h46.23.078216 +0700,
1,3,63,word/wordth0633.png,110,110,0,x,0.4753134999991744,None,0,110,110,110,194.03324179999981,,,,,,,194.03324179999981,194.03324179999981,195.0412785999979,195.04469840000093,195.04469840000093,195.04469840000093,195.04469840000093,195.52698529999907,x,0.4753134999991744,None,,,,,,,,,,KR_th,001,2025-03-10_20h45.57.369,MainFlow,2024.2.4,141.50836597891663,2025-03-10 20h46.23.078216 +0700,
1,2,9,word/wordth0092.png,111,111,0,x,0.42554350000136765,None,0,111,111,111,195.53277700000035,,,,,,,195.53277700000035,195.53277700000035,196.54241460000048,196.54573949999758,196.54573949999758,196.54573949999758,196.54573949999758,196.97863159999906,x,0.42554350000136765,None,,,,,,,,,,KR_th,001,2025-03-10_20h45.57.369,MainFlow,2024.2.4,141.50836597891663,2025-03-10 20h46.23.078216 +0700,
1,3,7,word/wordth0073.png,112,112,0,x,0.6953371999989031,None,0,112,112,112,196.98404039999878,,,,,,,196.98404039999878,196.98404039999878,197.98814520000087,197.99137139999948,197.99137139999948,197.99137139999948,197.99137139999948,198.69559119999758,x,0.6953371999989031,None,,,,,,,,,,KR_th,001,2025-03-10_20h45.57.369,MainFlow,2024.2.4,141.50836597891663,2025-03-10 20h46.23.078216 +0700,
1,2,41,word/wordth0412.png,113,113,0,x,0.6478118000013637,None,0,113,113,113,198.69918680000046,,,,,,,198.69918680000046,198.69918680000046,199.70032899999933,199.7034109999986,199.7034109999986,199.7034109999986,199.7034109999986,200.35443289999967,x,0.6478118000013637,None,,,,,,,,,,KR_th,001,2025-03-10_20h45.57.369,MainFlow,2024.2.4,141.50836597891663,2025-03-10 20h46.23.078216 +0700,
1,1,9,word/wordth0091.png,114,114,0,z,0.5087612000024819,None,0,114,114,114,200.36047219999818,,,,,,,200.36047219999818,200.36047219999818,201.36142819999804,201.36431209999864,201.36431209999864,201.36431209999864,201.36431209999864,201.8810823999993,z,0.5087612000024819,None,,,,,,,,,,KR_th,001,2025-03-10_20h45.57.369,MainFlow,2024.2.4,141.50836597891663,2025-03-10 20h46.23.078216 +0700,
1,1,94,word/wordth0941.png,115,115,0,z,0.40056819999881554,None,0,115,115,115,201.88588379999783,,,,,,,201.88588379999783,201.88588379999783,202.89629760000025,202.89974559999973,202.89974559999973,202.89974559999973,202.89974559999973,203.30527810000058,z,0.40056819999881554,None,,,,,,,,,,KR_th,001,2025-03-10_20h45.57.369,MainFlow,2024.2.4,141.50836597891663,2025-03-10 20h46.23.078216 +0700,
1,1,52,word/wordth0521.png,116,116,0,z,0.430440299998736,None,0,116,116,116,203.31104699999923,,,,,,,203.31104699999923,203.31104699999923,204.3089645,204.31193669999993,204.31193669999993,204.31193669999993,204.31193669999993,204.7479999999996,z,0.430440299998736,None,,,,,,,,,,KR_th,001,2025-03-10_20h45.57.369,MainFlow,2024.2.4,141.50836597891663,2025-03-10 20h46.23.078216 +0700,
1,2,88,word/wordth0882.png,117,117,0,x,0.5129759000010381,None,0,117,117,117,204.75337229999786,,,,,,,204.75337229999786,204.75337229999786,205.7678324999979,205.77137139999832,205.77137139999832,205.77137139999832,205.77137139999832,206.29050319999806,x,0.5129759000010381,None,,,,,,,,,,KR_th,001,2025-03-10_20h45.57.369,MainFlow,2024.2.4,141.50836597891663,2025-03-10 20h46.23.078216 +0700,
1,1,41,word/wordth0411.png,118,118,0,z,0.44917179999902146,None,0,118,118,118,206.29514890000064,,,,,,,206.29514890000064,206.29514890000064,207.30265809999764,207.30613549999907,207.30613549999907,207.30613549999907,207.30613549999907,207.76147099999798,z,0.44917179999902146,None,,,,,,,,,,KR_th,001,2025-03-10_20h45.57.369,MainFlow,2024.2.4,141.50836597891663,2025-03-10 20h46.23.078216 +0700,
1,3,30,word/wordth0303.png,119,119,0,x,0.5531239000010828,None,0,119,119,119,207.76675579999937,,,,,,,207.76675579999937,207.76675579999937,208.77918539999882,208.7830474000002,208.7830474000002,208.7830474000002,208.7830474000002,209.33786739999778,x,0.5531239000010828,None,,,,,,,,,,KR_th,001,2025-03-10_20h45.57.369,MainFlow,2024.2.4,141.50836597891663,2025-03-10 20h46.23.078216 +0700,
,,,,,,,,,,,,,,,,,,,,,,,,,,,,,,,,,,209.33802559999822,209.3427860999982,209.3427860999982,220.2804905999983,space,10.934130699999514,None,KR_th,001,2025-03-10_20h45.57.369,MainFlow,2024.2.4,141.50836597891663,2025-03-10 20h46.23.078216 +0700,
