lang,stimuli,imageid,worddir,thisN,thisTrialN,thisRepN,key_resp.keys,key_resp.rt,key_resp.duration,trials.thisRepN,trials.thisTrialN,trials.thisN,trials.thisIndex,thisRow.t,notes,tutorial.started,tutorial.stopped,key_instruct.keys,key_instruct.rt,key_instruct.duration,instructblank.started,cross1.started,letterselect.started,imageword.started,text_2.started,cross2.started,key_resp.started,letterselect.stopped,trials.key_resp.keys,trials.key_resp.rt,trials.key_resp.duration,instructblank.stopped,cross1.stopped,ending.started,text_3.started,ending_key.started,ending.stopped,ending_key.keys,ending_key.rt,ending_key.duration,participant,session,date,expName,psychopyVersion,frameRate,expStart,
,,,,,,,,,,,,,,,,0.005888599999707367,1.893159399999604,space,1.8372985999994853,None,,,,,,,,,,,,,,,,,,,,,NU_th,001,2025-03-07_12h09.40.826,MainFlow,2024.2.4,142.47409108592194,2025-03-07 12h10.03.037624 +0700,
1,3,89,word/wordth0893.png,0,0,0,x,1.8963867999991635,None,0,0,0,0,2.0033363999991707,,,,,,,2.0033363999991707,2.0033363999991707,2.939901399999144,2.9936792999997124,2.9936792999997124,2.9936792999997124,2.9936792999997124,4.898138599999584,x,1.8963867999991635,None,,,,,,,,,,NU_th,001,2025-03-07_12h09.40.826,MainFlow,2024.2.4,142.47409108592194,2025-03-07 12h10.03.037624 +0700,
1,3,28,word/wordth0283.png,1,1,0,x,1.1507020000008197,None,0,1,1,1,4.904291099999682,,,,,,,4.904291099999682,4.904291099999682,5.914771399999154,5.921463299999232,5.921463299999232,5.921463299999232,5.921463299999232,7.077791299999262,x,1.1507020000008197,None,,,,,,,,,,NU_th,001,2025-03-07_12h09.40.826,MainFlow,2024.2.4,142.47409108592194,2025-03-07 12h10.03.037624 +0700,
1,2,87,word/wordth0872.png,2,2,0,x,1.857750200000737,None,0,2,2,2,7.083848599999328,,,,,,,7.083848599999328,7.083848599999328,8.094506499999625,8.101685099999486,8.101685099999486,8.101685099999486,8.101685099999486,9.966466599999876,x,1.857750200000737,None,,,,,,,,,,NU_th,001,2025-03-07_12h09.40.826,MainFlow,2024.2.4,142.47409108592194,2025-03-07 12h10.03.037624 +0700,
1,2,68,word/wordth0682.png,3,3,0,x,1.3200198000004093,None,0,3,3,3,9.972138099999938,,,,,,,9.972138099999938,9.972138099999938,10.989270099999885,10.99561249999988,10.99561249999988,10.99561249999988,10.99561249999988,12.320355599999857,x,1.3200198000004093,None,10.99561249999988,10.99561249999988,,,,,,,,NU_th,001,2025-03-07_12h09.40.826,MainFlow,2024.2.4,142.47409108592194,2025-03-07 12h10.03.037624 +0700,
1,2,11,word/wordth0112.png,4,4,0,x,2.123986099999456,None,0,4,4,4,12.326414699999987,,,,,,,12.326414699999987,12.326414699999987,13.337477999999464,13.344300999999177,13.344300999999177,13.344300999999177,13.344300999999177,15.472144800000024,x,2.123986099999456,None,,,,,,,,,,NU_th,001,2025-03-07_12h09.40.826,MainFlow,2024.2.4,142.47409108592194,2025-03-07 12h10.03.037624 +0700,
1,3,11,word/wordth0113.png,5,5,0,x,2.6252795000000333,None,0,5,5,5,15.478056699999797,,,,,,,15.478056699999797,15.478056699999797,16.48501429999942,16.490257499999643,16.490257499999643,16.490257499999643,16.490257499999643,19.124152200000026,x,2.6252795000000333,None,16.490257499999643,16.490257499999643,,,,,,,,NU_th,001,2025-03-07_12h09.40.826,MainFlow,2024.2.4,142.47409108592194,2025-03-07 12h10.03.037624 +0700,
1,2,71,word/wordth0712.png,6,6,0,x,1.2764306999997643,None,0,6,6,6,19.12993859999915,,,,,,,19.12993859999915,19.12993859999915,20.142112099999395,20.148682000000008,20.148682000000008,20.148682000000008,20.148682000000008,21.429433599999356,x,1.2764306999997643,None,,,,,,,,,,NU_th,001,2025-03-07_12h09.40.826,MainFlow,2024.2.4,142.47409108592194,2025-03-07 12h10.03.037624 +0700,
1,3,44,word/wordth0443.png,7,7,0,x,0.9621816000008039,None,0,7,7,7,21.43549289999919,,,,,,,21.43549289999919,21.43549289999919,22.45182079999995,22.458372599999166,22.458372599999166,22.458372599999166,22.458372599999166,23.43009439999969,x,0.9621816000008039,None,22.458372599999166,22.458372599999166,,,,,,,,NU_th,001,2025-03-07_12h09.40.826,MainFlow,2024.2.4,142.47409108592194,2025-03-07 12h10.03.037624 +0700,
1,2,82,word/wordth0822.png,8,8,0,x,2.2735075000000506,None,0,8,8,8,23.435205899999346,,,,,,,23.435205899999346,23.435205899999346,24.440444599999864,24.445620799999233,24.445620799999233,24.445620799999233,24.445620799999233,26.727998200000002,x,2.2735075000000506,None,24.445620799999233,24.445620799999233,,,,,,,,NU_th,001,2025-03-07_12h09.40.826,MainFlow,2024.2.4,142.47409108592194,2025-03-07 12h10.03.037624 +0700,
1,2,28,word/wordth0282.png,9,9,0,x,1.6845673999996507,None,0,9,9,9,26.733912099999543,,,,,,,26.733912099999543,26.733912099999543,27.750241499999902,27.757024999999885,27.757024999999885,27.757024999999885,27.757024999999885,29.449626099999477,x,1.6845673999996507,None,27.757024999999885,27.757024999999885,,,,,,,,NU_th,001,2025-03-07_12h09.40.826,MainFlow,2024.2.4,142.47409108592194,2025-03-07 12h10.03.037624 +0700,
1,1,23,word/wordth0231.png,10,10,0,z,1.5056267999998454,None,0,10,10,10,29.456298099999913,,,,,,,29.456298099999913,29.456298099999913,30.471242899999197,30.477159299999585,30.477159299999585,30.477159299999585,30.477159299999585,31.989759299999605,z,1.5056267999998454,None,,,,,,,,,,NU_th,001,2025-03-07_12h09.40.826,MainFlow,2024.2.4,142.47409108592194,2025-03-07 12h10.03.037624 +0700,
1,2,63,word/wordth0632.png,11,11,0,x,1.430515099999866,None,0,11,11,11,31.99523169999975,,,,,,,31.99523169999975,31.99523169999975,33.005327199999556,33.0120723,33.0120723,33.0120723,33.0120723,34.44642349999958,x,1.430515099999866,None,,,,,,,,,,NU_th,001,2025-03-07_12h09.40.826,MainFlow,2024.2.4,142.47409108592194,2025-03-07 12h10.03.037624 +0700,
1,3,71,word/wordth0713.png,12,12,0,x,1.2462703999999576,None,0,12,12,12,34.45106029999988,,,,,,,34.45106029999988,34.45106029999988,35.46657109999978,35.4731213999994,35.4731213999994,35.4731213999994,35.4731213999994,36.725020799999584,x,1.2462703999999576,None,,,,,,,,,,NU_th,001,2025-03-07_12h09.40.826,MainFlow,2024.2.4,142.47409108592194,2025-03-07 12h10.03.037624 +0700,
1,1,1,word/wordth0011.png,13,13,0,z,1.2616588999999294,None,0,13,13,13,36.73091609999938,,,,,,,36.73091609999938,36.73091609999938,37.741314500000044,37.74796419999984,37.74796419999984,37.74796419999984,37.74796419999984,39.0158552999992,z,1.2616588999999294,None,,,,,,,,,,NU_th,001,2025-03-07_12h09.40.826,MainFlow,2024.2.4,142.47409108592194,2025-03-07 12h10.03.037624 +0700,
1,3,41,word/wordth0413.png,14,14,0,x,0.9472212000000582,None,0,14,14,14,39.02186419999998,,,,,,,39.02186419999998,39.02186419999998,40.03395999999975,40.040505299999495,40.040505299999495,40.040505299999495,40.040505299999495,40.994918999999754,x,0.9472212000000582,None,,,,,,,,,,NU_th,001,2025-03-07_12h09.40.826,MainFlow,2024.2.4,142.47409108592194,2025-03-07 12h10.03.037624 +0700,
1,2,64,word/wordth0642.png,15,15,0,x,1.126148700000158,None,0,15,15,15,41.00061529999948,,,,,,,41.00061529999948,41.00061529999948,42.010744899999736,42.01735469999949,42.01735469999949,42.01735469999949,42.01735469999949,43.147464199999376,x,1.126148700000158,None,,,,,,,,,,NU_th,001,2025-03-07_12h09.40.826,MainFlow,2024.2.4,142.47409108592194,2025-03-07 12h10.03.037624 +0700,
1,3,6,word/wordth0063.png,16,16,0,x,1.2420470999995814,None,0,16,16,16,43.153280199999244,,,,,,,43.153280199999244,43.153280199999244,44.16330579999976,44.16989149999972,44.16989149999972,44.16989149999972,44.16989149999972,45.41893879999952,x,1.2420470999995814,None,,,,,,,,,,NU_th,001,2025-03-07_12h09.40.826,MainFlow,2024.2.4,142.47409108592194,2025-03-07 12h10.03.037624 +0700,
1,2,31,word/wordth0312.png,17,17,0,x,1.051698899999792,None,0,17,17,17,45.42526259999977,,,,,,,45.42526259999977,45.42526259999977,46.44156219999968,46.44804039999963,46.44804039999963,46.44804039999963,46.44804039999963,47.5076083999993,x,1.051698899999792,None,,,,,,,,,,NU_th,001,2025-03-07_12h09.40.826,MainFlow,2024.2.4,142.47409108592194,2025-03-07 12h10.03.037624 +0700,
1,1,46,word/wordth0461.png,18,18,0,z,0.8882860000003348,None,0,18,18,18,47.51301279999916,,,,,,,47.51301279999916,47.51301279999916,48.513362899999265,48.51849719999973,48.51849719999973,48.51849719999973,48.51849719999973,49.41060209999978,z,0.8882860000003348,None,,,,,,,,,,NU_th,001,2025-03-07_12h09.40.826,MainFlow,2024.2.4,142.47409108592194,2025-03-07 12h10.03.037624 +0700,
1,3,51,word/wordth0513.png,19,19,0,x,1.0257123999999749,None,0,19,19,19,49.41698669999914,,,,,,,49.41698669999914,49.41698669999914,50.43263759999991,50.439183099999354,50.439183099999354,50.439183099999354,50.439183099999354,51.47228079999968,x,1.0257123999999749,None,50.439183099999354,50.439183099999354,,,,,,,,NU_th,001,2025-03-07_12h09.40.826,MainFlow,2024.2.4,142.47409108592194,2025-03-07 12h10.03.037624 +0700,
1,2,26,word/wordth0262.png,20,20,0,x,0.987997300000643,None,0,20,20,20,51.47751159999916,,,,,,,51.47751159999916,51.47751159999916,52.48909989999993,52.495645299999524,52.495645299999524,52.495645299999524,52.495645299999524,53.48605289999978,x,0.987997300000643,None,,,,,,,,,,NU_th,001,2025-03-07_12h09.40.826,MainFlow,2024.2.4,142.47409108592194,2025-03-07 12h10.03.037624 +0700,
1,2,96,word/wordth0962.png,21,21,0,x,1.113196500000413,None,0,21,21,21,53.49206319999939,,,,,,,53.49206319999939,53.49206319999939,54.51020609999978,54.516552899999624,54.516552899999624,54.516552899999624,54.516552899999624,55.638910299999225,x,1.113196500000413,None,54.516552899999624,54.516552899999624,,,,,,,,NU_th,001,2025-03-07_12h09.40.826,MainFlow,2024.2.4,142.47409108592194,2025-03-07 12h10.03.037624 +0700,
1,1,31,word/wordth0311.png,22,22,0,z,0.9771899999996094,None,0,22,22,22,55.6443806999996,,,,,,,55.6443806999996,55.6443806999996,56.65067969999927,56.65632259999984,56.65632259999984,56.65632259999984,56.65632259999984,57.63747279999916,z,0.9771899999996094,None,56.65632259999984,56.65632259999984,,,,,,,,NU_th,001,2025-03-07_12h09.40.826,MainFlow,2024.2.4,142.47409108592194,2025-03-07 12h10.03.037624 +0700,
1,2,94,word/wordth0942.png,23,23,0,x,0.964642100000674,None,0,23,23,23,57.644990299999336,,,,,,,57.644990299999336,57.644990299999336,58.65457900000001,58.66114579999976,58.66114579999976,58.66114579999976,58.66114579999976,59.63015279999945,x,0.964642100000674,None,,,,,,,,,,NU_th,001,2025-03-07_12h09.40.826,MainFlow,2024.2.4,142.47409108592194,2025-03-07 12h10.03.037624 +0700,
1,3,48,word/wordth0483.png,24,24,0,x,1.1528675999998086,None,0,24,24,24,59.63689669999985,,,,,,,59.63689669999985,59.63689669999985,60.6466219999993,60.6532488999992,60.6532488999992,60.6532488999992,60.6532488999992,61.81043189999946,x,1.1528675999998086,None,,,,,,,,,,NU_th,001,2025-03-07_12h09.40.826,MainFlow,2024.2.4,142.47409108592194,2025-03-07 12h10.03.037624 +0700,
1,3,24,word/wordth0243.png,25,25,0,x,1.1269867000000886,None,0,25,25,25,61.81748519999928,,,,,,,61.81748519999928,61.81748519999928,62.82797399999981,62.83439969999927,62.83439969999927,62.83439969999927,62.83439969999927,63.97123609999926,x,1.1269867000000886,None,,,,,,,,,,NU_th,001,2025-03-07_12h09.40.826,MainFlow,2024.2.4,142.47409108592194,2025-03-07 12h10.03.037624 +0700,
1,1,87,word/wordth0871.png,26,26,0,z,0.9976641000002928,None,0,26,26,26,63.97654469999998,,,,,,,63.97654469999998,63.97654469999998,64.9922891999995,64.99888419999934,64.99888419999934,64.99888419999934,64.99888419999934,66.00536719999945,z,0.9976641000002928,None,64.99888419999934,64.99888419999934,,,,,,,,NU_th,001,2025-03-07_12h09.40.826,MainFlow,2024.2.4,142.47409108592194,2025-03-07 12h10.03.037624 +0700,
1,2,51,word/wordth0512.png,27,27,0,x,1.007599300000038,None,0,27,27,27,66.01140119999945,,,,,,,66.01140119999945,66.01140119999945,67.0275761999992,67.0340985999992,67.0340985999992,67.0340985999992,67.0340985999992,68.0453066,x,1.007599300000038,None,67.0340985999992,67.0340985999992,,,,,,,,NU_th,001,2025-03-07_12h09.40.826,MainFlow,2024.2.4,142.47409108592194,2025-03-07 12h10.03.037624 +0700,
1,3,27,word/wordth0273.png,28,28,0,x,1.0998202000000674,None,0,28,28,28,68.05193879999933,,,,,,,68.05193879999933,68.05193879999933,69.06208409999999,69.06858589999956,69.06858589999956,69.06858589999956,69.06858589999956,70.17554579999978,x,1.0998202000000674,None,,,,,,,,,,NU_th,001,2025-03-07_12h09.40.826,MainFlow,2024.2.4,142.47409108592194,2025-03-07 12h10.03.037624 +0700,
1,2,22,word/wordth0222.png,29,29,0,x,1.0873049000001629,None,0,29,29,29,70.18031169999995,,,,,,,70.18031169999995,70.18031169999995,71.19672549999996,71.20303009999952,71.20303009999952,71.20303009999952,71.20303009999952,72.29355020000003,x,1.0873049000001629,None,,,,,,,,,,NU_th,001,2025-03-07_12h09.40.826,MainFlow,2024.2.4,142.47409108592194,2025-03-07 12h10.03.037624 +0700,
1,3,23,word/wordth0233.png,30,30,0,x,1.0864252000001215,None,0,30,30,30,72.29828379999981,,,,,,,72.29828379999981,72.29828379999981,73.31176839999989,73.31833229999938,73.31833229999938,73.31833229999938,73.31833229999938,74.41070529999979,x,1.0864252000001215,None,,,,,,,,,,NU_th,001,2025-03-07_12h09.40.826,MainFlow,2024.2.4,142.47409108592194,2025-03-07 12h10.03.037624 +0700,
1,1,48,word/wordth0481.png,31,31,0,z,1.0540529999998398,None,0,31,31,31,74.41562459999932,,,,,,,74.41562459999932,74.41562459999932,75.42917429999943,75.43550609999966,75.43550609999966,75.43550609999966,75.43550609999966,76.4948201999996,z,1.0540529999998398,None,,,,,,,,,,NU_th,001,2025-03-07_12h09.40.826,MainFlow,2024.2.4,142.47409108592194,2025-03-07 12h10.03.037624 +0700,
1,2,10,word/wordth0102.png,32,32,0,x,0.9808481000000029,None,0,32,32,32,76.50150289999965,,,,,,,76.50150289999965,76.50150289999965,77.5106939999996,77.51749459999974,77.51749459999974,77.51749459999974,77.51749459999974,78.50209689999974,x,0.9808481000000029,None,,,,,,,,,,NU_th,001,2025-03-07_12h09.40.826,MainFlow,2024.2.4,142.47409108592194,2025-03-07 12h10.03.037624 +0700,
1,3,64,word/wordth0643.png,33,33,0,x,1.2784949000006236,None,0,33,33,33,78.50789529999929,,,,,,,78.50789529999929,78.50789529999929,79.52434259999973,79.53132789999927,79.53132789999927,79.53132789999927,79.53132789999927,80.81350829999974,x,1.2784949000006236,None,79.53132789999927,79.53132789999927,,,,,,,,NU_th,001,2025-03-07_12h09.40.826,MainFlow,2024.2.4,142.47409108592194,2025-03-07 12h10.03.037624 +0700,
1,3,22,word/wordth0223.png,34,34,0,x,2.248626300000069,None,0,34,34,34,80.81952219999948,,,,,,,80.81952219999948,80.81952219999948,81.8294877999997,81.83623579999949,81.83623579999949,81.83623579999949,81.83623579999949,84.09057249999933,x,2.248626300000069,None,,,,,,,,,,NU_th,001,2025-03-07_12h09.40.826,MainFlow,2024.2.4,142.47409108592194,2025-03-07 12h10.03.037624 +0700,
1,1,42,word/wordth0421.png,35,35,0,z,0.9539337000005617,None,0,35,35,35,84.0971811999998,,,,,,,84.0971811999998,84.0971811999998,85.10955329999979,85.11620399999993,85.11620399999993,85.11620399999993,85.11620399999993,86.07680970000001,z,0.9539337000005617,None,,,,,,,,,,NU_th,001,2025-03-07_12h09.40.826,MainFlow,2024.2.4,142.47409108592194,2025-03-07 12h10.03.037624 +0700,
1,2,1,word/wordth0012.png,36,36,0,x,1.1508954000000813,None,0,36,36,36,86.08266639999965,,,,,,,86.08266639999965,86.08266639999965,87.09359229999973,87.09995239999989,87.09995239999989,87.09995239999989,87.09995239999989,88.25545309999961,x,1.1508954000000813,None,,,,,,,,,,NU_th,001,2025-03-07_12h09.40.826,MainFlow,2024.2.4,142.47409108592194,2025-03-07 12h10.03.037624 +0700,
1,1,82,word/wordth0821.png,37,37,0,z,1.546466199999486,None,0,37,37,37,88.26017739999952,,,,,,,88.26017739999952,88.26017739999952,89.27178289999938,89.27840799999922,89.27840799999922,89.27840799999922,89.27840799999922,90.83300309999959,z,1.546466199999486,None,,,,,,,,,,NU_th,001,2025-03-07_12h09.40.826,MainFlow,2024.2.4,142.47409108592194,2025-03-07 12h10.03.037624 +0700,
1,2,3,word/wordth0032.png,38,38,0,x,0.8120621999996729,None,0,38,38,38,90.8382331999992,,,,,,,90.8382331999992,90.8382331999992,91.8542880999994,91.86073859999942,91.86073859999942,91.86073859999942,91.86073859999942,92.68008229999941,x,0.8120621999996729,None,91.86073859999942,91.86073859999942,,,,,,,,NU_th,001,2025-03-07_12h09.40.826,MainFlow,2024.2.4,142.47409108592194,2025-03-07 12h10.03.037624 +0700,
1,1,68,word/wordth0681.png,39,39,0,z,1.2543634000003294,None,0,39,39,39,92.6853515999992,,,,,,,92.6853515999992,92.6853515999992,93.70318769999994,93.70984580000004,93.70984580000004,93.70984580000004,93.70984580000004,94.97103379999953,z,1.2543634000003294,None,93.70984580000004,93.70984580000004,,,,,,,,NU_th,001,2025-03-07_12h09.40.826,MainFlow,2024.2.4,142.47409108592194,2025-03-07 12h10.03.037624 +0700,
1,1,66,word/wordth0661.png,40,40,0,z,0.867011199999979,None,0,40,40,40,94.97621219999928,,,,,,,94.97621219999928,94.97621219999928,95.99301159999959,95.99925759999951,95.99925759999951,95.99925759999951,95.99925759999951,96.87186959999963,z,0.867011199999979,None,95.99925759999951,95.99925759999951,,,,,,,,NU_th,001,2025-03-07_12h09.40.826,MainFlow,2024.2.4,142.47409108592194,2025-03-07 12h10.03.037624 +0700,
1,2,42,word/wordth0422.png,41,41,0,x,0.789352400000098,None,0,41,41,41,96.87677059999987,,,,,,,96.87677059999987,96.87677059999987,97.89154329999928,97.89847719999943,97.89847719999943,97.89847719999943,97.89847719999943,98.69224849999955,x,0.789352400000098,None,,,,,,,,,,NU_th,001,2025-03-07_12h09.40.826,MainFlow,2024.2.4,142.47409108592194,2025-03-07 12h10.03.037624 +0700,
1,3,93,word/wordth0933.png,42,42,0,x,0.9950447999999597,None,0,42,42,42,98.69804639999984,,,,,,,98.69804639999984,98.69804639999984,99.70874269999968,99.71539819999998,99.71539819999998,99.71539819999998,99.71539819999998,100.71349369999916,x,0.9950447999999597,None,,,,,,,,,,NU_th,001,2025-03-07_12h09.40.826,MainFlow,2024.2.4,142.47409108592194,2025-03-07 12h10.03.037624 +0700,
1,1,71,word/wordth0711.png,43,43,0,z,1.1970979000006992,None,0,43,43,43,100.71999439999945,,,,,,,100.71999439999945,100.71999439999945,101.73782199999914,101.74459849999948,101.74459849999948,101.74459849999948,101.74459849999948,102.94858469999963,z,1.1970979000006992,None,101.74459849999948,101.74459849999948,,,,,,,,NU_th,001,2025-03-07_12h09.40.826,MainFlow,2024.2.4,142.47409108592194,2025-03-07 12h10.03.037624 +0700,
1,1,64,word/wordth0641.png,44,44,0,z,1.2908631000000241,None,0,44,44,44,102.95447459999923,,,,,,,102.95447459999923,102.95447459999923,103.96771089999947,103.97422939999979,103.97422939999979,103.97422939999979,103.97422939999979,105.26845119999962,z,1.2908631000000241,None,,,,,,,,,,NU_th,001,2025-03-07_12h09.40.826,MainFlow,2024.2.4,142.47409108592194,2025-03-07 12h10.03.037624 +0700,
1,1,88,word/wordth0881.png,45,45,0,z,1.4687362000004214,None,0,45,45,45,105.27466159999949,,,,,,,105.27466159999949,105.27466159999949,106.2917598999993,106.29833319999943,106.29833319999943,106.29833319999943,106.29833319999943,107.77372189999915,z,1.4687362000004214,None,,,,,,,,,,NU_th,001,2025-03-07_12h09.40.826,MainFlow,2024.2.4,142.47409108592194,2025-03-07 12h10.03.037624 +0700,
1,3,87,word/wordth0873.png,46,46,0,x,0.8462073000000601,None,0,46,46,46,107.77888149999944,,,,,,,107.77888149999944,107.77888149999944,108.78935019999972,108.7959822999992,108.7959822999992,108.7959822999992,108.7959822999992,109.64889799999946,x,0.8462073000000601,None,,,,,,,,,,NU_th,001,2025-03-07_12h09.40.826,MainFlow,2024.2.4,142.47409108592194,2025-03-07 12h10.03.037624 +0700,
1,3,3,word/wordth0033.png,47,47,0,x,1.5686278999992282,None,0,47,47,47,109.65421309999965,,,,,,,109.65421309999965,109.65421309999965,110.67152869999973,110.67929389999972,110.67929389999972,110.67929389999972,110.67929389999972,112.25097729999925,x,1.5686278999992282,None,110.67929389999972,110.67929389999972,,,,,,,,NU_th,001,2025-03-07_12h09.40.826,MainFlow,2024.2.4,142.47409108592194,2025-03-07 12h10.03.037624 +0700,
1,2,95,word/wordth0952.png,48,48,0,x,1.9601757000000362,None,0,48,48,48,112.25549919999958,,,,,,,112.25549919999958,112.25549919999958,113.26850249999916,113.27521279999928,113.27521279999928,113.27521279999928,113.27521279999928,115.2385233999994,x,1.9601757000000362,None,,,,,,,,,,NU_th,001,2025-03-07_12h09.40.826,MainFlow,2024.2.4,142.47409108592194,2025-03-07 12h10.03.037624 +0700,
1,1,11,word/wordth0111.png,49,49,0,z,1.0109182999995028,None,0,49,49,49,115.24433669999962,,,,,,,115.24433669999962,115.24433669999962,116.26251939999929,116.26905379999971,116.26905379999971,116.26905379999971,116.26905379999971,117.2876153999996,z,1.0109182999995028,None,116.26905379999971,116.26905379999971,,,,,,,,NU_th,001,2025-03-07_12h09.40.826,MainFlow,2024.2.4,142.47409108592194,2025-03-07 12h10.03.037624 +0700,
1,1,10,word/wordth0101.png,50,50,0,z,0.8241321000004973,None,0,50,50,50,117.29300319999948,,,,,,,117.29300319999948,117.29300319999948,118.30938589999914,118.31586979999975,118.31586979999975,118.31586979999975,118.31586979999975,119.14518229999976,z,0.8241321000004973,None,118.31586979999975,118.31586979999975,,,,,,,,NU_th,001,2025-03-07_12h09.40.826,MainFlow,2024.2.4,142.47409108592194,2025-03-07 12h10.03.037624 +0700,
1,1,44,word/wordth0441.png,51,51,0,z,1.045595399999911,None,0,51,51,51,119.1500274,,,,,,,119.1500274,119.1500274,120.16558179999993,120.17255619999924,120.17255619999924,120.17255619999924,120.17255619999924,121.2226157999994,z,1.045595399999911,None,,,,,,,,,,NU_th,001,2025-03-07_12h09.40.826,MainFlow,2024.2.4,142.47409108592194,2025-03-07 12h10.03.037624 +0700,
1,1,96,word/wordth0961.png,52,52,0,z,1.0996297000001505,None,0,52,52,52,121.22934949999944,,,,,,,121.22934949999944,121.22934949999944,122.23888829999942,122.24520419999953,122.24520419999953,122.24520419999953,122.24520419999953,123.34781539999949,z,1.0996297000001505,None,,,,,,,,,,NU_th,001,2025-03-07_12h09.40.826,MainFlow,2024.2.4,142.47409108592194,2025-03-07 12h10.03.037624 +0700,
1,2,27,word/wordth0272.png,53,53,0,x,1.235938100000567,None,0,53,53,53,123.35378279999986,,,,,,,123.35378279999986,123.35378279999986,124.37032699999963,124.37725890000002,124.37725890000002,124.37725890000002,124.37725890000002,125.61747560000003,x,1.235938100000567,None,124.37725890000002,124.37725890000002,,,,,,,,NU_th,001,2025-03-07_12h09.40.826,MainFlow,2024.2.4,142.47409108592194,2025-03-07 12h10.03.037624 +0700,
1,1,63,word/wordth0631.png,54,54,0,z,0.7155075000000579,None,0,54,54,54,125.6235788999993,,,,,,,125.6235788999993,125.6235788999993,126.63352469999973,126.64019799999915,126.64019799999915,126.64019799999915,126.64019799999915,127.3598495999995,z,0.7155075000000579,None,,,,,,,,,,NU_th,001,2025-03-07_12h09.40.826,MainFlow,2024.2.4,142.47409108592194,2025-03-07 12h10.03.037624 +0700,
1,3,66,word/wordth0663.png,55,55,0,x,1.1265924999997878,None,0,55,55,55,127.36581639999986,,,,,,,127.36581639999986,127.36581639999986,128.35786559999997,128.36226309999984,128.36226309999984,128.36226309999984,128.36226309999984,129.4929330999994,x,1.1265924999997878,None,,,,,,,,,,NU_th,001,2025-03-07_12h09.40.826,MainFlow,2024.2.4,142.47409108592194,2025-03-07 12h10.03.037624 +0700,
1,3,88,word/wordth0883.png,56,56,0,x,0.9230840000000171,None,0,56,56,56,129.4989784999998,,,,,,,129.4989784999998,129.4989784999998,130.5178931999999,130.52431629999955,130.52431629999955,130.52431629999955,130.52431629999955,131.44999919999918,x,0.9230840000000171,None,130.52431629999955,130.52431629999955,,,,,,,,NU_th,001,2025-03-07_12h09.40.826,MainFlow,2024.2.4,142.47409108592194,2025-03-07 12h10.03.037624 +0700,
1,3,96,word/wordth0963.png,57,57,0,x,1.4183917000000292,None,0,57,57,57,131.45650849999947,,,,,,,131.45650849999947,131.45650849999947,132.46058229999926,132.46532979999938,132.46532979999938,132.46532979999938,132.46532979999938,133.8870107999992,x,1.4183917000000292,None,132.46532979999938,132.46532979999938,,,,,,,,NU_th,001,2025-03-07_12h09.40.826,MainFlow,2024.2.4,142.47409108592194,2025-03-07 12h10.03.037624 +0700,
1,2,52,word/wordth0522.png,58,58,0,x,0.9346344999994471,None,0,58,58,58,133.89365399999951,,,,,,,133.89365399999951,133.89365399999951,134.90245079999931,134.90900069999952,134.90900069999952,134.90900069999952,134.90900069999952,135.85149779999938,x,0.9346344999994471,None,,,,,,,,,,NU_th,001,2025-03-07_12h09.40.826,MainFlow,2024.2.4,142.47409108592194,2025-03-07 12h10.03.037624 +0700,
1,3,50,word/wordth0503.png,59,59,0,x,0.9068194000001313,None,0,59,59,59,135.8567368999993,,,,,,,135.8567368999993,135.8567368999993,136.87036709999938,136.87737639999978,136.87737639999978,136.87737639999978,136.87737639999978,137.78872779999983,x,0.9068194000001313,None,,,,,,,,,,NU_th,001,2025-03-07_12h09.40.826,MainFlow,2024.2.4,142.47409108592194,2025-03-07 12h10.03.037624 +0700,
1,3,61,word/wordth0613.png,60,60,0,x,0.9950649000002159,None,0,60,60,60,137.79503849999946,,,,,,,137.79503849999946,137.79503849999946,138.80773189999945,138.81402249999974,138.81402249999974,138.81402249999974,138.81402249999974,139.81639059999998,x,0.9950649000002159,None,,,,,,,,,,NU_th,001,2025-03-07_12h09.40.826,MainFlow,2024.2.4,142.47409108592194,2025-03-07 12h10.03.037624 +0700,
1,2,46,word/wordth0462.png,61,61,0,x,0.9893597000000227,None,0,61,61,61,139.8216208999993,,,,,,,139.8216208999993,139.8216208999993,140.83403999999973,140.84067549999963,140.84067549999963,140.84067549999963,140.84067549999963,141.8366458999999,x,0.9893597000000227,None,,,,,,,,,,NU_th,001,2025-03-07_12h09.40.826,MainFlow,2024.2.4,142.47409108592194,2025-03-07 12h10.03.037624 +0700,
1,1,61,word/wordth0611.png,62,62,0,z,0.9858596999993097,None,0,62,62,62,141.84222839999984,,,,,,,141.84222839999984,141.84222839999984,142.8545927999994,142.8609962999999,142.8609962999999,142.8609962999999,142.8609962999999,143.85108219999984,z,0.9858596999993097,None,,,,,,,,,,NU_th,001,2025-03-07_12h09.40.826,MainFlow,2024.2.4,142.47409108592194,2025-03-07 12h10.03.037624 +0700,
1,1,24,word/wordth0241.png,63,63,0,z,0.9015240999997332,None,0,63,63,63,143.85709249999945,,,,,,,143.85709249999945,143.85709249999945,144.87262379999993,144.87897789999988,144.87897789999988,144.87897789999988,144.87897789999988,145.78778629999942,z,0.9015240999997332,None,144.87897789999988,144.87897789999988,,,,,,,,NU_th,001,2025-03-07_12h09.40.826,MainFlow,2024.2.4,142.47409108592194,2025-03-07 12h10.03.037624 +0700,
1,2,89,word/wordth0892.png,64,64,0,x,1.2647689000004902,None,0,64,64,64,145.7938678999999,,,,,,,145.7938678999999,145.7938678999999,146.81255069999952,146.81902209999953,146.81902209999953,146.81902209999953,146.81902209999953,148.09272259999943,x,1.2647689000004902,None,146.81902209999953,146.81902209999953,,,,,,,,NU_th,001,2025-03-07_12h09.40.826,MainFlow,2024.2.4,142.47409108592194,2025-03-07 12h10.03.037624 +0700,
1,1,30,word/wordth0301.png,65,65,0,z,0.8345727000005354,None,0,65,65,65,148.0988957999998,,,,,,,148.0988957999998,148.0988957999998,149.11007829999926,149.11696709999978,149.11696709999978,149.11696709999978,149.11696709999978,149.9609228999998,z,0.8345727000005354,None,,,,,,,,,,NU_th,001,2025-03-07_12h09.40.826,MainFlow,2024.2.4,142.47409108592194,2025-03-07 12h10.03.037624 +0700,
1,1,93,word/wordth0931.png,66,66,0,z,0.6737918999997419,None,0,66,66,66,149.9664032999999,,,,,,,149.9664032999999,149.9664032999999,150.98354799999925,150.99004019999938,150.99004019999938,150.99004019999938,150.99004019999938,151.6679755999994,z,0.6737918999997419,None,150.99004019999938,150.99004019999938,,,,,,,,NU_th,001,2025-03-07_12h09.40.826,MainFlow,2024.2.4,142.47409108592194,2025-03-07 12h10.03.037624 +0700,
1,1,50,word/wordth0501.png,67,67,0,z,0.814719399999376,None,0,67,67,67,151.67377039999974,,,,,,,151.67377039999974,151.67377039999974,152.68490929999916,152.69167709999965,152.69167709999965,152.69167709999965,152.69167709999965,153.51550839999982,z,0.814719399999376,None,,,,,,,,,,NU_th,001,2025-03-07_12h09.40.826,MainFlow,2024.2.4,142.47409108592194,2025-03-07 12h10.03.037624 +0700,
1,3,82,word/wordth0823.png,68,68,0,x,0.853168800000276,None,0,68,68,68,153.52222249999977,,,,,,,153.52222249999977,153.52222249999977,154.53861529999995,154.54504739999993,154.54504739999993,154.54504739999993,154.54504739999993,155.40365499999916,x,0.853168800000276,None,154.54504739999993,154.54504739999993,,,,,,,,NU_th,001,2025-03-07_12h09.40.826,MainFlow,2024.2.4,142.47409108592194,2025-03-07 12h10.03.037624 +0700,
1,1,27,word/wordth0271.png,69,69,0,z,1.514842000000499,None,0,69,69,69,155.40944479999962,,,,,,,155.40944479999962,155.40944479999962,156.41984259999936,156.42654389999916,156.42654389999916,156.42654389999916,156.42654389999916,157.94513789999928,z,1.514842000000499,None,,,,,,,,,,NU_th,001,2025-03-07_12h09.40.826,MainFlow,2024.2.4,142.47409108592194,2025-03-07 12h10.03.037624 +0700,
1,3,52,word/wordth0523.png,70,70,0,x,0.9975517000002583,None,0,70,70,70,157.95129709999946,,,,,,,157.95129709999946,157.95129709999946,158.9629402999999,158.96970109999984,158.96970109999984,158.96970109999984,158.96970109999984,159.97183529999984,x,0.9975517000002583,None,,,,,,,,,,NU_th,001,2025-03-07_12h09.40.826,MainFlow,2024.2.4,142.47409108592194,2025-03-07 12h10.03.037624 +0700,
1,1,22,word/wordth0221.png,71,71,0,z,0.751532600000246,None,0,71,71,71,159.97764799999914,,,,,,,159.97764799999914,159.97764799999914,160.98818239999946,160.99487679999947,160.99487679999947,160.99487679999947,160.99487679999947,161.74986949999948,z,0.751532600000246,None,,,,,,,,,,NU_th,001,2025-03-07_12h09.40.826,MainFlow,2024.2.4,142.47409108592194,2025-03-07 12h10.03.037624 +0700,
1,1,6,word/wordth0061.png,72,72,0,z,1.0567043000000922,None,0,72,72,72,161.75766379999914,,,,,,,161.75766379999914,161.75766379999914,162.77116149999983,162.77764799999932,162.77764799999932,162.77764799999932,162.77764799999932,163.83806699999968,z,1.0567043000000922,None,,,,,,,,,,NU_th,001,2025-03-07_12h09.40.826,MainFlow,2024.2.4,142.47409108592194,2025-03-07 12h10.03.037624 +0700,
1,2,30,word/wordth0302.png,73,73,0,x,0.8094559999999547,None,0,73,73,73,163.84275389999948,,,,,,,163.84275389999948,163.84275389999948,164.8563153999994,164.86298459999944,164.86298459999944,164.86298459999944,164.86298459999944,165.68030559999988,x,0.8094559999999547,None,,,,,,,,,,NU_th,001,2025-03-07_12h09.40.826,MainFlow,2024.2.4,142.47409108592194,2025-03-07 12h10.03.037624 +0700,
1,1,51,word/wordth0511.png,74,74,0,z,0.7202667999999903,None,0,74,74,74,165.68575129999954,,,,,,,165.68575129999954,165.68575129999954,166.70190659999935,166.70831179999914,166.70831179999914,166.70831179999914,166.70831179999914,167.43579839999984,z,0.7202667999999903,None,166.70831179999914,166.70831179999914,,,,,,,,NU_th,001,2025-03-07_12h09.40.826,MainFlow,2024.2.4,142.47409108592194,2025-03-07 12h10.03.037624 +0700,
1,2,50,word/wordth0502.png,75,75,0,x,0.7478289999999106,None,0,75,75,75,167.44150769999942,,,,,,,167.44150769999942,167.44150769999942,168.4478669,168.45308719999957,168.45308719999957,168.45308719999957,168.45308719999957,169.20621049999954,x,0.7478289999999106,None,168.45308719999957,168.45308719999957,,,,,,,,NU_th,001,2025-03-07_12h09.40.826,MainFlow,2024.2.4,142.47409108592194,2025-03-07 12h10.03.037624 +0700,
1,3,95,word/wordth0953.png,76,76,0,x,0.8698801000000458,None,0,76,76,76,169.21280209999986,,,,,,,169.21280209999986,169.21280209999986,170.2221628999996,170.22873329999948,170.22873329999948,170.22873329999948,170.22873329999948,171.10204720000002,x,0.8698801000000458,None,,,,,,,,,,NU_th,001,2025-03-07_12h09.40.826,MainFlow,2024.2.4,142.47409108592194,2025-03-07 12h10.03.037624 +0700,
1,1,75,word/wordth0751.png,77,77,0,z,0.9023379999998724,None,0,77,77,77,171.10787749999963,,,,,,,171.10787749999963,171.10787749999963,172.1248203999994,172.13181619999978,172.13181619999978,172.13181619999978,172.13181619999978,173.03780019999977,z,0.9023379999998724,None,172.13181619999978,172.13181619999978,,,,,,,,NU_th,001,2025-03-07_12h09.40.826,MainFlow,2024.2.4,142.47409108592194,2025-03-07 12h10.03.037624 +0700,
1,1,95,word/wordth0951.png,78,78,0,z,0.7813206000000719,None,0,78,78,78,173.0424691999997,,,,,,,173.0424691999997,173.0424691999997,174.05520159999924,174.06210219999957,174.06210219999957,174.06210219999957,174.06210219999957,174.85203319999982,z,0.7813206000000719,None,,,,,,,,,,NU_th,001,2025-03-07_12h09.40.826,MainFlow,2024.2.4,142.47409108592194,2025-03-07 12h10.03.037624 +0700,
1,2,8,word/wordth0082.png,79,79,0,x,0.7252521999998862,None,0,79,79,79,174.8571970999992,,,,,,,174.8571970999992,174.8571970999992,175.87547789999917,175.88189599999987,175.88189599999987,175.88189599999987,175.88189599999987,176.61338149999938,x,0.7252521999998862,None,175.88189599999987,175.88189599999987,,,,,,,,NU_th,001,2025-03-07_12h09.40.826,MainFlow,2024.2.4,142.47409108592194,2025-03-07 12h10.03.037624 +0700,
1,3,75,word/wordth0753.png,80,80,0,x,0.8905326999993122,None,0,80,80,80,176.61814649999997,,,,,,,176.61814649999997,176.61814649999997,177.63141189999988,177.63806029999978,177.63806029999978,177.63806029999978,177.63806029999978,178.53148859999965,x,0.8905326999993122,None,,,,,,,,,,NU_th,001,2025-03-07_12h09.40.826,MainFlow,2024.2.4,142.47409108592194,2025-03-07 12h10.03.037624 +0700,
1,1,28,word/wordth0281.png,81,81,0,z,1.0059551000003921,None,0,81,81,81,178.5374751999998,,,,,,,178.5374751999998,178.5374751999998,179.56108659999973,179.5651586999993,179.5651586999993,179.5651586999993,179.5651586999993,180.57793419999962,z,1.0059551000003921,None,179.5651586999993,179.5651586999993,,,,,,,,NU_th,001,2025-03-07_12h09.40.826,MainFlow,2024.2.4,142.47409108592194,2025-03-07 12h10.03.037624 +0700,
1,3,42,word/wordth0423.png,82,82,0,x,0.8050862999998571,None,0,82,82,82,180.5827531999994,,,,,,,180.5827531999994,180.5827531999994,181.59596499999952,181.6005800999992,181.6005800999992,181.6005800999992,181.6005800999992,182.41052209999998,x,0.8050862999998571,None,,,,,,,,,,NU_th,001,2025-03-07_12h09.40.826,MainFlow,2024.2.4,142.47409108592194,2025-03-07 12h10.03.037624 +0700,
1,3,46,word/wordth0463.png,83,83,0,x,0.8569074999995792,None,0,83,83,83,182.41589599999952,,,,,,,182.41589599999952,182.41589599999952,183.4282392999994,183.43188029999965,183.43188029999965,183.43188029999965,183.43188029999965,184.29205319999983,x,0.8569074999995792,None,,,,,,,,,,NU_th,001,2025-03-07_12h09.40.826,MainFlow,2024.2.4,142.47409108592194,2025-03-07 12h10.03.037624 +0700,
1,3,1,word/wordth0013.png,84,84,0,x,0.8762077999999747,None,0,84,84,84,184.29700749999938,,,,,,,184.29700749999938,184.29700749999938,185.30387829999927,185.30922389999978,185.30922389999978,185.30922389999978,185.30922389999978,186.18913819999943,x,0.8762077999999747,None,,,,,,,,,,NU_th,001,2025-03-07_12h09.40.826,MainFlow,2024.2.4,142.47409108592194,2025-03-07 12h10.03.037624 +0700,
1,2,70,word/wordth0702.png,85,85,0,x,1.599436199999218,None,0,85,85,85,186.1951182999992,,,,,,,186.1951182999992,186.1951182999992,187.20718309999938,187.21376220000002,187.21376220000002,187.21376220000002,187.21376220000002,188.82150249999995,x,1.599436199999218,None,,,,,,,,,,NU_th,001,2025-03-07_12h09.40.826,MainFlow,2024.2.4,142.47409108592194,2025-03-07 12h10.03.037624 +0700,
1,1,7,word/wordth0071.png,86,86,0,z,0.8074061999996047,None,0,86,86,86,188.82671689999916,,,,,,,188.82671689999916,188.82671689999916,189.84456359999967,189.8513355999994,189.8513355999994,189.8513355999994,189.8513355999994,190.66742819999945,z,0.8074061999996047,None,189.8513355999994,189.8513355999994,,,,,,,,NU_th,001,2025-03-07_12h09.40.826,MainFlow,2024.2.4,142.47409108592194,2025-03-07 12h10.03.037624 +0700,
1,2,7,word/wordth0072.png,87,87,0,x,1.0725388000000748,None,0,87,87,87,190.67337809999935,,,,,,,190.67337809999935,190.67337809999935,191.68417409999984,191.69054629999937,191.69054629999937,191.69054629999937,191.69054629999937,192.77211329999955,x,1.0725388000000748,None,,,,,,,,,,NU_th,001,2025-03-07_12h09.40.826,MainFlow,2024.2.4,142.47409108592194,2025-03-07 12h10.03.037624 +0700,
1,2,24,word/wordth0242.png,88,88,0,x,1.130116000000271,None,0,88,88,88,192.77782429999934,,,,,,,192.77782429999934,192.77782429999934,193.79619079999975,193.8030448999998,193.8030448999998,193.8030448999998,193.8030448999998,194.93765639999947,x,1.130116000000271,None,193.8030448999998,193.8030448999998,,,,,,,,NU_th,001,2025-03-07_12h09.40.826,MainFlow,2024.2.4,142.47409108592194,2025-03-07 12h10.03.037624 +0700,
1,3,26,word/wordth0263.png,89,89,0,x,0.9038622999996733,None,0,89,89,89,194.94453049999993,,,,,,,194.94453049999993,194.94453049999993,195.9565402999997,195.96301479999966,195.96301479999966,195.96301479999966,195.96301479999966,196.87491049999971,x,0.9038622999996733,None,,,,,,,,,,NU_th,001,2025-03-07_12h09.40.826,MainFlow,2024.2.4,142.47409108592194,2025-03-07 12h10.03.037624 +0700,
1,2,23,word/wordth0232.png,90,90,0,x,0.8206323000003977,None,0,90,90,90,196.88019799999984,,,,,,,196.88019799999984,196.88019799999984,197.8937434999998,197.90082719999918,197.90082719999918,197.90082719999918,197.90082719999918,198.72832299999936,x,0.8206323000003977,None,,,,,,,,,,NU_th,001,2025-03-07_12h09.40.826,MainFlow,2024.2.4,142.47409108592194,2025-03-07 12h10.03.037624 +0700,
1,2,75,word/wordth0752.png,91,91,0,x,0.8397325000005367,None,0,91,91,91,198.73366299999998,,,,,,,198.73366299999998,198.73366299999998,199.72648169999957,199.7306294,199.7306294,199.7306294,199.7306294,200.57519519999914,x,0.8397325000005367,None,,,,,,,,,,NU_th,001,2025-03-07_12h09.40.826,MainFlow,2024.2.4,142.47409108592194,2025-03-07 12h10.03.037624 +0700,
1,2,6,word/wordth0062.png,92,92,0,x,0.9003304999996544,None,0,92,92,92,200.58158019999973,,,,,,,200.58158019999973,200.58158019999973,201.5927312999993,201.5994544999994,201.5994544999994,201.5994544999994,201.5994544999994,202.50510450000002,x,0.9003304999996544,None,,,,,,,,,,NU_th,001,2025-03-07_12h09.40.826,MainFlow,2024.2.4,142.47409108592194,2025-03-07 12h10.03.037624 +0700,
1,2,93,word/wordth0932.png,93,93,0,x,0.7239487999995617,None,0,93,93,93,202.51137219999964,,,,,,,202.51137219999964,202.51137219999964,203.5236329999998,203.52995179999925,203.52995179999925,203.52995179999925,203.52995179999925,204.2605752999998,x,0.7239487999995617,None,,,,,,,,,,NU_th,001,2025-03-07_12h09.40.826,MainFlow,2024.2.4,142.47409108592194,2025-03-07 12h10.03.037624 +0700,
1,2,48,word/wordth0482.png,94,94,0,x,1.1326176000002306,None,0,94,94,94,204.26546379999945,,,,,,,204.26546379999945,204.26546379999945,205.2798516999992,205.28647849999925,205.28647849999925,205.28647849999925,205.28647849999925,206.42172309999933,x,1.1326176000002306,None,,,,,,,,,,NU_th,001,2025-03-07_12h09.40.826,MainFlow,2024.2.4,142.47409108592194,2025-03-07 12h10.03.037624 +0700,
1,1,70,word/wordth0701.png,95,95,0,z,0.8966066000002684,None,0,95,95,95,206.4276749999999,,,,,,,206.4276749999999,206.4276749999999,207.43957599999976,207.4462012999993,207.4462012999993,207.4462012999993,207.4462012999993,208.35288939999919,z,0.8966066000002684,None,,,,,,,,,,NU_th,001,2025-03-07_12h09.40.826,MainFlow,2024.2.4,142.47409108592194,2025-03-07 12h10.03.037624 +0700,
1,2,66,word/wordth0662.png,96,96,0,x,0.9192042000004221,None,0,96,96,96,208.35830889999943,,,,,,,208.35830889999943,208.35830889999943,209.37574049999967,209.38248609999937,209.38248609999937,209.38248609999937,209.38248609999937,210.30949299999975,x,0.9192042000004221,None,209.38248609999937,209.38248609999937,,,,,,,,NU_th,001,2025-03-07_12h09.40.826,MainFlow,2024.2.4,142.47409108592194,2025-03-07 12h10.03.037624 +0700,
1,1,26,word/wordth0261.png,97,97,0,z,1.5355761000000712,None,0,97,97,97,210.3158100999999,,,,,,,210.3158100999999,210.3158100999999,211.3278946999999,211.33451960000002,211.33451960000002,211.33451960000002,211.33451960000002,212.8728913999994,z,1.5355761000000712,None,,,,,,,,,,NU_th,001,2025-03-07_12h09.40.826,MainFlow,2024.2.4,142.47409108592194,2025-03-07 12h10.03.037624 +0700,
1,3,9,word/wordth0093.png,98,98,0,x,1.1929285999995045,None,0,98,98,98,212.87928679999914,,,,,,,212.87928679999914,212.87928679999914,213.89679329999944,213.9035740999998,213.9035740999998,213.9035740999998,213.9035740999998,215.0998996999997,x,1.1929285999995045,None,,,,,,,,,,NU_th,001,2025-03-07_12h09.40.826,MainFlow,2024.2.4,142.47409108592194,2025-03-07 12h10.03.037624 +0700,
1,2,61,word/wordth0612.png,99,99,0,x,0.9262545999999929,None,0,99,99,99,215.10580859999936,,,,,,,215.10580859999936,215.10580859999936,216.1218614999998,216.12864329999957,216.12864329999957,216.12864329999957,216.12864329999957,217.05831379999927,x,0.9262545999999929,None,,,,,,,,,,NU_th,001,2025-03-07_12h09.40.826,MainFlow,2024.2.4,142.47409108592194,2025-03-07 12h10.03.037624 +0700,
1,3,8,word/wordth0083.png,100,100,0,x,0.8057153999998263,None,0,100,100,100,217.0649481999999,,,,,,,217.0649481999999,217.0649481999999,218.07855759999984,218.08541530000002,218.08541530000002,218.08541530000002,218.08541530000002,218.89838269999927,x,0.8057153999998263,None,,,,,,,,,,NU_th,001,2025-03-07_12h09.40.826,MainFlow,2024.2.4,142.47409108592194,2025-03-07 12h10.03.037624 +0700,
1,1,8,word/wordth0081.png,101,101,0,z,0.8085166999999274,None,0,101,101,101,218.9041054999998,,,,,,,218.9041054999998,218.9041054999998,219.92436689999977,219.9308431999998,219.9308431999998,219.9308431999998,219.9308431999998,220.7456457999997,z,0.8085166999999274,None,219.9308431999998,219.9308431999998,,,,,,,,NU_th,001,2025-03-07_12h09.40.826,MainFlow,2024.2.4,142.47409108592194,2025-03-07 12h10.03.037624 +0700,
1,2,44,word/wordth0442.png,102,102,0,x,1.5388470000007146,None,0,102,102,102,220.7521872999996,,,,,,,220.7521872999996,220.7521872999996,221.76987689999987,221.77658979999978,221.77658979999978,221.77658979999978,221.77658979999978,223.32052779999958,x,1.5388470000007146,None,221.77658979999978,221.77658979999978,,,,,,,,NU_th,001,2025-03-07_12h09.40.826,MainFlow,2024.2.4,142.47409108592194,2025-03-07 12h10.03.037624 +0700,
1,3,31,word/wordth0313.png,103,103,0,x,1.5003693999997267,None,0,103,103,103,223.32642039999973,,,,,,,223.32642039999973,223.32642039999973,224.33989199999996,224.34634769999957,224.34634769999957,224.34634769999957,224.34634769999957,225.85622839999996,x,1.5003693999997267,None,,,,,,,,,,NU_th,001,2025-03-07_12h09.40.826,MainFlow,2024.2.4,142.47409108592194,2025-03-07 12h10.03.037624 +0700,
1,1,89,word/wordth0891.png,104,104,0,z,0.9539963000006537,None,0,104,104,104,225.86261709999962,,,,,,,225.86261709999962,225.86261709999962,226.88070549999975,226.88715989999946,226.88715989999946,226.88715989999946,226.88715989999946,227.84880909999993,z,0.9539963000006537,None,,,,,,,,,,NU_th,001,2025-03-07_12h09.40.826,MainFlow,2024.2.4,142.47409108592194,2025-03-07 12h10.03.037624 +0700,
1,3,70,word/wordth0703.png,105,105,0,x,1.4656850000001214,None,0,105,105,105,227.85489159999997,,,,,,,227.85489159999997,227.85489159999997,228.87422799999968,228.8810337999994,228.8810337999994,228.8810337999994,228.8810337999994,230.35396799999944,x,1.4656850000001214,None,228.8810337999994,228.8810337999994,,,,,,,,NU_th,001,2025-03-07_12h09.40.826,MainFlow,2024.2.4,142.47409108592194,2025-03-07 12h10.03.037624 +0700,
1,3,68,word/wordth0683.png,106,106,0,x,0.722674200000256,None,0,106,106,106,230.35914969999976,,,,,,,230.35914969999976,230.35914969999976,231.37114699999984,231.37759339999957,231.37759339999957,231.37759339999957,231.37759339999957,232.10361339999963,x,0.722674200000256,None,,,,,,,,,,NU_th,001,2025-03-07_12h09.40.826,MainFlow,2024.2.4,142.47409108592194,2025-03-07 12h10.03.037624 +0700,
1,3,10,word/wordth0103.png,107,107,0,x,0.8683876999994027,None,0,107,107,107,232.10957079999935,,,,,,,232.10957079999935,232.10957079999935,233.12221839999984,233.12896849999925,233.12896849999925,233.12896849999925,233.12896849999925,233.99994069999957,x,0.8683876999994027,None,,,,,,,,,,NU_th,001,2025-03-07_12h09.40.826,MainFlow,2024.2.4,142.47409108592194,2025-03-07 12h10.03.037624 +0700,
1,3,94,word/wordth0943.png,108,108,0,x,0.772168700000293,None,0,108,108,108,234.00610699999925,,,,,,,234.00610699999925,234.00610699999925,235.02472019999914,235.03108059999977,235.03108059999977,235.03108059999977,235.03108059999977,235.81291449999935,x,0.772168700000293,None,235.03108059999977,235.03108059999977,,,,,,,,NU_th,001,2025-03-07_12h09.40.826,MainFlow,2024.2.4,142.47409108592194,2025-03-07 12h10.03.037624 +0700,
1,1,3,word/wordth0031.png,109,109,0,z,0.8472506999996767,None,0,109,109,109,235.8188502999992,,,,,,,235.8188502999992,235.8188502999992,236.83507689999988,236.8417385999992,236.8417385999992,236.8417385999992,236.8417385999992,237.69310369999948,z,0.8472506999996767,None,236.8417385999992,236.8417385999992,,,,,,,,NU_th,001,2025-03-07_12h09.40.826,MainFlow,2024.2.4,142.47409108592194,2025-03-07 12h10.03.037624 +0700,
1,3,63,word/wordth0633.png,110,110,0,x,0.8345458000003418,None,0,110,110,110,237.6991900999992,,,,,,,237.6991900999992,237.6991900999992,238.71212109999942,238.72091739999996,238.72091739999996,238.72091739999996,238.72091739999996,239.5607143999996,x,0.8345458000003418,None,,,,,,,,,,NU_th,001,2025-03-07_12h09.40.826,MainFlow,2024.2.4,142.47409108592194,2025-03-07 12h10.03.037624 +0700,
1,2,9,word/wordth0092.png,111,111,0,x,1.3605359999992288,None,0,111,111,111,239.5671668999994,,,,,,,239.5671668999994,239.5671668999994,240.58170419999988,240.5888286999998,240.5888286999998,240.5888286999998,240.5888286999998,241.9571260999992,x,1.3605359999992288,None,,,,,,,,,,NU_th,001,2025-03-07_12h09.40.826,MainFlow,2024.2.4,142.47409108592194,2025-03-07 12h10.03.037624 +0700,
1,3,7,word/wordth0073.png,112,112,0,x,1.335599999999431,None,0,112,112,112,241.96264079999946,,,,,,,241.96264079999946,241.96264079999946,242.98254129999987,242.98894389999987,242.98894389999987,242.98894389999987,242.98894389999987,244.32920529999956,x,1.335599999999431,None,242.98894389999987,242.98894389999987,,,,,,,,NU_th,001,2025-03-07_12h09.40.826,MainFlow,2024.2.4,142.47409108592194,2025-03-07 12h10.03.037624 +0700,
1,2,41,word/wordth0412.png,113,113,0,x,1.0046593000006396,None,0,113,113,113,244.33414969999922,,,,,,,244.33414969999922,244.33414969999922,245.35033209999983,245.3568218999999,245.3568218999999,245.3568218999999,245.3568218999999,246.36531169999944,x,1.0046593000006396,None,,,,,,,,,,NU_th,001,2025-03-07_12h09.40.826,MainFlow,2024.2.4,142.47409108592194,2025-03-07 12h10.03.037624 +0700,
1,1,9,word/wordth0091.png,114,114,0,z,0.863507899999604,None,0,114,114,114,246.37204089999977,,,,,,,246.37204089999977,246.37204089999977,247.39072939999915,247.3972965999992,247.3972965999992,247.3972965999992,247.3972965999992,248.26717579999968,z,0.863507899999604,None,,,,,,,,,,NU_th,001,2025-03-07_12h09.40.826,MainFlow,2024.2.4,142.47409108592194,2025-03-07 12h10.03.037624 +0700,
1,1,94,word/wordth0941.png,115,115,0,z,0.8653764000000592,None,0,115,115,115,248.2725891,,,,,,,248.2725891,248.2725891,249.28643209999973,249.29328050000004,249.29328050000004,249.29328050000004,249.29328050000004,250.1631067999997,z,0.8653764000000592,None,,,,,,,,,,NU_th,001,2025-03-07_12h09.40.826,MainFlow,2024.2.4,142.47409108592194,2025-03-07 12h10.03.037624 +0700,
1,1,52,word/wordth0521.png,116,116,0,z,0.5963824999998906,None,0,116,116,116,250.17026969999915,,,,,,,250.17026969999915,250.17026969999915,251.18706979999934,251.19335709999996,251.19335709999996,251.19335709999996,251.19335709999996,251.79441159999988,z,0.5963824999998906,None,,,,,,,,,,NU_th,001,2025-03-07_12h09.40.826,MainFlow,2024.2.4,142.47409108592194,2025-03-07 12h10.03.037624 +0700,
1,2,88,word/wordth0882.png,117,117,0,x,0.6860957999997481,None,0,117,117,117,251.8006822999996,,,,,,,251.8006822999996,251.8006822999996,252.81407449999915,252.82060309999997,252.82060309999997,252.82060309999997,252.82060309999997,253.5098812999995,x,0.6860957999997481,None,,,,,,,,,,NU_th,001,2025-03-07_12h09.40.826,MainFlow,2024.2.4,142.47409108592194,2025-03-07 12h10.03.037624 +0700,
1,1,41,word/wordth0411.png,118,118,0,z,0.9852134000002479,None,0,118,118,118,253.51708099999996,,,,,,,253.51708099999996,253.51708099999996,254.53449289999935,254.5408940999996,254.5408940999996,254.5408940999996,254.5408940999996,255.52998899999966,z,0.9852134000002479,None,,,,,,,,,,NU_th,001,2025-03-07_12h09.40.826,MainFlow,2024.2.4,142.47409108592194,2025-03-07 12h10.03.037624 +0700,
1,3,30,word/wordth0303.png,119,119,0,x,1.5076552999998967,None,0,119,119,119,255.53667979999955,,,,,,,255.53667979999955,255.53667979999955,256.5483469999999,256.55498850000004,256.55498850000004,256.55498850000004,256.55498850000004,258.07151350000004,x,1.5076552999998967,None,,,,,,,,,,NU_th,001,2025-03-07_12h09.40.826,MainFlow,2024.2.4,142.47409108592194,2025-03-07 12h10.03.037624 +0700,
,,,,,,,,,,,,,,,,,,,,,,,,,,,,,,,,,,258.07186789999923,258.0795580999993,258.0795580999993,261.08448699999917,space,3.0012016999999105,None,NU_th,001,2025-03-07_12h09.40.826,MainFlow,2024.2.4,142.47409108592194,2025-03-07 12h10.03.037624 +0700,
