lang,stimuli,imageid,worddir,thisN,thisTrialN,thisRepN,key_resp.keys,key_resp.rt,key_resp.duration,trials.thisRepN,trials.thisTrialN,trials.thisN,trials.thisIndex,thisRow.t,notes,tutorial.started,tutorial.stopped,key_instruct.keys,key_instruct.rt,key_instruct.duration,instructblank.started,cross1.started,letterselect.started,imageword.started,text_2.started,cross2.started,key_resp.started,letterselect.stopped,trials.key_resp.keys,trials.key_resp.rt,trials.key_resp.duration,instructblank.stopped,cross1.stopped,ending.started,text_3.started,ending_key.started,ending.stopped,ending_key.keys,ending_key.rt,ending_key.duration,participant,session,date,expName,psychopyVersion,frameRate,expStart,
,,,,,,,,,,,,,,,,0.0027709000278264284,4.612438499927521,space,4.588713699951768,None,,,,,,,,,,,,,,,,,,,,,PH_th,001,2025-03-09_20h55.09.069,MainFlow,2024.2.4,144.55128392900463,2025-03-09 20h55.59.511021 +0700,
1,3,89,word/wordth0893.png,0,0,0,x,2.0545074000256136,None,0,0,0,0,4.6391077999724075,,,,,,,4.6391077999724075,4.6391077999724075,5.610669899964705,5.615251899929717,5.615251899929717,5.615251899929717,5.615251899929717,7.672031700029038,x,2.0545074000256136,None,,,,,,,,,,PH_th,001,2025-03-09_20h55.09.069,MainFlow,2024.2.4,144.55128392900463,2025-03-09 20h55.59.511021 +0700,
1,3,28,word/wordth0283.png,1,1,0,x,1.0407594999996945,None,0,1,1,1,7.678423199919052,,,,,,,7.678423199919052,7.678423199919052,8.665866800001822,8.669890600023791,8.669890600023791,8.669890600023791,8.669890600023791,9.713235799921677,x,1.0407594999996945,None,,,,,,,,,,PH_th,001,2025-03-09_20h55.09.069,MainFlow,2024.2.4,144.55128392900463,2025-03-09 20h55.59.511021 +0700,
1,2,87,word/wordth0872.png,2,2,0,x,2.033671800047159,None,0,2,2,2,9.719685800024308,,,,,,,9.719685800024308,9.719685800024308,10.707585599971935,10.712052599992603,10.712052599992603,10.712052599992603,10.712052599992603,12.75203319999855,x,2.033671800047159,None,,,,,,,,,,PH_th,001,2025-03-09_20h55.09.069,MainFlow,2024.2.4,144.55128392900463,2025-03-09 20h55.59.511021 +0700,
1,2,68,word/wordth0682.png,3,3,0,x,1.154673399985768,None,0,3,3,3,12.758243200019933,,,,,,,12.758243200019933,12.758243200019933,13.746367499930784,13.750723999924958,13.750723999924958,13.750723999924958,13.750723999924958,14.91181169997435,x,1.154673399985768,None,,,,,,,,,,PH_th,001,2025-03-09_20h55.09.069,MainFlow,2024.2.4,144.55128392900463,2025-03-09 20h55.59.511021 +0700,
1,2,11,word/wordth0112.png,4,4,0,x,0.6047587000066414,None,0,4,4,4,14.918299500015564,,,,,,,14.918299500015564,14.918299500015564,15.90594109997619,15.910646199947223,15.910646199947223,15.910646199947223,15.910646199947223,16.516294899978675,x,0.6047587000066414,None,,,,,,,,,,PH_th,001,2025-03-09_20h55.09.069,MainFlow,2024.2.4,144.55128392900463,2025-03-09 20h55.59.511021 +0700,
1,3,11,word/wordth0113.png,5,5,0,x,0.5547723000636324,None,0,5,5,5,16.522542499937117,,,,,,,16.522542499937117,16.522542499937117,17.50994269992225,17.514445999986492,17.514445999986492,17.514445999986492,17.514445999986492,18.071923399926163,x,0.5547723000636324,None,,,,,,,,,,PH_th,001,2025-03-09_20h55.09.069,MainFlow,2024.2.4,144.55128392900463,2025-03-09 20h55.59.511021 +0700,
1,2,71,word/wordth0712.png,6,6,0,x,0.7700885999947786,None,0,6,6,6,18.07827149995137,,,,,,,18.07827149995137,18.07827149995137,19.06687029998284,19.070913799921982,19.070913799921982,19.070913799921982,19.070913799921982,19.843537400010973,x,0.7700885999947786,None,,,,,,,,,,PH_th,001,2025-03-09_20h55.09.069,MainFlow,2024.2.4,144.55128392900463,2025-03-09 20h55.59.511021 +0700,
1,3,44,word/wordth0443.png,7,7,0,x,4.2193650000263005,None,0,7,7,7,19.84976279991679,,,,,,,19.84976279991679,19.84976279991679,20.837911800015718,20.84247699996922,20.84247699996922,20.84247699996922,20.84247699996922,25.069104700000025,x,4.2193650000263005,None,,,,,,,,,,PH_th,001,2025-03-09_20h55.09.069,MainFlow,2024.2.4,144.55128392900463,2025-03-09 20h55.59.511021 +0700,
1,2,82,word/wordth0822.png,8,8,0,x,0.86364280001726,None,0,8,8,8,25.075598699972034,,,,,,,25.075598699972034,25.075598699972034,26.0627418999793,26.06710009998642,26.06710009998642,26.06710009998642,26.06710009998642,26.933235400007106,x,0.86364280001726,None,,,,,,,,,,PH_th,001,2025-03-09_20h55.09.069,MainFlow,2024.2.4,144.55128392900463,2025-03-09 20h55.59.511021 +0700,
1,2,28,word/wordth0282.png,9,9,0,x,1.5119390999898314,None,0,9,9,9,26.940112599986605,,,,,,,26.940112599986605,26.940112599986605,27.924547599977814,27.928917499957606,27.928917499957606,27.928917499957606,27.928917499957606,29.446458799997345,x,1.5119390999898314,None,,,,,,,,,,PH_th,001,2025-03-09_20h55.09.069,MainFlow,2024.2.4,144.55128392900463,2025-03-09 20h55.59.511021 +0700,
1,1,23,word/wordth0231.png,10,10,0,z,1.1085382000310346,None,0,10,10,10,29.45305519993417,,,,,,,29.45305519993417,29.45305519993417,30.437939499970526,30.44263119995594,30.44263119995594,30.44263119995594,30.44263119995594,31.555216999957338,z,1.1085382000310346,None,,,,,,,,,,PH_th,001,2025-03-09_20h55.09.069,MainFlow,2024.2.4,144.55128392900463,2025-03-09 20h55.59.511021 +0700,
1,2,63,word/wordth0632.png,11,11,0,x,1.1055018999613822,None,0,11,11,11,31.56158660002984,,,,,,,31.56158660002984,31.56158660002984,32.546307799988426,32.55062049999833,32.55062049999833,32.55062049999833,32.55062049999833,33.656965899979696,x,1.1055018999613822,None,,,,,,,,,,PH_th,001,2025-03-09_20h55.09.069,MainFlow,2024.2.4,144.55128392900463,2025-03-09 20h55.59.511021 +0700,
1,3,71,word/wordth0713.png,12,12,0,x,1.1642058999277651,None,0,12,12,12,33.66317069996148,,,,,,,33.66317069996148,33.66317069996148,34.65226709994022,34.65693870000541,34.65693870000541,34.65693870000541,34.65693870000541,35.82490509992931,x,1.1642058999277651,None,,,,,,,,,,PH_th,001,2025-03-09_20h55.09.069,MainFlow,2024.2.4,144.55128392900463,2025-03-09 20h55.59.511021 +0700,
1,1,1,word/wordth0011.png,13,13,0,z,0.9379376999568194,None,0,13,13,13,35.831342199933715,,,,,,,35.831342199933715,35.831342199933715,36.81934089993592,36.82384389999788,36.82384389999788,36.82384389999788,36.82384389999788,37.76275549991988,z,0.9379376999568194,None,,,,,,,,,,PH_th,001,2025-03-09_20h55.09.069,MainFlow,2024.2.4,144.55128392900463,2025-03-09 20h55.59.511021 +0700,
1,3,41,word/wordth0413.png,14,14,0,x,1.4935324999969453,None,0,14,14,14,37.76912770001218,,,,,,,37.76912770001218,37.76912770001218,38.75922929996159,38.76773299998604,38.76773299998604,38.76773299998604,38.76773299998604,40.26669860002585,x,1.4935324999969453,None,,,,,,,,,,PH_th,001,2025-03-09_20h55.09.069,MainFlow,2024.2.4,144.55128392900463,2025-03-09 20h55.59.511021 +0700,
1,2,64,word/wordth0642.png,15,15,0,x,0.846395600005053,None,0,15,15,15,40.27302620001137,,,,,,,40.27302620001137,40.27302620001137,41.26104110002052,41.26524719991721,41.26524719991721,41.26524719991721,41.26524719991721,42.114412499940954,x,0.846395600005053,None,,,,,,,,,,PH_th,001,2025-03-09_20h55.09.069,MainFlow,2024.2.4,144.55128392900463,2025-03-09 20h55.59.511021 +0700,
1,3,6,word/wordth0063.png,16,16,0,x,1.0270451999967918,None,0,16,16,16,42.120827300008386,,,,,,,42.120827300008386,42.120827300008386,43.10820050002076,43.1145789999282,43.1145789999282,43.1145789999282,43.1145789999282,44.14311369997449,x,1.0270451999967918,None,,,,,,,,,,PH_th,001,2025-03-09_20h55.09.069,MainFlow,2024.2.4,144.55128392900463,2025-03-09 20h55.59.511021 +0700,
1,2,31,word/wordth0312.png,17,17,0,x,0.5700301999459043,None,0,17,17,17,44.14954839996062,,,,,,,44.14954839996062,44.14954839996062,45.137231900007464,45.14615339995362,45.14615339995362,45.14615339995362,45.14615339995362,45.72180319996551,x,0.5700301999459043,None,,,,,,,,,,PH_th,001,2025-03-09_20h55.09.069,MainFlow,2024.2.4,144.55128392900463,2025-03-09 20h55.59.511021 +0700,
1,1,46,word/wordth0461.png,18,18,0,z,0.6666831999318674,None,0,18,18,18,45.728229200001806,,,,,,,45.728229200001806,45.728229200001806,46.71611879998818,46.72014520002995,46.72014520002995,46.72014520002995,46.72014520002995,47.390727999969386,z,0.6666831999318674,None,,,,,,,,,,PH_th,001,2025-03-09_20h55.09.069,MainFlow,2024.2.4,144.55128392900463,2025-03-09 20h55.59.511021 +0700,
1,3,51,word/wordth0513.png,19,19,0,x,0.8329501000698656,None,0,19,19,19,47.396801299997605,,,,,,,47.396801299997605,47.396801299997605,48.384006900014356,48.38807019998785,48.38807019998785,48.38807019998785,48.38807019998785,49.22401180001907,x,0.8329501000698656,None,,,,,,,,,,PH_th,001,2025-03-09_20h55.09.069,MainFlow,2024.2.4,144.55128392900463,2025-03-09 20h55.59.511021 +0700,
1,2,26,word/wordth0262.png,20,20,0,x,0.9299680000403896,None,0,20,20,20,49.23040320002474,,,,,,,49.23040320002474,49.23040320002474,50.22206139995251,50.22640009992756,50.22640009992756,50.22640009992756,50.22640009992756,51.158382799942046,x,0.9299680000403896,None,50.22640009992756,50.22640009992756,,,,,,,,PH_th,001,2025-03-09_20h55.09.069,MainFlow,2024.2.4,144.55128392900463,2025-03-09 20h55.59.511021 +0700,
1,2,96,word/wordth0962.png,21,21,0,x,0.6430011999327689,None,0,21,21,21,51.164770699921064,,,,,,,51.164770699921064,51.164770699921064,52.15365009999368,52.15789539995603,52.15789539995603,52.15789539995603,52.15789539995603,52.80603229999542,x,0.6430011999327689,None,,,,,,,,,,PH_th,001,2025-03-09_20h55.09.069,MainFlow,2024.2.4,144.55128392900463,2025-03-09 20h55.59.511021 +0700,
1,1,31,word/wordth0311.png,22,22,0,z,0.6328671000665054,None,0,22,22,22,52.813258299953304,,,,,,,52.813258299953304,52.813258299953304,53.79913529998157,53.80359040002804,53.80359040002804,53.80359040002804,53.80359040002804,54.43949020002037,z,0.6328671000665054,None,,,,,,,,,,PH_th,001,2025-03-09_20h55.09.069,MainFlow,2024.2.4,144.55128392900463,2025-03-09 20h55.59.511021 +0700,
1,2,94,word/wordth0942.png,23,23,0,x,1.53951439994853,None,0,23,23,23,54.446033200016245,,,,,,,54.446033200016245,54.446033200016245,55.433484499924816,55.437633399968036,55.437633399968036,55.437633399968036,55.437633399968036,56.98158289992716,x,1.53951439994853,None,,,,,,,,,,PH_th,001,2025-03-09_20h55.09.069,MainFlow,2024.2.4,144.55128392900463,2025-03-09 20h55.59.511021 +0700,
1,3,48,word/wordth0483.png,24,24,0,x,0.6118079000152647,None,0,24,24,24,56.988071299972944,,,,,,,56.988071299972944,56.988071299972944,57.97595180000644,57.98012740002014,57.98012740002014,57.98012740002014,57.98012740002014,58.59438299993053,x,0.6118079000152647,None,,,,,,,,,,PH_th,001,2025-03-09_20h55.09.069,MainFlow,2024.2.4,144.55128392900463,2025-03-09 20h55.59.511021 +0700,
1,3,24,word/wordth0243.png,25,25,0,x,0.4792219999944791,None,0,25,25,25,58.600846700021066,,,,,,,58.600846700021066,58.600846700021066,59.58693069999572,59.59080330003053,59.59080330003053,59.59080330003053,59.59080330003053,60.07223339995835,x,0.4792219999944791,None,,,,,,,,,,PH_th,001,2025-03-09_20h55.09.069,MainFlow,2024.2.4,144.55128392900463,2025-03-09 20h55.59.511021 +0700,
1,1,87,word/wordth0871.png,26,26,0,z,0.5889267000602558,None,0,26,26,26,60.078681999933906,,,,,,,60.078681999933906,60.078681999933906,61.06731650000438,61.07197689998429,61.07197689998429,61.07197689998429,61.07197689998429,61.66373659996316,z,0.5889267000602558,None,,,,,,,,,,PH_th,001,2025-03-09_20h55.09.069,MainFlow,2024.2.4,144.55128392900463,2025-03-09 20h55.59.511021 +0700,
1,2,51,word/wordth0512.png,27,27,0,x,2.7249405999900773,None,0,27,27,27,61.670257700025104,,,,,,,61.670257700025104,61.670257700025104,62.657598500023596,62.6618839999428,62.6618839999428,62.6618839999428,62.6618839999428,65.38835110003129,x,2.7249405999900773,None,,,,,,,,,,PH_th,001,2025-03-09_20h55.09.069,MainFlow,2024.2.4,144.55128392900463,2025-03-09 20h55.59.511021 +0700,
1,3,27,word/wordth0273.png,28,28,0,x,0.6905583000043407,None,0,28,28,28,65.39473689999431,,,,,,,65.39473689999431,65.39473689999431,66.38179559994023,66.3861149000004,66.3861149000004,66.3861149000004,66.3861149000004,67.08271180000156,x,0.6905583000043407,None,,,,,,,,,,PH_th,001,2025-03-09_20h55.09.069,MainFlow,2024.2.4,144.55128392900463,2025-03-09 20h55.59.511021 +0700,
1,2,22,word/wordth0222.png,29,29,0,x,0.605349599965848,None,0,29,29,29,67.08860249991994,,,,,,,67.08860249991994,67.08860249991994,68.07761979999486,68.08186519995797,68.08186519995797,68.08186519995797,68.08186519995797,68.68793040001765,x,0.605349599965848,None,,,,,,,,,,PH_th,001,2025-03-09_20h55.09.069,MainFlow,2024.2.4,144.55128392900463,2025-03-09 20h55.59.511021 +0700,
1,3,23,word/wordth0233.png,30,30,0,x,1.7805419999640435,None,0,30,30,30,68.69408089993522,,,,,,,68.69408089993522,68.69408089993522,69.68173259997275,69.6906266999431,69.6906266999431,69.6906266999431,69.6906266999431,71.4733516999986,x,1.7805419999640435,None,,,,,,,,,,PH_th,001,2025-03-09_20h55.09.069,MainFlow,2024.2.4,144.55128392900463,2025-03-09 20h55.59.511021 +0700,
1,1,48,word/wordth0481.png,31,31,0,z,0.8647585000144318,None,0,31,31,31,71.47985689993948,,,,,,,71.47985689993948,71.47985689993948,72.46751879993826,72.4718326999573,72.4718326999573,72.4718326999573,72.4718326999573,73.34195759997237,z,0.8647585000144318,None,,,,,,,,,,PH_th,001,2025-03-09_20h55.09.069,MainFlow,2024.2.4,144.55128392900463,2025-03-09 20h55.59.511021 +0700,
1,2,10,word/wordth0102.png,32,32,0,x,1.2164893000153825,None,0,32,32,32,73.34794459992554,,,,,,,73.34794459992554,73.34794459992554,74.33779020002112,74.3456725999713,74.3456725999713,74.3456725999713,74.3456725999713,75.56816269992851,x,1.2164893000153825,None,,,,,,,,,,PH_th,001,2025-03-09_20h55.09.069,MainFlow,2024.2.4,144.55128392900463,2025-03-09 20h55.59.511021 +0700,
1,3,64,word/wordth0643.png,33,33,0,x,0.7578423999948427,None,0,33,33,33,75.57447599992156,,,,,,,75.57447599992156,75.57447599992156,76.56031099997927,76.56893900001887,76.56893900001887,76.56893900001887,76.56893900001887,77.33278539997991,x,0.7578423999948427,None,,,,,,,,,,PH_th,001,2025-03-09_20h55.09.069,MainFlow,2024.2.4,144.55128392900463,2025-03-09 20h55.59.511021 +0700,
1,3,22,word/wordth0223.png,34,34,0,x,0.6844313000328839,None,0,34,34,34,77.33912199991755,,,,,,,77.33912199991755,77.33912199991755,78.32855470001232,78.33302749996074,78.33302749996074,78.33302749996074,78.33302749996074,79.02212979993783,x,0.6844313000328839,None,,,,,,,,,,PH_th,001,2025-03-09_20h55.09.069,MainFlow,2024.2.4,144.55128392900463,2025-03-09 20h55.59.511021 +0700,
1,1,42,word/wordth0421.png,35,35,0,z,0.5784063999308273,None,0,35,35,35,79.02855659998022,,,,,,,79.02855659998022,79.02855659998022,80.01687379996292,80.02388979995158,80.02388979995158,80.02388979995158,80.02388979995158,80.6087071999209,z,0.5784063999308273,None,,,,,,,,,,PH_th,001,2025-03-09_20h55.09.069,MainFlow,2024.2.4,144.55128392900463,2025-03-09 20h55.59.511021 +0700,
1,2,1,word/wordth0012.png,36,36,0,x,1.4311578000197187,None,0,36,36,36,80.61553750000894,,,,,,,80.61553750000894,80.61553750000894,81.60732820001431,81.61162909993436,81.61162909993436,81.61162909993436,81.61162909993436,83.04419980000239,x,1.4311578000197187,None,,,,,,,,,,PH_th,001,2025-03-09_20h55.09.069,MainFlow,2024.2.4,144.55128392900463,2025-03-09 20h55.59.511021 +0700,
1,1,82,word/wordth0821.png,37,37,0,z,0.746218700078316,None,0,37,37,37,83.05027679994237,,,,,,,83.05027679994237,83.05027679994237,84.03725069994107,84.0413674999727,84.0413674999727,84.0413674999727,84.0413674999727,84.79087269993033,z,0.746218700078316,None,,,,,,,,,,PH_th,001,2025-03-09_20h55.09.069,MainFlow,2024.2.4,144.55128392900463,2025-03-09 20h55.59.511021 +0700,
1,2,3,word/wordth0032.png,38,38,0,x,0.638650800101459,None,0,38,38,38,84.7986927999882,,,,,,,84.7986927999882,84.7986927999882,85.78423869994003,85.7883421999868,85.7883421999868,85.7883421999868,85.7883421999868,86.42921570001636,x,0.638650800101459,None,,,,,,,,,,PH_th,001,2025-03-09_20h55.09.069,MainFlow,2024.2.4,144.55128392900463,2025-03-09 20h55.59.511021 +0700,
1,1,68,word/wordth0681.png,39,39,0,z,0.7574345999164507,None,0,39,39,39,86.43559310003184,,,,,,,86.43559310003184,86.43559310003184,87.42543940001633,87.43011199997272,87.43011199997272,87.43011199997272,87.43011199997272,88.18859239993617,z,0.7574345999164507,None,,,,,,,,,,PH_th,001,2025-03-09_20h55.09.069,MainFlow,2024.2.4,144.55128392900463,2025-03-09 20h55.59.511021 +0700,
1,1,66,word/wordth0661.png,40,40,0,z,1.0615147000644356,None,0,40,40,40,88.19490919995587,,,,,,,88.19490919995587,88.19490919995587,89.18184630002361,89.18612859991845,89.18612859991845,89.18612859991845,89.18612859991845,90.25272959994618,z,1.0615147000644356,None,,,,,,,,,,PH_th,001,2025-03-09_20h55.09.069,MainFlow,2024.2.4,144.55128392900463,2025-03-09 20h55.59.511021 +0700,
1,2,42,word/wordth0422.png,41,41,0,x,0.6058491999283433,None,0,41,41,41,90.25909349997528,,,,,,,90.25909349997528,90.25909349997528,91.2468036999926,91.25098379992414,91.25098379992414,91.25098379992414,91.25098379992414,91.86386559996754,x,0.6058491999283433,None,,,,,,,,,,PH_th,001,2025-03-09_20h55.09.069,MainFlow,2024.2.4,144.55128392900463,2025-03-09 20h55.59.511021 +0700,
1,3,93,word/wordth0933.png,42,42,0,x,3.0396965000545606,None,0,42,42,42,91.87020959996153,,,,,,,91.87020959996153,91.87020959996153,92.85782709997147,92.86216989997774,92.86216989997774,92.86216989997774,92.86216989997774,95.90339380002115,x,3.0396965000545606,None,,,,,,,,,,PH_th,001,2025-03-09_20h55.09.069,MainFlow,2024.2.4,144.55128392900463,2025-03-09 20h55.59.511021 +0700,
1,1,71,word/wordth0711.png,43,43,0,z,1.1214273000368848,None,0,43,43,43,95.9087986999657,,,,,,,95.9087986999657,95.9087986999657,96.8973832000047,96.90171180001926,96.90171180001926,96.90171180001926,96.90171180001926,98.02809549996164,z,1.1214273000368848,None,,,,,,,,,,PH_th,001,2025-03-09_20h55.09.069,MainFlow,2024.2.4,144.55128392900463,2025-03-09 20h55.59.511021 +0700,
1,1,64,word/wordth0641.png,44,44,0,x,0.788626000052318,None,0,44,44,44,98.03451979998499,,,,,,,98.03451979998499,98.03451979998499,99.0193772999337,99.02377690002322,99.02377690002322,99.02377690002322,99.02377690002322,99.81716099998448,x,0.788626000052318,None,,,,,,,,,,PH_th,001,2025-03-09_20h55.09.069,MainFlow,2024.2.4,144.55128392900463,2025-03-09 20h55.59.511021 +0700,
1,1,88,word/wordth0881.png,45,45,0,z,1.0021495999535546,None,0,45,45,45,99.82365069992375,,,,,,,99.82365069992375,99.82365069992375,100.81096789997537,100.81526309996843,100.81526309996843,100.81526309996843,100.81526309996843,101.8235607999377,z,1.0021495999535546,None,,,,,,,,,,PH_th,001,2025-03-09_20h55.09.069,MainFlow,2024.2.4,144.55128392900463,2025-03-09 20h55.59.511021 +0700,
1,3,87,word/wordth0873.png,46,46,0,x,0.7226324999937788,None,0,46,46,46,101.8300462999614,,,,,,,101.8300462999614,101.8300462999614,102.81989789998624,102.82435699994676,102.82435699994676,102.82435699994676,102.82435699994676,103.54804929997772,x,0.7226324999937788,None,,,,,,,,,,PH_th,001,2025-03-09_20h55.09.069,MainFlow,2024.2.4,144.55128392900463,2025-03-09 20h55.59.511021 +0700,
1,3,3,word/wordth0033.png,47,47,0,x,0.8672313999850303,None,0,47,47,47,103.55431399994995,,,,,,,103.55431399994995,103.55431399994995,104.54147429997101,104.5456056999974,104.5456056999974,104.5456056999974,104.5456056999974,105.4160864999285,x,0.8672313999850303,None,,,,,,,,,,PH_th,001,2025-03-09_20h55.09.069,MainFlow,2024.2.4,144.55128392900463,2025-03-09 20h55.59.511021 +0700,
1,2,95,word/wordth0952.png,48,48,0,x,1.1073728000046685,None,0,48,48,48,105.42257689998951,,,,,,,105.42257689998951,105.42257689998951,106.41110469994601,106.41530789993703,106.41530789993703,106.41530789993703,106.41530789993703,107.52803709998261,x,1.1073728000046685,None,,,,,,,,,,PH_th,001,2025-03-09_20h55.09.069,MainFlow,2024.2.4,144.55128392900463,2025-03-09 20h55.59.511021 +0700,
1,1,11,word/wordth0111.png,49,49,0,z,0.7127939000492916,None,0,49,49,49,107.53446220001206,,,,,,,107.53446220001206,107.53446220001206,108.52461149997544,108.52914639993105,108.52914639993105,108.52914639993105,108.52914639993105,109.2460970999673,z,0.7127939000492916,None,,,,,,,,,,PH_th,001,2025-03-09_20h55.09.069,MainFlow,2024.2.4,144.55128392900463,2025-03-09 20h55.59.511021 +0700,
1,1,10,word/wordth0101.png,50,50,0,z,0.6926410000305623,None,0,50,50,50,109.25242699997034,,,,,,,109.25242699997034,109.25242699997034,110.24063120002393,110.24473139992915,110.24473139992915,110.24473139992915,110.24473139992915,110.9407063999679,z,0.6926410000305623,None,,,,,,,,,,PH_th,001,2025-03-09_20h55.09.069,MainFlow,2024.2.4,144.55128392900463,2025-03-09 20h55.59.511021 +0700,
1,1,44,word/wordth0441.png,51,51,0,z,0.5931166000664234,None,0,51,51,51,110.94710759993177,,,,,,,110.94710759993177,110.94710759993177,111.93476440000813,111.9389035999775,111.9389035999775,111.9389035999775,111.9389035999775,112.53864849999081,z,0.5931166000664234,None,,,,,,,,,,PH_th,001,2025-03-09_20h55.09.069,MainFlow,2024.2.4,144.55128392900463,2025-03-09 20h55.59.511021 +0700,
1,1,96,word/wordth0961.png,52,52,0,z,1.0756746000843123,None,0,52,52,52,112.54424009996,,,,,,,112.54424009996,112.54424009996,113.53301070001908,113.53714359994046,113.53714359994046,113.53714359994046,113.53714359994046,114.61505439993925,z,1.0756746000843123,None,,,,,,,,,,PH_th,001,2025-03-09_20h55.09.069,MainFlow,2024.2.4,144.55128392900463,2025-03-09 20h55.59.511021 +0700,
1,2,27,word/wordth0272.png,53,53,0,x,0.5937234000302851,None,0,53,53,53,114.62123539997265,,,,,,,114.62123539997265,114.62123539997265,115.60932179994415,115.61368179996498,115.61368179996498,115.61368179996498,115.61368179996498,116.21205420000479,x,0.5937234000302851,None,,,,,,,,,,PH_th,001,2025-03-09_20h55.09.069,MainFlow,2024.2.4,144.55128392900463,2025-03-09 20h55.59.511021 +0700,
1,1,63,word/wordth0631.png,54,54,0,z,0.7464852000121027,None,0,54,54,54,116.21894940000493,,,,,,,116.21894940000493,116.21894940000493,117.20723489997908,117.21144179999828,117.21144179999828,117.21144179999828,117.21144179999828,117.96249149995856,z,0.7464852000121027,None,,,,,,,,,,PH_th,001,2025-03-09_20h55.09.069,MainFlow,2024.2.4,144.55128392900463,2025-03-09 20h55.59.511021 +0700,
1,3,66,word/wordth0663.png,55,55,0,x,1.2113000999670476,None,0,55,55,55,117.96883909997996,,,,,,,117.96883909997996,117.96883909997996,118.95750529994257,118.96167140000034,118.96167140000034,118.96167140000034,118.96167140000034,120.17845409992151,x,1.2113000999670476,None,,,,,,,,,,PH_th,001,2025-03-09_20h55.09.069,MainFlow,2024.2.4,144.55128392900463,2025-03-09 20h55.59.511021 +0700,
1,3,88,word/wordth0883.png,56,56,0,x,1.1705580999841914,None,0,56,56,56,120.18459640000947,,,,,,,120.18459640000947,120.18459640000947,121.17285249999259,121.17724039999302,121.17724039999302,121.17724039999302,121.17724039999302,122.35244519996922,x,1.1705580999841914,None,,,,,,,,,,PH_th,001,2025-03-09_20h55.09.069,MainFlow,2024.2.4,144.55128392900463,2025-03-09 20h55.59.511021 +0700,
1,3,96,word/wordth0963.png,57,57,0,x,0.8742736000567675,None,0,57,57,57,122.35884140001144,,,,,,,122.35884140001144,122.35884140001144,123.34831629996188,123.3531221000012,123.3531221000012,123.3531221000012,123.3531221000012,124.22921020002104,x,0.8742736000567675,None,,,,,,,,,,PH_th,001,2025-03-09_20h55.09.069,MainFlow,2024.2.4,144.55128392900463,2025-03-09 20h55.59.511021 +0700,
1,2,52,word/wordth0522.png,58,58,0,x,0.5251241000369191,None,0,58,58,58,124.23573259997647,,,,,,,124.23573259997647,124.23573259997647,125.22374009992927,125.22813099995255,125.22813099995255,125.22813099995255,125.22813099995255,125.75768089992926,x,0.5251241000369191,None,,,,,,,,,,PH_th,001,2025-03-09_20h55.09.069,MainFlow,2024.2.4,144.55128392900463,2025-03-09 20h55.59.511021 +0700,
1,3,50,word/wordth0503.png,59,59,0,x,0.8310266999760643,None,0,59,59,59,125.76365199999418,,,,,,,125.76365199999418,125.76365199999418,126.7522265999578,126.75676140002906,126.75676140002906,126.75676140002906,126.75676140002906,127.59157069993671,x,0.8310266999760643,None,,,,,,,,,,PH_th,001,2025-03-09_20h55.09.069,MainFlow,2024.2.4,144.55128392900463,2025-03-09 20h55.59.511021 +0700,
1,3,61,word/wordth0613.png,60,60,0,x,0.8863487000344321,None,0,60,60,60,127.5979869000148,,,,,,,127.5979869000148,127.5979869000148,128.58767049992457,128.59194029995706,128.59194029995706,128.59194029995706,128.59194029995706,129.48238289996516,x,0.8863487000344321,None,,,,,,,,,,PH_th,001,2025-03-09_20h55.09.069,MainFlow,2024.2.4,144.55128392900463,2025-03-09 20h55.59.511021 +0700,
1,2,46,word/wordth0462.png,61,61,0,x,0.6214641999686137,None,0,61,61,61,129.4887088999385,,,,,,,129.4887088999385,129.4887088999385,130.47614369995426,130.48124809993897,130.48124809993897,130.48124809993897,130.48124809993897,131.10743279999588,x,0.6214641999686137,None,,,,,,,,,,PH_th,001,2025-03-09_20h55.09.069,MainFlow,2024.2.4,144.55128392900463,2025-03-09 20h55.59.511021 +0700,
1,1,61,word/wordth0611.png,62,62,0,z,0.6874991999939084,None,0,62,62,62,131.1137806000188,,,,,,,131.1137806000188,131.1137806000188,132.1013906999724,132.10575599991716,132.10575599991716,132.10575599991716,132.10575599991716,132.795016799937,z,0.6874991999939084,None,,,,,,,,,,PH_th,001,2025-03-09_20h55.09.069,MainFlow,2024.2.4,144.55128392900463,2025-03-09 20h55.59.511021 +0700,
1,1,24,word/wordth0241.png,63,63,0,z,0.6177469999529421,None,0,63,63,63,132.80126129998825,,,,,,,132.80126129998825,132.80126129998825,133.79089339997154,133.79504479991738,133.79504479991738,133.79504479991738,133.79504479991738,134.41463030001614,z,0.6177469999529421,None,,,,,,,,,,PH_th,001,2025-03-09_20h55.09.069,MainFlow,2024.2.4,144.55128392900463,2025-03-09 20h55.59.511021 +0700,
1,2,89,word/wordth0892.png,64,64,0,x,0.7296120000537485,None,0,64,64,64,134.42108529992402,,,,,,,134.42108529992402,134.42108529992402,135.40841119992547,135.41281729994807,135.41281729994807,135.41281729994807,135.41281729994807,136.14385230001062,x,0.7296120000537485,None,,,,,,,,,,PH_th,001,2025-03-09_20h55.09.069,MainFlow,2024.2.4,144.55128392900463,2025-03-09 20h55.59.511021 +0700,
1,1,30,word/wordth0301.png,65,65,0,z,0.6388210000004619,None,0,65,65,65,136.15025059995241,,,,,,,136.15025059995241,136.15025059995241,137.1391996999737,137.14405789994635,137.14405789994635,137.14405789994635,137.14405789994635,137.78408120002132,z,0.6388210000004619,None,,,,,,,,,,PH_th,001,2025-03-09_20h55.09.069,MainFlow,2024.2.4,144.55128392900463,2025-03-09 20h55.59.511021 +0700,
1,1,93,word/wordth0931.png,66,66,0,z,0.605447500012815,None,0,66,66,66,137.79051949991845,,,,,,,137.79051949991845,137.79051949991845,138.7784039999824,138.7829520999221,138.7829520999221,138.7829520999221,138.7829520999221,139.3955016999971,z,0.605447500012815,None,,,,,,,,,,PH_th,001,2025-03-09_20h55.09.069,MainFlow,2024.2.4,144.55128392900463,2025-03-09 20h55.59.511021 +0700,
1,1,50,word/wordth0501.png,67,67,0,z,0.8569808000465855,None,0,67,67,67,139.40182030003052,,,,,,,139.40182030003052,139.40182030003052,140.38681089994498,140.3910916999448,140.3910916999448,140.3910916999448,140.3910916999448,141.2536271000281,z,0.8569808000465855,None,,,,,,,,,,PH_th,001,2025-03-09_20h55.09.069,MainFlow,2024.2.4,144.55128392900463,2025-03-09 20h55.59.511021 +0700,
1,3,82,word/wordth0823.png,68,68,0,x,1.070725799887441,None,0,68,68,68,141.26016109995544,,,,,,,141.26016109995544,141.26016109995544,142.24806929996703,142.25251509994268,142.25251509994268,142.25251509994268,142.25251509994268,143.32469079992734,x,1.070725799887441,None,,,,,,,,,,PH_th,001,2025-03-09_20h55.09.069,MainFlow,2024.2.4,144.55128392900463,2025-03-09 20h55.59.511021 +0700,
1,1,27,word/wordth0271.png,69,69,0,z,0.7736245999112725,None,0,69,69,69,143.33106579992454,,,,,,,143.33106579992454,143.33106579992454,144.32002179999836,144.32415050000418,144.32415050000418,144.32415050000418,144.32415050000418,145.10328439995646,z,0.7736245999112725,None,,,,,,,,,,PH_th,001,2025-03-09_20h55.09.069,MainFlow,2024.2.4,144.55128392900463,2025-03-09 20h55.59.511021 +0700,
1,3,52,word/wordth0523.png,70,70,0,x,0.6167723999824375,None,0,70,70,70,145.1099687999813,,,,,,,145.1099687999813,145.1099687999813,146.09699200000614,146.1012964999536,146.1012964999536,146.1012964999536,146.1012964999536,146.73557429993525,x,0.6167723999824375,None,,,,,,,,,,PH_th,001,2025-03-09_20h55.09.069,MainFlow,2024.2.4,144.55128392900463,2025-03-09 20h55.59.511021 +0700,
1,1,22,word/wordth0221.png,71,71,0,z,0.6315817000577226,None,0,71,71,71,146.74004199996125,,,,,,,146.74004199996125,146.74004199996125,147.72634449996985,147.73098709993064,147.73098709993064,147.73098709993064,147.73098709993064,148.3643225999549,z,0.6315817000577226,None,,,,,,,,,,PH_th,001,2025-03-09_20h55.09.069,MainFlow,2024.2.4,144.55128392900463,2025-03-09 20h55.59.511021 +0700,
1,1,6,word/wordth0061.png,72,72,0,z,0.6513511000666767,None,0,72,72,72,148.37083869997878,,,,,,,148.37083869997878,148.37083869997878,149.35789719992317,149.36222499993164,149.36222499993164,149.36222499993164,149.36222499993164,150.01770790002774,z,0.6513511000666767,None,,,,,,,,,,PH_th,001,2025-03-09_20h55.09.069,MainFlow,2024.2.4,144.55128392900463,2025-03-09 20h55.59.511021 +0700,
1,2,30,word/wordth0302.png,73,73,0,x,1.1158957000588998,None,0,73,73,73,150.02373210003134,,,,,,,150.02373210003134,150.02373210003134,151.01274599996395,151.01738740003202,151.01738740003202,151.01738740003202,151.01738740003202,152.13702589995228,x,1.1158957000588998,None,,,,,,,,,,PH_th,001,2025-03-09_20h55.09.069,MainFlow,2024.2.4,144.55128392900463,2025-03-09 20h55.59.511021 +0700,
1,1,51,word/wordth0511.png,74,74,0,z,0.6527011999860406,None,0,74,74,74,152.14324839995243,,,,,,,152.14324839995243,152.14324839995243,153.13080639997497,153.1350947000319,153.1350947000319,153.1350947000319,153.1350947000319,153.78966499993112,z,0.6527011999860406,None,,,,,,,,,,PH_th,001,2025-03-09_20h55.09.069,MainFlow,2024.2.4,144.55128392900463,2025-03-09 20h55.59.511021 +0700,
1,2,50,word/wordth0502.png,75,75,0,x,1.0653721999842674,None,0,75,75,75,153.7956573999254,,,,,,,153.7956573999254,153.7956573999254,154.7835780000314,154.78786749998108,154.78786749998108,154.78786749998108,154.78786749998108,155.85931640001945,x,1.0653721999842674,None,,,,,,,,,,PH_th,001,2025-03-09_20h55.09.069,MainFlow,2024.2.4,144.55128392900463,2025-03-09 20h55.59.511021 +0700,
1,3,95,word/wordth0953.png,76,76,0,x,1.1036296000238508,None,0,76,76,76,155.86552140000276,,,,,,,155.86552140000276,155.86552140000276,156.85485649993643,156.85945059999358,156.85945059999358,156.85945059999358,156.85945059999358,157.96496939996723,x,1.1036296000238508,None,,,,,,,,,,PH_th,001,2025-03-09_20h55.09.069,MainFlow,2024.2.4,144.55128392900463,2025-03-09 20h55.59.511021 +0700,
1,1,75,word/wordth0751.png,77,77,0,z,0.7095619000028819,None,0,77,77,77,157.97135939996224,,,,,,,157.97135939996224,157.97135939996224,158.95928149996325,158.96364109998103,158.96364109998103,158.96364109998103,158.96364109998103,159.67394150001928,z,0.7095619000028819,None,,,,,,,,,,PH_th,001,2025-03-09_20h55.09.069,MainFlow,2024.2.4,144.55128392900463,2025-03-09 20h55.59.511021 +0700,
1,1,95,word/wordth0951.png,78,78,0,z,0.6698021000484005,None,0,78,78,78,159.6801293999888,,,,,,,159.6801293999888,159.6801293999888,160.66927600000054,160.67343550000805,160.67343550000805,160.67343550000805,160.67343550000805,161.3486727999989,z,0.6698021000484005,None,,,,,,,,,,PH_th,001,2025-03-09_20h55.09.069,MainFlow,2024.2.4,144.55128392900463,2025-03-09 20h55.59.511021 +0700,
1,2,8,word/wordth0082.png,79,79,0,x,0.5722467999439687,None,0,79,79,79,161.35506919992622,,,,,,,161.35506919992622,161.35506919992622,162.3422428999329,162.3466741000302,162.3466741000302,162.3466741000302,162.3466741000302,162.9245408999268,x,0.5722467999439687,None,,,,,,,,,,PH_th,001,2025-03-09_20h55.09.069,MainFlow,2024.2.4,144.55128392900463,2025-03-09 20h55.59.511021 +0700,
1,3,75,word/wordth0753.png,80,80,0,x,1.2909338000463322,None,0,80,80,80,162.93144469999243,,,,,,,162.93144469999243,162.93144469999243,163.91829880001023,163.92234779999126,163.92234779999126,163.92234779999126,163.92234779999126,165.21656799991615,x,1.2909338000463322,None,,,,,,,,,,PH_th,001,2025-03-09_20h55.09.069,MainFlow,2024.2.4,144.55128392900463,2025-03-09 20h55.59.511021 +0700,
1,1,28,word/wordth0281.png,81,81,0,z,0.7339029000140727,None,0,81,81,81,165.22300330002327,,,,,,,165.22300330002327,165.22300330002327,166.210410199943,166.21481049992144,166.21481049992144,166.21481049992144,166.21481049992144,166.95272609998938,z,0.7339029000140727,None,,,,,,,,,,PH_th,001,2025-03-09_20h55.09.069,MainFlow,2024.2.4,144.55128392900463,2025-03-09 20h55.59.511021 +0700,
1,3,42,word/wordth0423.png,82,82,0,x,1.6177707000169903,None,0,82,82,82,166.95912539993878,,,,,,,166.95912539993878,166.95912539993878,167.9466358999489,167.95112460001837,167.95112460001837,167.95112460001837,167.95112460001837,169.57085719995666,x,1.6177707000169903,None,,,,,,,,,,PH_th,001,2025-03-09_20h55.09.069,MainFlow,2024.2.4,144.55128392900463,2025-03-09 20h55.59.511021 +0700,
1,3,46,word/wordth0463.png,83,83,0,x,0.8852534999605268,None,0,83,83,83,169.5771836999338,,,,,,,169.5771836999338,169.5771836999338,170.5646191999549,170.5687761999434,170.5687761999434,170.5687761999434,170.5687761999434,171.45938649994787,x,0.8852534999605268,None,,,,,,,,,,PH_th,001,2025-03-09_20h55.09.069,MainFlow,2024.2.4,144.55128392900463,2025-03-09 20h55.59.511021 +0700,
1,3,1,word/wordth0013.png,84,84,0,x,0.5959708000300452,None,0,84,84,84,171.46596850000788,,,,,,,171.46596850000788,171.46596850000788,172.4548467999557,172.4589836000232,172.4589836000232,172.4589836000232,172.4589836000232,173.05764829996042,x,0.5959708000300452,None,,,,,,,,,,PH_th,001,2025-03-09_20h55.09.069,MainFlow,2024.2.4,144.55128392900463,2025-03-09 20h55.59.511021 +0700,
1,2,70,word/wordth0702.png,85,85,0,x,0.48853189998771995,None,0,85,85,85,173.0641464999644,,,,,,,173.0641464999644,173.0641464999644,174.05136089993175,174.05547439993825,174.05547439993825,174.05547439993825,174.05547439993825,174.55086009996012,x,0.48853189998771995,None,,,,,,,,,,PH_th,001,2025-03-09_20h55.09.069,MainFlow,2024.2.4,144.55128392900463,2025-03-09 20h55.59.511021 +0700,
1,1,7,word/wordth0071.png,86,86,0,z,0.5629300000146031,None,0,86,86,86,174.55727689992636,,,,,,,174.55727689992636,174.55727689992636,175.54640789993573,175.55074600002263,175.55074600002263,175.55074600002263,175.55074600002263,176.1148736999603,z,0.5629300000146031,None,,,,,,,,,,PH_th,001,2025-03-09_20h55.09.069,MainFlow,2024.2.4,144.55128392900463,2025-03-09 20h55.59.511021 +0700,
1,2,7,word/wordth0072.png,87,87,0,x,0.9018767999950796,None,0,87,87,87,176.12112949998118,,,,,,,176.12112949998118,176.12112949998118,177.1084256999893,177.1124232999282,177.1124232999282,177.1124232999282,177.1124232999282,178.01761560002342,x,0.9018767999950796,None,,,,,,,,,,PH_th,001,2025-03-09_20h55.09.069,MainFlow,2024.2.4,144.55128392900463,2025-03-09 20h55.59.511021 +0700,
1,2,24,word/wordth0242.png,88,88,0,x,0.6224648000206798,None,0,88,88,88,178.02397989993915,,,,,,,178.02397989993915,178.02397989993915,179.01198770001065,179.0164880999364,179.0164880999364,179.0164880999364,179.0164880999364,179.64252619992476,x,0.6224648000206798,None,,,,,,,,,,PH_th,001,2025-03-09_20h55.09.069,MainFlow,2024.2.4,144.55128392900463,2025-03-09 20h55.59.511021 +0700,
1,3,26,word/wordth0263.png,89,89,0,x,0.49558799993246794,None,0,89,89,89,179.64951619994827,,,,,,,179.64951619994827,179.64951619994827,180.63933039992116,180.64338239992503,180.64338239992503,180.64338239992503,180.64338239992503,181.14516690000892,x,0.49558799993246794,None,,,,,,,,,,PH_th,001,2025-03-09_20h55.09.069,MainFlow,2024.2.4,144.55128392900463,2025-03-09 20h55.59.511021 +0700,
1,2,23,word/wordth0232.png,90,90,0,x,0.5252654999494553,None,0,90,90,90,181.1514233999187,,,,,,,181.1514233999187,181.1514233999187,182.13885390001815,182.1435376999434,182.1435376999434,182.1435376999434,182.1435376999434,182.6728754999349,x,0.5252654999494553,None,,,,,,,,,,PH_th,001,2025-03-09_20h55.09.069,MainFlow,2024.2.4,144.55128392900463,2025-03-09 20h55.59.511021 +0700,
1,2,75,word/wordth0752.png,91,91,0,x,0.6541583000216633,None,0,91,91,91,182.6792967999354,,,,,,,182.6792967999354,182.6792967999354,183.66642759996466,183.6704717000248,183.6704717000248,183.6704717000248,183.6704717000248,184.32565969997086,x,0.6541583000216633,None,,,,,,,,,,PH_th,001,2025-03-09_20h55.09.069,MainFlow,2024.2.4,144.55128392900463,2025-03-09 20h55.59.511021 +0700,
1,2,6,word/wordth0062.png,92,92,0,x,0.43537319998722523,None,0,92,92,92,184.33169819996692,,,,,,,184.33169819996692,184.33169819996692,185.31931649998296,185.32340130000375,185.32340130000375,185.32340130000375,185.32340130000375,185.76297389995307,x,0.43537319998722523,None,,,,,,,,,,PH_th,001,2025-03-09_20h55.09.069,MainFlow,2024.2.4,144.55128392900463,2025-03-09 20h55.59.511021 +0700,
1,2,93,word/wordth0932.png,93,93,0,x,0.43789890001062304,None,0,93,93,93,185.76939759997185,,,,,,,185.76939759997185,185.76939759997185,186.75726739992388,186.761455400032,186.761455400032,186.761455400032,186.761455400032,187.20058840001002,x,0.43789890001062304,None,,,,,,,,,,PH_th,001,2025-03-09_20h55.09.069,MainFlow,2024.2.4,144.55128392900463,2025-03-09 20h55.59.511021 +0700,
1,2,48,word/wordth0482.png,94,94,0,x,0.4459630000637844,None,0,94,94,94,187.20699949993286,,,,,,,187.20699949993286,187.20699949993286,188.19409429992083,188.19847399997525,188.19847399997525,188.19847399997525,188.19847399997525,188.6516246999381,x,0.4459630000637844,None,,,,,,,,,,PH_th,001,2025-03-09_20h55.09.069,MainFlow,2024.2.4,144.55128392900463,2025-03-09 20h55.59.511021 +0700,
1,1,70,word/wordth0701.png,95,95,0,z,0.5842189000686631,None,0,95,95,95,188.65806019993033,,,,,,,188.65806019993033,188.65806019993033,189.64556109998375,189.64983989996836,189.64983989996836,189.64983989996836,189.64983989996836,190.23512909992132,z,0.5842189000686631,None,,,,,,,,,,PH_th,001,2025-03-09_20h55.09.069,MainFlow,2024.2.4,144.55128392900463,2025-03-09 20h55.59.511021 +0700,
1,2,66,word/wordth0662.png,96,96,0,x,1.0448239999823272,None,0,96,96,96,190.24121310003102,,,,,,,190.24121310003102,190.24121310003102,191.2299007999245,191.23451570002362,191.23451570002362,191.23451570002362,191.23451570002362,192.2844910999993,x,1.0448239999823272,None,,,,,,,,,,PH_th,001,2025-03-09_20h55.09.069,MainFlow,2024.2.4,144.55128392900463,2025-03-09 20h55.59.511021 +0700,
1,1,26,word/wordth0261.png,97,97,0,z,0.7732992999954149,None,0,97,97,97,192.29088480002247,,,,,,,192.29088480002247,192.29088480002247,193.278257100028,193.28241340001114,193.28241340001114,193.28241340001114,193.28241340001114,194.0623863999499,z,0.7732992999954149,None,,,,,,,,,,PH_th,001,2025-03-09_20h55.09.069,MainFlow,2024.2.4,144.55128392900463,2025-03-09 20h55.59.511021 +0700,
1,3,9,word/wordth0093.png,98,98,0,x,0.748733300017193,None,0,98,98,98,194.06865000003017,,,,,,,194.06865000003017,194.06865000003017,195.05629259999841,195.06078009994235,195.06078009994235,195.06078009994235,195.06078009994235,195.8139138999395,x,0.748733300017193,None,,,,,,,,,,PH_th,001,2025-03-09_20h55.09.069,MainFlow,2024.2.4,144.55128392900463,2025-03-09 20h55.59.511021 +0700,
1,2,61,word/wordth0612.png,99,99,0,x,0.6024439000757411,None,0,99,99,99,195.8200115999207,,,,,,,195.8200115999207,195.8200115999207,196.80771700001787,196.8120955999475,196.8120955999475,196.8120955999475,196.8120955999475,197.41813340003137,x,0.6024439000757411,None,,,,,,,,,,PH_th,001,2025-03-09_20h55.09.069,MainFlow,2024.2.4,144.55128392900463,2025-03-09 20h55.59.511021 +0700,
1,3,8,word/wordth0083.png,100,100,0,x,0.7630887000123039,None,0,100,100,100,197.42440859996714,,,,,,,197.42440859996714,197.42440859996714,198.4120523999445,198.41638599999715,198.41638599999715,198.41638599999715,198.41638599999715,199.1819066000171,x,0.7630887000123039,None,,,,,,,,,,PH_th,001,2025-03-09_20h55.09.069,MainFlow,2024.2.4,144.55128392900463,2025-03-09 20h55.59.511021 +0700,
1,1,8,word/wordth0081.png,101,101,0,z,0.8401040000608191,None,0,101,101,101,199.18817360000685,,,,,,,199.18817360000685,199.18817360000685,200.17648819996975,200.18101409997325,200.18101409997325,200.18101409997325,200.18101409997325,201.0225916999625,z,0.8401040000608191,None,,,,,,,,,,PH_th,001,2025-03-09_20h55.09.069,MainFlow,2024.2.4,144.55128392900463,2025-03-09 20h55.59.511021 +0700,
1,2,44,word/wordth0442.png,102,102,0,x,0.600278600002639,None,0,102,102,102,201.02892229997087,,,,,,,201.02892229997087,201.02892229997087,202.01607739995234,202.0201751999557,202.0201751999557,202.0201751999557,202.0201751999557,202.62127939995844,x,0.600278600002639,None,,,,,,,,,,PH_th,001,2025-03-09_20h55.09.069,MainFlow,2024.2.4,144.55128392900463,2025-03-09 20h55.59.511021 +0700,
1,3,31,word/wordth0313.png,103,103,0,x,0.5396622000262141,None,0,103,103,103,202.62745639996137,,,,,,,202.62745639996137,202.62745639996137,203.61610719992314,203.62040249991696,203.62040249991696,203.62040249991696,203.62040249991696,204.16374029999133,x,0.5396622000262141,None,,,,,,,,,,PH_th,001,2025-03-09_20h55.09.069,MainFlow,2024.2.4,144.55128392900463,2025-03-09 20h55.59.511021 +0700,
1,1,89,word/wordth0891.png,104,104,0,z,0.8954390999861062,None,0,104,104,104,204.1697714999318,,,,,,,204.1697714999318,204.1697714999318,205.1612420999445,205.1657713999739,205.1657713999739,205.1657713999739,205.1657713999739,206.0634911999805,z,0.8954390999861062,None,205.1657713999739,205.1657713999739,,,,,,,,PH_th,001,2025-03-09_20h55.09.069,MainFlow,2024.2.4,144.55128392900463,2025-03-09 20h55.59.511021 +0700,
1,3,70,word/wordth0703.png,105,105,0,x,0.6638685000361875,None,0,105,105,105,206.0697766999947,,,,,,,206.0697766999947,206.0697766999947,207.0570480999304,207.06156409997493,207.06156409997493,207.06156409997493,207.06156409997493,207.73014340002555,x,0.6638685000361875,None,,,,,,,,,,PH_th,001,2025-03-09_20h55.09.069,MainFlow,2024.2.4,144.55128392900463,2025-03-09 20h55.59.511021 +0700,
1,3,68,word/wordth0683.png,106,106,0,x,0.5705895000137389,None,0,106,106,106,207.73637219995726,,,,,,,207.73637219995726,207.73637219995726,208.72527679998893,208.72960059996694,208.72960059996694,208.72960059996694,208.72960059996694,209.3072956999531,x,0.5705895000137389,None,,,,,,,,,,PH_th,001,2025-03-09_20h55.09.069,MainFlow,2024.2.4,144.55128392900463,2025-03-09 20h55.59.511021 +0700,
1,3,10,word/wordth0103.png,107,107,0,x,0.9346224000910297,None,0,107,107,107,209.3136485000141,,,,,,,209.3136485000141,209.3136485000141,210.30147870001383,210.30611499992665,210.30611499992665,210.30611499992665,210.30611499992665,211.24486779992003,x,0.9346224000910297,None,,,,,,,,,,PH_th,001,2025-03-09_20h55.09.069,MainFlow,2024.2.4,144.55128392900463,2025-03-09 20h55.59.511021 +0700,
1,3,94,word/wordth0943.png,108,108,0,x,0.7070950999623165,None,0,108,108,108,211.25132859998848,,,,,,,211.25132859998848,211.25132859998848,212.23976379993837,212.24373819993343,212.24373819993343,212.24373819993343,212.24373819993343,212.9532157999929,x,0.7070950999623165,None,,,,,,,,,,PH_th,001,2025-03-09_20h55.09.069,MainFlow,2024.2.4,144.55128392900463,2025-03-09 20h55.59.511021 +0700,
1,1,3,word/wordth0031.png,109,109,0,z,0.5856464999960735,None,0,109,109,109,212.9597571999766,,,,,,,212.9597571999766,212.9597571999766,213.95091459993273,213.9594558000099,213.9594558000099,213.9594558000099,213.9594558000099,214.54746399994474,z,0.5856464999960735,None,,,,,,,,,,PH_th,001,2025-03-09_20h55.09.069,MainFlow,2024.2.4,144.55128392900463,2025-03-09 20h55.59.511021 +0700,
1,3,63,word/wordth0633.png,110,110,0,x,0.8130908999592066,None,0,110,110,110,214.55389929993544,,,,,,,214.55389929993544,214.55389929993544,215.5433089999715,215.54750709992368,215.54750709992368,215.54750709992368,215.54750709992368,216.36158729996532,x,0.8130908999592066,None,,,,,,,,,,PH_th,001,2025-03-09_20h55.09.069,MainFlow,2024.2.4,144.55128392900463,2025-03-09 20h55.59.511021 +0700,
1,2,9,word/wordth0092.png,111,111,0,x,0.4689126000739634,None,0,111,111,111,216.36792370001785,,,,,,,216.36792370001785,216.36792370001785,217.35693499993067,217.3614222999895,217.3614222999895,217.3614222999895,217.3614222999895,217.8352611999726,x,0.4689126000739634,None,,,,,,,,,,PH_th,001,2025-03-09_20h55.09.069,MainFlow,2024.2.4,144.55128392900463,2025-03-09 20h55.59.511021 +0700,
1,3,7,word/wordth0073.png,112,112,0,x,0.562332300003618,None,0,112,112,112,217.84170099999756,,,,,,,217.84170099999756,217.84170099999756,218.82893259997945,218.8331592999166,218.8331592999166,218.8331592999166,218.8331592999166,219.39747959992383,x,0.562332300003618,None,,,,,,,,,,PH_th,001,2025-03-09_20h55.09.069,MainFlow,2024.2.4,144.55128392900463,2025-03-09 20h55.59.511021 +0700,
1,2,41,word/wordth0412.png,113,113,0,x,0.4253661000402644,None,0,113,113,113,219.40390069992281,,,,,,,219.40390069992281,219.40390069992281,220.3917043999536,220.3958083000034,220.3958083000034,220.3958083000034,220.3958083000034,220.82810859999154,x,0.4253661000402644,None,,,,,,,,,,PH_th,001,2025-03-09_20h55.09.069,MainFlow,2024.2.4,144.55128392900463,2025-03-09 20h55.59.511021 +0700,
1,1,9,word/wordth0091.png,114,114,0,z,0.6896146000362933,None,0,114,114,114,220.83458679995965,,,,,,,220.83458679995965,220.83458679995965,221.82223309995607,221.82652210001834,221.82652210001834,221.82652210001834,221.82652210001834,222.52248649997637,z,0.6896146000362933,None,,,,,,,,,,PH_th,001,2025-03-09_20h55.09.069,MainFlow,2024.2.4,144.55128392900463,2025-03-09 20h55.59.511021 +0700,
1,1,94,word/wordth0941.png,115,115,0,z,0.4860425000078976,None,0,115,115,115,222.5289137000218,,,,,,,222.5289137000218,222.5289137000218,223.51629749999847,223.52037769998424,223.52037769998424,223.52037769998424,223.52037769998424,224.00838779995684,z,0.4860425000078976,None,,,,,,,,,,PH_th,001,2025-03-09_20h55.09.069,MainFlow,2024.2.4,144.55128392900463,2025-03-09 20h55.59.511021 +0700,
1,1,52,word/wordth0521.png,116,116,0,z,0.6347887999145314,None,0,116,116,116,224.01488379994407,,,,,,,224.01488379994407,224.01488379994407,225.00233069993556,225.00637409999035,225.00637409999035,225.00637409999035,225.00637409999035,225.64761739992537,z,0.6347887999145314,None,,,,,,,,,,PH_th,001,2025-03-09_20h55.09.069,MainFlow,2024.2.4,144.55128392900463,2025-03-09 20h55.59.511021 +0700,
1,2,88,word/wordth0882.png,117,117,0,x,0.7654428998939693,None,0,117,117,117,225.65382659994066,,,,,,,225.65382659994066,225.65382659994066,226.64142669993453,226.64545269997325,226.64545269997325,226.64545269997325,226.64545269997325,227.4179668999277,x,0.7654428998939693,None,,,,,,,,,,PH_th,001,2025-03-09_20h55.09.069,MainFlow,2024.2.4,144.55128392900463,2025-03-09 20h55.59.511021 +0700,
1,1,41,word/wordth0411.png,118,118,0,z,0.6241729999892414,None,0,118,118,118,227.42447740002535,,,,,,,227.42447740002535,227.42447740002535,228.41291950002778,228.4173267999431,228.4173267999431,228.4173267999431,228.4173267999431,229.04382239992265,z,0.6241729999892414,None,,,,,,,,,,PH_th,001,2025-03-09_20h55.09.069,MainFlow,2024.2.4,144.55128392900463,2025-03-09 20h55.59.511021 +0700,
1,3,30,word/wordth0303.png,119,119,0,x,0.6815633999649435,None,0,119,119,119,229.0496202999493,,,,,,,229.0496202999493,229.0496202999493,230.04031439998653,230.04477029992267,230.04477029992267,230.04477029992267,230.04477029992267,230.72716359992046,x,0.6815633999649435,None,,,,,,,,,,PH_th,001,2025-03-09_20h55.09.069,MainFlow,2024.2.4,144.55128392900463,2025-03-09 20h55.59.511021 +0700,
,,,,,,,,,,,,,,,,,,,,,,,,,,,,,,,,,,230.72725579992402,230.73332290002145,230.73332290002145,233.67784170003142,space,2.9379579999949783,None,PH_th,001,2025-03-09_20h55.09.069,MainFlow,2024.2.4,144.55128392900463,2025-03-09 20h55.59.511021 +0700,
