lang,stimuli,imageid,worddir,thisN,thisTrialN,thisRepN,key_resp.keys,key_resp.rt,key_resp.duration,trials.thisRepN,trials.thisTrialN,trials.thisN,trials.thisIndex,thisRow.t,notes,tutorial.started,tutorial.stopped,key_instruct.keys,key_instruct.rt,key_instruct.duration,instructblank.started,cross1.started,letterselect.started,imageword.started,text_2.started,cross2.started,key_resp.started,letterselect.stopped,trials.key_resp.keys,trials.key_resp.rt,trials.key_resp.duration,ending.started,text_3.started,ending_key.started,ending.stopped,ending_key.keys,ending_key.rt,ending_key.duration,participant,session,date,expName,psychopyVersion,frameRate,expStart,
,,,,,,,,,,,,,,,,0.003268200089223683,2.591113100061193,space,2.557675200048834,None,,,,,,,,,,,,,,,,,,,PM_en,001,2025-03-07_11h39.11.193,MainFlow,2024.2.4,130.23953652978602,2025-03-07 11h39.22.629291 +0700,
2,1,66,word/worden0661.png,0,0,0,z,0.7338017999427393,None,0,0,0,0,2.6318956000031903,,,,,,,2.6318956000031903,2.6318956000031903,3.5982844000682235,3.604873000062071,3.604873000062071,3.604873000062071,3.604873000062071,4.34213590004947,z,0.7338017999427393,None,,,,,,,,PM_en,001,2025-03-07_11h39.11.193,MainFlow,2024.2.4,130.23953652978602,2025-03-07 11h39.22.629291 +0700,
2,1,3,word/worden0031.png,1,1,0,z,0.5377285999711603,None,0,1,1,1,4.349157800083049,,,,,,,4.349157800083049,4.349157800083049,5.33933710004203,5.344755100086331,5.344755100086331,5.344755100086331,5.344755100086331,5.888037600088865,z,0.5377285999711603,None,,,,,,,,PM_en,001,2025-03-07_11h39.11.193,MainFlow,2024.2.4,130.23953652978602,2025-03-07 11h39.22.629291 +0700,
2,2,71,word/worden0712.png,2,2,0,x,0.5600597000448033,None,0,2,2,2,5.893627700046636,,,,,,,5.893627700046636,5.893627700046636,6.885278600035235,6.890839800005779,6.890839800005779,6.890839800005779,6.890839800005779,7.454283900093287,x,0.5600597000448033,None,,,,,,,,PM_en,001,2025-03-07_11h39.11.193,MainFlow,2024.2.4,130.23953652978602,2025-03-07 11h39.22.629291 +0700,
2,3,27,word/worden0273.png,3,3,0,x,0.4522742999251932,None,0,3,3,3,7.460020500002429,,,,,,,7.460020500002429,7.460020500002429,8.451964500010945,8.457138600060716,8.457138600060716,8.457138600060716,8.457138600060716,8.916596700088121,x,0.4522742999251932,None,,,,,,,,PM_en,001,2025-03-07_11h39.11.193,MainFlow,2024.2.4,130.23953652978602,2025-03-07 11h39.22.629291 +0700,
2,3,88,word/worden0883.png,4,4,0,x,0.9776361999101937,None,0,4,4,4,8.922731400001794,,,,,,,8.922731400001794,8.922731400001794,9.914954900043085,9.919972600066103,9.919972600066103,9.919972600066103,9.919972600066103,10.899804800050333,x,0.9776361999101937,None,,,,,,,,PM_en,001,2025-03-07_11h39.11.193,MainFlow,2024.2.4,130.23953652978602,2025-03-07 11h39.22.629291 +0700,
2,1,28,word/worden0281.png,5,5,0,z,0.4771981000667438,None,0,5,5,5,10.905813300050795,,,,,,,10.905813300050795,10.905813300050795,11.899904699996114,11.904774700058624,11.904774700058624,11.904774700058624,11.904774700058624,12.38626880000811,z,0.4771981000667438,None,,,,,,,,PM_en,001,2025-03-07_11h39.11.193,MainFlow,2024.2.4,130.23953652978602,2025-03-07 11h39.22.629291 +0700,
2,1,50,word/worden0501.png,6,6,0,z,0.4861784999957308,None,0,6,6,6,12.392186300014146,,,,,,,12.392186300014146,12.392186300014146,13.383649700088426,13.388773400103673,13.388773400103673,13.388773400103673,13.388773400103673,13.876236900105141,z,0.4861784999957308,None,,,,,,,,PM_en,001,2025-03-07_11h39.11.193,MainFlow,2024.2.4,130.23953652978602,2025-03-07 11h39.22.629291 +0700,
2,1,41,word/worden0411.png,7,7,0,z,0.5727984999539331,None,0,7,7,7,13.882250000024214,,,,,,,13.882250000024214,13.882250000024214,14.872707800008357,14.877417300012894,14.877417300012894,14.877417300012894,14.877417300012894,15.456111500039697,z,0.5727984999539331,None,,,,,,,,PM_en,001,2025-03-07_11h39.11.193,MainFlow,2024.2.4,130.23953652978602,2025-03-07 11h39.22.629291 +0700,
2,2,52,word/worden0522.png,8,8,0,x,0.5560042000142857,None,0,8,8,8,15.461177500081249,,,,,,,15.461177500081249,15.461177500081249,16.451499200076796,16.45622340007685,16.45622340007685,16.45622340007685,16.45622340007685,17.013351700035855,x,0.5560042000142857,None,,,,,,,,PM_en,001,2025-03-07_11h39.11.193,MainFlow,2024.2.4,130.23953652978602,2025-03-07 11h39.22.629291 +0700,
2,3,6,word/worden0063.png,9,9,0,x,0.5815992999123409,None,0,9,9,9,17.019351200084202,,,,,,,17.019351200084202,17.019351200084202,18.00981220009271,18.014226900064386,18.014226900064386,18.014226900064386,18.014226900064386,18.599089100025594,x,0.5815992999123409,None,,,,,,,,PM_en,001,2025-03-07_11h39.11.193,MainFlow,2024.2.4,130.23953652978602,2025-03-07 11h39.22.629291 +0700,
2,3,46,word/worden0463.png,10,10,0,x,0.6472725999774411,None,0,10,10,10,18.60552219999954,,,,,,,18.60552219999954,18.60552219999954,19.59696930006612,19.60211660002824,19.60211660002824,19.60211660002824,19.60211660002824,20.25631580001209,x,0.6472725999774411,None,,,,,,,,PM_en,001,2025-03-07_11h39.11.193,MainFlow,2024.2.4,130.23953652978602,2025-03-07 11h39.22.629291 +0700,
2,2,30,word/worden0302.png,11,11,0,x,0.4318453000159934,None,0,11,11,11,20.262341300025582,,,,,,,20.262341300025582,20.262341300025582,21.25274910009466,21.257383899996057,21.257383899996057,21.257383899996057,21.257383899996057,21.696911100065336,x,0.4318453000159934,None,,,,,,,,PM_en,001,2025-03-07_11h39.11.193,MainFlow,2024.2.4,130.23953652978602,2025-03-07 11h39.22.629291 +0700,
2,2,46,word/worden0462.png,12,12,0,x,0.5151650999905542,None,0,12,12,12,21.702211400028318,,,,,,,21.702211400028318,21.702211400028318,22.69336600007955,22.697983100079,22.697983100079,22.697983100079,22.697983100079,23.22059770009946,x,0.5151650999905542,None,,,,,,,,PM_en,001,2025-03-07_11h39.11.193,MainFlow,2024.2.4,130.23953652978602,2025-03-07 11h39.22.629291 +0700,
2,2,70,word/worden0702.png,13,13,0,x,0.6654880999121815,None,0,13,13,13,23.226771900081076,,,,,,,23.226771900081076,23.226771900081076,24.21578700002283,24.220598500105552,24.220598500105552,24.220598500105552,24.220598500105552,24.889135500066914,x,0.6654880999121815,None,,,,,,,,PM_en,001,2025-03-07_11h39.11.193,MainFlow,2024.2.4,130.23953652978602,2025-03-07 11h39.22.629291 +0700,
2,1,70,word/worden0701.png,14,14,0,z,0.5168838000390679,None,0,14,14,14,24.895238000084646,,,,,,,24.895238000084646,24.895238000084646,25.88730599998962,25.8926009000279,25.8926009000279,25.8926009000279,25.8926009000279,26.414027100079693,z,0.5168838000390679,None,,,,,,,,PM_en,001,2025-03-07_11h39.11.193,MainFlow,2024.2.4,130.23953652978602,2025-03-07 11h39.22.629291 +0700,
2,1,8,word/worden0081.png,15,15,0,z,0.4673055000603199,None,0,15,15,15,26.419906300026923,,,,,,,26.419906300026923,26.419906300026923,27.41132130008191,27.416345000034198,27.416345000034198,27.416345000034198,27.416345000034198,27.889549100073054,z,0.4673055000603199,None,,,,,,,,PM_en,001,2025-03-07_11h39.11.193,MainFlow,2024.2.4,130.23953652978602,2025-03-07 11h39.22.629291 +0700,
2,3,61,word/worden0613.png,16,16,0,x,0.519601900014095,None,0,16,16,16,27.89639160002116,,,,,,,27.89639160002116,27.89639160002116,28.8869669000851,28.89279600000009,28.89279600000009,28.89279600000009,28.89279600000009,29.41501040000003,x,0.519601900014095,None,,,,,,,,PM_en,001,2025-03-07_11h39.11.193,MainFlow,2024.2.4,130.23953652978602,2025-03-07 11h39.22.629291 +0700,
2,3,10,word/worden0103.png,17,17,0,x,0.5179005999816582,None,0,17,17,17,29.420916800037958,,,,,,,29.420916800037958,29.420916800037958,30.413784200092778,30.41893380007241,30.41893380007241,30.41893380007241,30.41893380007241,30.939601100049913,x,0.5179005999816582,None,,,,,,,,PM_en,001,2025-03-07_11h39.11.193,MainFlow,2024.2.4,130.23953652978602,2025-03-07 11h39.22.629291 +0700,
2,3,75,word/worden0753.png,18,18,0,x,0.5523747999686748,None,0,18,18,18,30.945662400103174,,,,,,,30.945662400103174,30.945662400103174,31.937873100047,31.94310590007808,31.94310590007808,31.94310590007808,31.94310590007808,32.49888070009183,x,0.5523747999686748,None,,,,,,,,PM_en,001,2025-03-07_11h39.11.193,MainFlow,2024.2.4,130.23953652978602,2025-03-07 11h39.22.629291 +0700,
2,2,63,word/worden0632.png,19,19,0,x,0.4949776000576094,None,0,19,19,19,32.50510440010112,,,,,,,32.50510440010112,32.50510440010112,33.4937285000924,33.49859660002403,33.49859660002403,33.49859660002403,33.49859660002403,33.999741500010714,x,0.4949776000576094,None,,,,,,,,PM_en,001,2025-03-07_11h39.11.193,MainFlow,2024.2.4,130.23953652978602,2025-03-07 11h39.22.629291 +0700,
2,3,11,word/worden0113.png,20,20,0,x,0.4564233999699354,None,0,20,20,20,34.00585370010231,,,,,,,34.00585370010231,34.00585370010231,34.996855100034736,35.00139530003071,35.00139530003071,35.00139530003071,35.00139530003071,35.462241400033236,x,0.4564233999699354,None,,,,,,,,PM_en,001,2025-03-07_11h39.11.193,MainFlow,2024.2.4,130.23953652978602,2025-03-07 11h39.22.629291 +0700,
2,2,89,word/worden0892.png,21,21,0,x,0.7074750000610948,None,0,21,21,21,35.46787090005819,,,,,,,35.46787090005819,35.46787090005819,36.45965350000188,36.46454200008884,36.46454200008884,36.46454200008884,36.46454200008884,37.17402680008672,x,0.7074750000610948,None,,,,,,,,PM_en,001,2025-03-07_11h39.11.193,MainFlow,2024.2.4,130.23953652978602,2025-03-07 11h39.22.629291 +0700,
2,1,9,word/worden0091.png,22,22,0,z,0.4346019000513479,None,0,22,22,22,37.18017210008111,,,,,,,37.18017210008111,37.18017210008111,38.170434900093824,38.17533680004999,38.17533680004999,38.17533680004999,38.17533680004999,38.614403500105254,z,0.4346019000513479,None,,,,,,,,PM_en,001,2025-03-07_11h39.11.193,MainFlow,2024.2.4,130.23953652978602,2025-03-07 11h39.22.629291 +0700,
2,3,28,word/worden0283.png,23,23,0,x,0.6928888000547886,None,0,23,23,23,38.62065050005913,,,,,,,38.62065050005913,38.62065050005913,39.61139150010422,39.616425100015476,39.616425100015476,39.616425100015476,39.616425100015476,40.312557300087065,x,0.6928888000547886,None,,,,,,,,PM_en,001,2025-03-07_11h39.11.193,MainFlow,2024.2.4,130.23953652978602,2025-03-07 11h39.22.629291 +0700,
2,1,82,word/worden0821.png,24,24,0,z,0.5151302999584004,None,0,24,24,24,40.318611600087024,,,,,,,40.318611600087024,40.318611600087024,41.308343400014564,41.31324200006202,41.31324200006202,41.31324200006202,41.31324200006202,41.835386499995366,z,0.5151302999584004,None,,,,,,,,PM_en,001,2025-03-07_11h39.11.193,MainFlow,2024.2.4,130.23953652978602,2025-03-07 11h39.22.629291 +0700,
2,2,28,word/worden0282.png,25,25,0,x,0.5139534999616444,None,0,25,25,25,41.84177090006415,,,,,,,41.84177090006415,41.84177090006415,42.83304870000575,42.83753720007371,42.83753720007371,42.83753720007371,42.83753720007371,43.35330080008134,x,0.5139534999616444,None,,,,,,,,PM_en,001,2025-03-07_11h39.11.193,MainFlow,2024.2.4,130.23953652978602,2025-03-07 11h39.22.629291 +0700,
2,1,23,word/worden0231.png,26,26,0,z,0.5215396999847144,None,0,26,26,26,43.35898680007085,,,,,,,43.35898680007085,43.35898680007085,44.35011120000854,44.354847700102255,44.354847700102255,44.354847700102255,44.354847700102255,44.87782870000228,z,0.5215396999847144,None,,,,,,,,PM_en,001,2025-03-07_11h39.11.193,MainFlow,2024.2.4,130.23953652978602,2025-03-07 11h39.22.629291 +0700,
2,2,42,word/worden0422.png,27,27,0,x,0.5383140998892486,None,0,27,27,27,44.88310730003286,,,,,,,44.88310730003286,44.88310730003286,45.87638690008316,45.88144790008664,45.88144790008664,45.88144790008664,45.88144790008664,46.42329659999814,x,0.5383140998892486,None,,,,,,,,PM_en,001,2025-03-07_11h39.11.193,MainFlow,2024.2.4,130.23953652978602,2025-03-07 11h39.22.629291 +0700,
2,2,93,word/worden0932.png,28,28,0,x,0.6165118999779224,None,0,28,28,28,46.42872520000674,,,,,,,46.42872520000674,46.42872520000674,47.42179860000033,47.42670180008281,47.42670180008281,47.42670180008281,47.42670180008281,48.044948900002055,x,0.6165118999779224,None,,,,,,,,PM_en,001,2025-03-07_11h39.11.193,MainFlow,2024.2.4,130.23953652978602,2025-03-07 11h39.22.629291 +0700,
2,1,88,word/worden0881.png,29,29,0,z,0.5844467000570148,None,0,29,29,29,48.050972900004126,,,,,,,48.050972900004126,48.050972900004126,49.04237879998982,49.04754990001675,49.04754990001675,49.04754990001675,49.04754990001675,49.63865930004977,z,0.5844467000570148,None,,,,,,,,PM_en,001,2025-03-07_11h39.11.193,MainFlow,2024.2.4,130.23953652978602,2025-03-07 11h39.22.629291 +0700,
2,3,31,word/worden0313.png,30,30,0,x,0.5552191000897437,None,0,30,30,30,49.64553110010456,,,,,,,49.64553110010456,49.64553110010456,50.63470420008525,50.640069500077516,50.640069500077516,50.640069500077516,50.640069500077516,51.197245400049724,x,0.5552191000897437,None,,,,,,,,PM_en,001,2025-03-07_11h39.11.193,MainFlow,2024.2.4,130.23953652978602,2025-03-07 11h39.22.629291 +0700,
2,2,75,word/worden0752.png,31,31,0,x,0.7259660999989137,None,0,31,31,31,51.20349690003786,,,,,,,51.20349690003786,51.20349690003786,52.19315520010423,52.198025300051086,52.198025300051086,52.198025300051086,52.198025300051086,52.92885120003484,x,0.7259660999989137,None,,,,,,,,PM_en,001,2025-03-07_11h39.11.193,MainFlow,2024.2.4,130.23953652978602,2025-03-07 11h39.22.629291 +0700,
2,2,48,word/worden0482.png,32,32,0,x,0.5058277999050915,None,0,32,32,32,52.93503789999522,,,,,,,52.93503789999522,52.93503789999522,53.92308960005175,53.927523700054735,53.927523700054735,53.927523700054735,53.927523700054735,54.43606960005127,x,0.5058277999050915,None,,,,,,,,PM_en,001,2025-03-07_11h39.11.193,MainFlow,2024.2.4,130.23953652978602,2025-03-07 11h39.22.629291 +0700,
2,1,26,word/worden0261.png,33,33,0,z,0.5774428000440821,None,0,33,33,33,54.44219850003719,,,,,,,54.44219850003719,54.44219850003719,55.43465710000601,55.43979800003581,55.43979800003581,55.43979800003581,55.43979800003581,56.02389020007104,z,0.5774428000440821,None,,,,,,,,PM_en,001,2025-03-07_11h39.11.193,MainFlow,2024.2.4,130.23953652978602,2025-03-07 11h39.22.629291 +0700,
2,2,41,word/worden0412.png,34,34,0,x,0.535457200021483,None,0,34,34,34,56.02926880004816,,,,,,,56.02926880004816,56.02926880004816,57.01999890001025,57.02494390006177,57.02494390006177,57.02494390006177,57.02494390006177,57.56182160007302,x,0.535457200021483,None,,,,,,,,PM_en,001,2025-03-07_11h39.11.193,MainFlow,2024.2.4,130.23953652978602,2025-03-07 11h39.22.629291 +0700,
2,3,66,word/worden0663.png,35,35,0,x,0.9562055000569671,None,0,35,35,35,57.56707670004107,,,,,,,57.56707670004107,57.56707670004107,58.55834520002827,58.56292610010132,58.56292610010132,58.56292610010132,58.56292610010132,59.52307470003143,x,0.9562055000569671,None,,,,,,,,PM_en,001,2025-03-07_11h39.11.193,MainFlow,2024.2.4,130.23953652978602,2025-03-07 11h39.22.629291 +0700,
2,1,6,word/worden0061.png,36,36,0,z,0.5665135000599548,None,0,36,36,36,59.52880030008964,,,,,,,59.52880030008964,59.52880030008964,60.52140060008969,60.52629480010364,60.52629480010364,60.52629480010364,60.52629480010364,61.096636600093916,z,0.5665135000599548,None,,,,,,,,PM_en,001,2025-03-07_11h39.11.193,MainFlow,2024.2.4,130.23953652978602,2025-03-07 11h39.22.629291 +0700,
2,1,42,word/worden0421.png,37,37,0,z,0.5525302999885753,None,0,37,37,37,61.10250720009208,,,,,,,61.10250720009208,61.10250720009208,62.093746600090526,62.098531200084835,62.098531200084835,62.098531200084835,62.098531200084835,62.65560890000779,z,0.5525302999885753,None,,,,,,,,PM_en,001,2025-03-07_11h39.11.193,MainFlow,2024.2.4,130.23953652978602,2025-03-07 11h39.22.629291 +0700,
2,3,41,word/worden0413.png,38,38,0,x,0.7581409000558779,None,0,38,38,38,62.66177660005633,,,,,,,62.66177660005633,62.66177660005633,63.65683200000785,63.66177860007156,63.66177860007156,63.66177860007156,63.66177860007156,64.42710500000976,x,0.7581409000558779,None,,,,,,,,PM_en,001,2025-03-07_11h39.11.193,MainFlow,2024.2.4,130.23953652978602,2025-03-07 11h39.22.629291 +0700,
2,2,23,word/worden0232.png,39,39,0,x,0.6082776000257581,None,0,39,39,39,64.43327850010246,,,,,,,64.43327850010246,64.43327850010246,65.42656550009269,65.43165969999973,65.43165969999973,65.43165969999973,65.43165969999973,66.04516390000936,x,0.6082776000257581,None,,,,,,,,PM_en,001,2025-03-07_11h39.11.193,MainFlow,2024.2.4,130.23953652978602,2025-03-07 11h39.22.629291 +0700,
2,3,96,word/worden0963.png,40,40,0,x,0.7175283000105992,None,0,40,40,40,66.05127080006059,,,,,,,66.05127080006059,66.05127080006059,67.04403510002885,67.0497202000115,67.0497202000115,67.0497202000115,67.0497202000115,67.77142690005712,x,0.7175283000105992,None,,,,,,,,PM_en,001,2025-03-07_11h39.11.193,MainFlow,2024.2.4,130.23953652978602,2025-03-07 11h39.22.629291 +0700,
2,1,61,word/worden0611.png,41,41,0,z,0.6226898999884725,None,0,41,41,41,67.77759280009195,,,,,,,67.77759280009195,67.77759280009195,68.76855230005458,68.7734300000593,68.7734300000593,68.7734300000593,68.7734300000593,69.40049820009153,z,0.6226898999884725,None,,,,,,,,PM_en,001,2025-03-07_11h39.11.193,MainFlow,2024.2.4,130.23953652978602,2025-03-07 11h39.22.629291 +0700,
2,3,9,word/worden0093.png,42,42,0,x,0.664975400082767,None,0,42,42,42,69.40653610008303,,,,,,,69.40653610008303,69.40653610008303,70.40044520003721,70.40545300010126,70.40545300010126,70.40545300010126,70.40545300010126,71.07417180004995,x,0.664975400082767,None,,,,,,,,PM_en,001,2025-03-07_11h39.11.193,MainFlow,2024.2.4,130.23953652978602,2025-03-07 11h39.22.629291 +0700,
2,3,63,word/worden0633.png,43,43,0,x,0.706966400030069,None,0,43,43,43,71.07987150002737,,,,,,,71.07987150002737,71.07987150002737,72.07133589999285,72.07629410002846,72.07629410002846,72.07629410002846,72.07629410002846,72.78606340009719,x,0.706966400030069,None,,,,,,,,PM_en,001,2025-03-07_11h39.11.193,MainFlow,2024.2.4,130.23953652978602,2025-03-07 11h39.22.629291 +0700,
2,3,50,word/worden0503.png,44,44,0,x,0.6810187000082806,None,0,44,44,44,72.7922177000437,,,,,,,72.7922177000437,72.7922177000437,73.78235560003668,73.78733110008761,73.78733110008761,73.78733110008761,73.78733110008761,74.47022610006388,x,0.6810187000082806,None,,,,,,,,PM_en,001,2025-03-07_11h39.11.193,MainFlow,2024.2.4,130.23953652978602,2025-03-07 11h39.22.629291 +0700,
2,2,27,word/worden0272.png,45,45,0,x,0.5138181999791414,None,0,45,45,45,74.4752160999924,,,,,,,74.4752160999924,74.4752160999924,75.466875800048,75.47184570005629,75.47184570005629,75.47184570005629,75.47184570005629,75.98718739999458,x,0.5138181999791414,None,,,,,,,,PM_en,001,2025-03-07_11h39.11.193,MainFlow,2024.2.4,130.23953652978602,2025-03-07 11h39.22.629291 +0700,
2,2,61,word/worden0612.png,46,46,0,x,0.534936900017783,None,0,46,46,46,75.99344230000861,,,,,,,75.99344230000861,75.99344230000861,76.9850578000769,76.99017140001524,76.99017140001524,76.99017140001524,76.99017140001524,77.52709320001304,x,0.534936900017783,None,,,,,,,,PM_en,001,2025-03-07_11h39.11.193,MainFlow,2024.2.4,130.23953652978602,2025-03-07 11h39.22.629291 +0700,
2,3,7,word/worden0073.png,47,47,0,x,0.5783405000111088,None,0,47,47,47,77.53180950006936,,,,,,,77.53180950006936,77.53180950006936,78.52958070009481,78.53502910002135,78.53502910002135,78.53502910002135,78.53502910002135,79.11838220001664,x,0.5783405000111088,None,,,,,,,,PM_en,001,2025-03-07_11h39.11.193,MainFlow,2024.2.4,130.23953652978602,2025-03-07 11h39.22.629291 +0700,
2,3,23,word/worden0233.png,48,48,0,x,0.5502066999906674,None,0,48,48,48,79.12443329999223,,,,,,,79.12443329999223,79.12443329999223,80.1173914000392,80.12216250004712,80.12216250004712,80.12216250004712,80.12216250004712,80.6788852000609,x,0.5502066999906674,None,,,,,,,,PM_en,001,2025-03-07_11h39.11.193,MainFlow,2024.2.4,130.23953652978602,2025-03-07 11h39.22.629291 +0700,
2,1,95,word/worden0951.png,49,49,0,x,0.5609203999629244,None,0,49,49,49,80.68365440005437,,,,,,,80.68365440005437,80.68365440005437,81.6750863000052,81.68022440001369,81.68022440001369,81.68022440001369,81.68022440001369,82.24413610005286,x,0.5609203999629244,None,,,,,,,,PM_en,001,2025-03-07_11h39.11.193,MainFlow,2024.2.4,130.23953652978602,2025-03-07 11h39.22.629291 +0700,
2,3,42,word/worden0423.png,50,50,0,x,0.6433455001097172,None,0,50,50,50,82.25124530005269,,,,,,,82.25124530005269,82.25124530005269,83.24226670002099,83.24757980008144,83.24757980008144,83.24757980008144,83.24757980008144,83.89436999999452,x,0.6433455001097172,None,,,,,,,,PM_en,001,2025-03-07_11h39.11.193,MainFlow,2024.2.4,130.23953652978602,2025-03-07 11h39.22.629291 +0700,
2,1,30,word/worden0301.png,51,51,0,z,0.48140079993754625,None,0,51,51,51,83.90036690002307,,,,,,,83.90036690002307,83.90036690002307,84.89224090008065,84.89769750006963,84.89769750006963,84.89769750006963,84.89769750006963,85.3841059000697,z,0.48140079993754625,None,,,,,,,,PM_en,001,2025-03-07_11h39.11.193,MainFlow,2024.2.4,130.23953652978602,2025-03-07 11h39.22.629291 +0700,
2,3,87,word/worden0873.png,52,52,0,x,0.6476257999893278,None,0,52,52,52,85.39034770010039,,,,,,,85.39034770010039,85.39034770010039,86.38061740004923,86.38536170008592,86.38536170008592,86.38536170008592,86.38536170008592,87.04017310007475,x,0.6476257999893278,None,,,,,,,,PM_en,001,2025-03-07_11h39.11.193,MainFlow,2024.2.4,130.23953652978602,2025-03-07 11h39.22.629291 +0700,
2,2,6,word/worden0062.png,53,53,0,x,0.5207259000744671,None,0,53,53,53,87.04540530010127,,,,,,,87.04540530010127,87.04540530010127,88.03626780002378,88.04087600007188,88.04087600007188,88.04087600007188,88.04087600007188,88.56422200007364,x,0.5207259000744671,None,,,,,,,,PM_en,001,2025-03-07_11h39.11.193,MainFlow,2024.2.4,130.23953652978602,2025-03-07 11h39.22.629291 +0700,
2,2,68,word/worden0682.png,54,54,0,x,0.4678132999688387,None,0,54,54,54,88.56928030005656,,,,,,,88.56928030005656,88.56928030005656,89.56286890001502,89.56849790003616,89.56849790003616,89.56849790003616,89.56849790003616,90.04239970003255,x,0.4678132999688387,None,,,,,,,,PM_en,001,2025-03-07_11h39.11.193,MainFlow,2024.2.4,130.23953652978602,2025-03-07 11h39.22.629291 +0700,
2,3,1,word/worden0013.png,55,55,0,x,1.0544042999390513,None,0,55,55,55,90.04904710000847,,,,,,,90.04904710000847,90.04904710000847,91.03897130000405,91.04406360001303,91.04406360001303,91.04406360001303,91.04406360001303,92.1010360000655,x,1.0544042999390513,None,,,,,,,,PM_en,001,2025-03-07_11h39.11.193,MainFlow,2024.2.4,130.23953652978602,2025-03-07 11h39.22.629291 +0700,
2,2,94,word/worden0942.png,56,56,0,x,0.5582698999205604,None,0,56,56,56,92.10723800002597,,,,,,,92.10723800002597,92.10723800002597,93.09946820000187,93.10408790002111,93.10408790002111,93.10408790002111,93.10408790002111,93.66770610003732,x,0.5582698999205604,None,,,,,,,,PM_en,001,2025-03-07_11h39.11.193,MainFlow,2024.2.4,130.23953652978602,2025-03-07 11h39.22.629291 +0700,
2,3,82,word/worden0823.png,57,57,0,x,0.8729576000478119,None,0,57,57,57,93.6738077000482,,,,,,,93.6738077000482,93.6738077000482,94.66259850002825,94.6670777000254,94.6670777000254,94.6670777000254,94.6670777000254,95.54367470007855,x,0.8729576000478119,None,,,,,,,,PM_en,001,2025-03-07_11h39.11.193,MainFlow,2024.2.4,130.23953652978602,2025-03-07 11h39.22.629291 +0700,
2,1,89,word/worden0891.png,58,58,0,z,0.613747900002636,None,0,58,58,58,95.54975090001244,,,,,,,95.54975090001244,95.54975090001244,96.54046190006193,96.54547780007124,96.54547780007124,96.54547780007124,96.54547780007124,97.16541950008832,z,0.613747900002636,None,,,,,,,,PM_en,001,2025-03-07_11h39.11.193,MainFlow,2024.2.4,130.23953652978602,2025-03-07 11h39.22.629291 +0700,
2,1,31,word/worden0311.png,59,59,0,z,0.5301476999884471,None,0,59,59,59,97.17160080000758,,,,,,,97.17160080000758,97.17160080000758,98.167536700028,98.17290420003701,98.17290420003701,98.17290420003701,98.17290420003701,98.7083813000936,z,0.5301476999884471,None,,,,,,,,PM_en,001,2025-03-07_11h39.11.193,MainFlow,2024.2.4,130.23953652978602,2025-03-07 11h39.22.629291 +0700,
2,2,51,word/worden0512.png,60,60,0,x,0.47812520002480596,None,0,60,60,60,98.71467860008124,,,,,,,98.71467860008124,98.71467860008124,99.7040549000958,99.70875580003485,99.70875580003485,99.70875580003485,99.70875580003485,100.18946880009025,x,0.47812520002480596,None,,,,,,,,PM_en,001,2025-03-07_11h39.11.193,MainFlow,2024.2.4,130.23953652978602,2025-03-07 11h39.22.629291 +0700,
2,3,44,word/worden0443.png,61,61,0,x,0.9672559999162331,None,0,61,61,61,100.19576240004972,,,,,,,100.19576240004972,100.19576240004972,101.18678420002107,101.19219740002882,101.19219740002882,101.19219740002882,101.19219740002882,102.16527410002891,x,0.9672559999162331,None,,,,,,,,PM_en,001,2025-03-07_11h39.11.193,MainFlow,2024.2.4,130.23953652978602,2025-03-07 11h39.22.629291 +0700,
2,1,1,word/worden0011.png,62,62,0,z,0.5020002000965178,None,0,62,62,62,102.17206840007566,,,,,,,102.17206840007566,102.17206840007566,103.16189370001666,103.16681110009085,103.16681110009085,103.16681110009085,103.16681110009085,103.67513170000166,z,0.5020002000965178,None,,,,,,,,PM_en,001,2025-03-07_11h39.11.193,MainFlow,2024.2.4,130.23953652978602,2025-03-07 11h39.22.629291 +0700,
2,1,96,word/worden0961.png,63,63,0,z,0.621036299970001,None,0,63,63,63,103.68135860003531,,,,,,,103.68135860003531,103.68135860003531,104.67230380000547,104.6768110000994,104.6768110000994,104.6768110000994,104.6768110000994,105.30344160005916,z,0.621036299970001,None,,,,,,,,PM_en,001,2025-03-07_11h39.11.193,MainFlow,2024.2.4,130.23953652978602,2025-03-07 11h39.22.629291 +0700,
2,1,11,word/worden0111.png,64,64,0,z,0.5058058000868186,None,0,64,64,64,105.30953100009356,,,,,,,105.30953100009356,105.30953100009356,106.30027590005193,106.30562970007304,106.30562970007304,106.30562970007304,106.30562970007304,106.81413250009064,z,0.5058058000868186,None,,,,,,,,PM_en,001,2025-03-07_11h39.11.193,MainFlow,2024.2.4,130.23953652978602,2025-03-07 11h39.22.629291 +0700,
2,3,70,word/worden0703.png,65,65,0,x,0.5898157999617979,None,0,65,65,65,106.82028930005617,,,,,,,106.82028930005617,106.82028930005617,107.8098186000716,107.81486160005443,107.81486160005443,107.81486160005443,107.81486160005443,108.40683950006496,x,0.5898157999617979,None,,,,,,,,PM_en,001,2025-03-07_11h39.11.193,MainFlow,2024.2.4,130.23953652978602,2025-03-07 11h39.22.629291 +0700,
2,3,71,word/worden0713.png,66,66,0,x,0.6290333000943065,None,0,66,66,66,108.412344600074,,,,,,,108.412344600074,108.412344600074,109.40426860004663,109.41017280006781,109.41017280006781,109.41017280006781,109.41017280006781,110.04265240009408,x,0.6290333000943065,None,,,,,,,,PM_en,001,2025-03-07_11h39.11.193,MainFlow,2024.2.4,130.23953652978602,2025-03-07 11h39.22.629291 +0700,
2,1,68,word/worden0681.png,67,67,0,z,0.5370979000581428,None,0,67,67,67,110.04870590008795,,,,,,,110.04870590008795,110.04870590008795,111.04001160000917,111.04509130003862,111.04509130003862,111.04509130003862,111.04509130003862,111.58837710006628,z,0.5370979000581428,None,,,,,,,,PM_en,001,2025-03-07_11h39.11.193,MainFlow,2024.2.4,130.23953652978602,2025-03-07 11h39.22.629291 +0700,
2,2,88,word/worden0882.png,68,68,0,x,0.7232651000376791,None,0,68,68,68,111.5952030000044,,,,,,,111.5952030000044,111.5952030000044,112.5868420000188,112.59239290002733,112.59239290002733,112.59239290002733,112.59239290002733,113.32158280001022,x,0.7232651000376791,None,,,,,,,,PM_en,001,2025-03-07_11h39.11.193,MainFlow,2024.2.4,130.23953652978602,2025-03-07 11h39.22.629291 +0700,
2,2,50,word/worden0502.png,69,69,0,z,0.544985800050199,None,0,69,69,69,113.32757890003268,,,,,,,113.32757890003268,113.32757890003268,114.31904910004232,114.32379130006302,114.32379130006302,114.32379130006302,114.32379130006302,114.87373890005983,z,0.544985800050199,None,,,,,,,,PM_en,001,2025-03-07_11h39.11.193,MainFlow,2024.2.4,130.23953652978602,2025-03-07 11h39.22.629291 +0700,
2,3,93,word/worden0933.png,70,70,0,x,0.9261232999851927,None,0,70,70,70,114.8797034000745,,,,,,,114.8797034000745,114.8797034000745,115.87682320002932,115.88191640004516,115.88191640004516,115.88191640004516,115.88191640004516,116.81305170000996,x,0.9261232999851927,None,,,,,,,,PM_en,001,2025-03-07_11h39.11.193,MainFlow,2024.2.4,130.23953652978602,2025-03-07 11h39.22.629291 +0700,
2,1,63,word/worden0631.png,71,71,0,z,0.6228859000839293,None,0,71,71,71,116.81920110003557,,,,,,,116.81920110003557,116.81920110003557,117.80876470007934,117.81333630008157,117.81333630008157,117.81333630008157,117.81333630008157,118.44014820002485,z,0.6228859000839293,None,,,,,,,,PM_en,001,2025-03-07_11h39.11.193,MainFlow,2024.2.4,130.23953652978602,2025-03-07 11h39.22.629291 +0700,
2,2,7,word/worden0072.png,72,72,0,x,0.5946654999861494,None,0,72,72,72,118.44611190003343,,,,,,,118.44611190003343,118.44611190003343,119.44025860005058,119.44550720008556,119.44550720008556,119.44550720008556,119.44550720008556,120.04453340009786,x,0.5946654999861494,None,,,,,,,,PM_en,001,2025-03-07_11h39.11.193,MainFlow,2024.2.4,130.23953652978602,2025-03-07 11h39.22.629291 +0700,
2,2,64,word/worden0642.png,73,73,0,x,0.5709835001034662,None,0,73,73,73,120.05038580007385,,,,,,,120.05038580007385,120.05038580007385,121.04302240000106,121.04808330000378,121.04808330000378,121.04808330000378,121.04808330000378,121.62465420004446,x,0.5709835001034662,None,,,,,,,,PM_en,001,2025-03-07_11h39.11.193,MainFlow,2024.2.4,130.23953652978602,2025-03-07 11h39.22.629291 +0700,
2,1,24,word/worden0241.png,74,74,0,z,0.998160699964501,None,0,74,74,74,121.63138900010381,,,,,,,121.63138900010381,121.63138900010381,122.6280504000606,122.63329560006969,122.63329560006969,122.63329560006969,122.63329560006969,123.63339770003222,z,0.998160699964501,None,,,,,,,,PM_en,001,2025-03-07_11h39.11.193,MainFlow,2024.2.4,130.23953652978602,2025-03-07 11h39.22.629291 +0700,
2,2,1,word/worden0012.png,75,75,0,x,0.5505424999864772,None,0,75,75,75,123.63933740009088,,,,,,,123.63933740009088,123.63933740009088,124.63399350002874,124.63971350004431,124.63971350004431,124.63971350004431,124.63971350004431,125.19681630004197,x,0.5505424999864772,None,,,,,,,,PM_en,001,2025-03-07_11h39.11.193,MainFlow,2024.2.4,130.23953652978602,2025-03-07 11h39.22.629291 +0700,
2,1,46,word/worden0461.png,76,76,0,z,0.5969557000789791,None,0,76,76,76,125.20245760004036,,,,,,,125.20245760004036,125.20245760004036,126.19260860001668,126.19714619999286,126.19714619999286,126.19714619999286,126.19714619999286,126.79601220006589,z,0.5969557000789791,None,,,,,,,,PM_en,001,2025-03-07_11h39.11.193,MainFlow,2024.2.4,130.23953652978602,2025-03-07 11h39.22.629291 +0700,
2,3,52,word/worden0523.png,77,77,0,x,0.5949822999536991,None,0,77,77,77,126.802271499997,,,,,,,126.802271499997,126.802271499997,127.79278310004156,127.79741220001597,127.79741220001597,127.79741220001597,127.79741220001597,128.39643530000467,x,0.5949822999536991,None,,,,,,,,PM_en,001,2025-03-07_11h39.11.193,MainFlow,2024.2.4,130.23953652978602,2025-03-07 11h39.22.629291 +0700,
2,2,31,word/worden0312.png,78,78,0,x,0.6501987000228837,None,0,78,78,78,128.40261720004492,,,,,,,128.40261720004492,128.40261720004492,129.39203890005592,129.3966628999915,129.3966628999915,129.3966628999915,129.3966628999915,130.0509582000086,x,0.6501987000228837,None,,,,,,,,PM_en,001,2025-03-07_11h39.11.193,MainFlow,2024.2.4,130.23953652978602,2025-03-07 11h39.22.629291 +0700,
2,2,95,word/worden0952.png,79,79,0,x,0.7563723999774083,None,0,79,79,79,130.05691510008182,,,,,,,130.05691510008182,130.05691510008182,131.0489227999933,131.05383620003704,131.05383620003704,131.05383620003704,131.05383620003704,131.8120372000849,x,0.7563723999774083,None,,,,,,,,PM_en,001,2025-03-07_11h39.11.193,MainFlow,2024.2.4,130.23953652978602,2025-03-07 11h39.22.629291 +0700,
2,1,93,word/worden0931.png,80,80,0,z,0.6820161000359803,None,0,80,80,80,131.81797500001267,,,,,,,131.81797500001267,131.81797500001267,132.8107911000261,132.8159708000021,132.8159708000021,132.8159708000021,132.8159708000021,133.50320820009802,z,0.6820161000359803,None,,,,,,,,PM_en,001,2025-03-07_11h39.11.193,MainFlow,2024.2.4,130.23953652978602,2025-03-07 11h39.22.629291 +0700,
2,1,71,word/worden0711.png,81,81,0,z,0.6063250999432057,None,0,81,81,81,133.50949700002093,,,,,,,133.50949700002093,133.50949700002093,134.50018150010146,134.5053577000508,134.5053577000508,134.5053577000508,134.5053577000508,135.1182897000108,z,0.6063250999432057,None,,,,,,,,PM_en,001,2025-03-07_11h39.11.193,MainFlow,2024.2.4,130.23953652978602,2025-03-07 11h39.22.629291 +0700,
2,1,48,word/worden0481.png,82,82,0,z,0.7753264999482781,None,0,82,82,82,135.12431320000906,,,,,,,135.12431320000906,135.12431320000906,136.114956800011,136.12010420009028,136.12010420009028,136.12010420009028,136.12010420009028,136.89986530004535,z,0.7753264999482781,None,,,,,,,,PM_en,001,2025-03-07_11h39.11.193,MainFlow,2024.2.4,130.23953652978602,2025-03-07 11h39.22.629291 +0700,
2,1,94,word/worden0941.png,83,83,0,z,0.7158546999562532,None,0,83,83,83,136.90559630002826,,,,,,,136.90559630002826,136.90559630002826,137.89845229999628,137.9030123000266,137.9030123000266,137.9030123000266,137.9030123000266,138.62574960000347,z,0.7158546999562532,None,,,,,,,,PM_en,001,2025-03-07_11h39.11.193,MainFlow,2024.2.4,130.23953652978602,2025-03-07 11h39.22.629291 +0700,
2,3,68,word/worden0683.png,84,84,0,x,0.7643693999852985,None,0,84,84,84,138.63177510001697,,,,,,,138.63177510001697,138.63177510001697,139.62313369999174,139.62840710009914,139.62840710009914,139.62840710009914,139.62840710009914,140.39403130009305,x,0.7643693999852985,None,,,,,,,,PM_en,001,2025-03-07_11h39.11.193,MainFlow,2024.2.4,130.23953652978602,2025-03-07 11h39.22.629291 +0700,
2,2,66,word/worden0662.png,85,85,0,x,0.8428287000861019,None,0,85,85,85,140.3998059000587,,,,,,,140.3998059000587,140.3998059000587,141.39278910006396,141.39821340003982,141.39821340003982,141.39821340003982,141.39821340003982,142.24780920008197,x,0.8428287000861019,None,,,,,,,,PM_en,001,2025-03-07_11h39.11.193,MainFlow,2024.2.4,130.23953652978602,2025-03-07 11h39.22.629291 +0700,
2,3,95,word/worden0953.png,86,86,0,x,0.8465915999840945,None,0,86,86,86,142.25392160005867,,,,,,,142.25392160005867,142.25392160005867,143.24759660009295,143.25279960001353,143.25279960001353,143.25279960001353,143.25279960001353,144.1022851000307,x,0.8465915999840945,None,,,,,,,,PM_en,001,2025-03-07_11h39.11.193,MainFlow,2024.2.4,130.23953652978602,2025-03-07 11h39.22.629291 +0700,
2,3,30,word/worden0303.png,87,87,0,x,0.6261575999669731,None,0,87,87,87,144.10814570006914,,,,,,,144.10814570006914,144.10814570006914,145.10132540005725,145.1062121000141,145.1062121000141,145.1062121000141,145.1062121000141,145.73788560007233,x,0.6261575999669731,None,,,,,,,,PM_en,001,2025-03-07_11h39.11.193,MainFlow,2024.2.4,130.23953652978602,2025-03-07 11h39.22.629291 +0700,
2,3,22,word/worden0223.png,88,88,0,x,0.5605838999617845,None,0,88,88,88,145.74396120000165,,,,,,,145.74396120000165,145.74396120000165,146.73673290002625,146.74145780003164,146.74145780003164,146.74145780003164,146.74145780003164,147.30449040001258,x,0.5605838999617845,None,,,,,,,,PM_en,001,2025-03-07_11h39.11.193,MainFlow,2024.2.4,130.23953652978602,2025-03-07 11h39.22.629291 +0700,
2,1,75,word/worden0751.png,89,89,0,z,0.7583044999046251,None,0,89,89,89,147.3107686000876,,,,,,,147.3107686000876,147.3107686000876,148.30175790004432,148.30619920010213,148.30619920010213,148.30619920010213,148.30619920010213,149.07220110006165,z,0.7583044999046251,None,,,,,,,,PM_en,001,2025-03-07_11h39.11.193,MainFlow,2024.2.4,130.23953652978602,2025-03-07 11h39.22.629291 +0700,
2,1,64,word/worden0641.png,90,90,0,z,1.1234943999443203,None,0,90,90,90,149.07790110004134,,,,,,,149.07790110004134,149.07790110004134,150.07013440004084,150.07483030005824,150.07483030005824,150.07483030005824,150.07483030005824,151.20109260000754,z,1.1234943999443203,None,,,,,,,,PM_en,001,2025-03-07_11h39.11.193,MainFlow,2024.2.4,130.23953652978602,2025-03-07 11h39.22.629291 +0700,
2,1,27,word/worden0271.png,91,91,0,z,0.6407385999336839,None,0,91,91,91,151.2072406000225,,,,,,,151.2072406000225,151.2072406000225,152.19999890006147,152.2060882000951,152.2060882000951,152.2060882000951,152.2060882000951,152.8507501001004,z,0.6407385999336839,None,,,,,,,,PM_en,001,2025-03-07_11h39.11.193,MainFlow,2024.2.4,130.23953652978602,2025-03-07 11h39.22.629291 +0700,
2,2,24,word/worden0242.png,92,92,0,x,0.6839074000017717,None,0,92,92,92,152.8570721000433,,,,,,,152.8570721000433,152.8570721000433,153.8512492000591,153.85627490002662,153.85627490002662,153.85627490002662,153.85627490002662,154.54559570003767,x,0.6839074000017717,None,,,,,,,,PM_en,001,2025-03-07_11h39.11.193,MainFlow,2024.2.4,130.23953652978602,2025-03-07 11h39.22.629291 +0700,
2,1,87,word/worden0871.png,93,93,0,z,0.639546100050211,None,0,93,93,93,154.55173770000692,,,,,,,154.55173770000692,154.55173770000692,155.54090040002484,155.54544900008477,155.54544900008477,155.54544900008477,155.54544900008477,156.18665110005531,z,0.639546100050211,None,,,,,,,,PM_en,001,2025-03-07_11h39.11.193,MainFlow,2024.2.4,130.23953652978602,2025-03-07 11h39.22.629291 +0700,
2,1,7,word/worden0071.png,94,94,0,z,0.6468755999812856,None,0,94,94,94,156.19180170004256,,,,,,,156.19180170004256,156.19180170004256,157.18560359999537,157.19082340004388,157.19082340004388,157.19082340004388,157.19082340004388,157.83906670007855,z,0.6468755999812856,None,,,,,,,,PM_en,001,2025-03-07_11h39.11.193,MainFlow,2024.2.4,130.23953652978602,2025-03-07 11h39.22.629291 +0700,
2,2,9,word/worden0092.png,95,95,0,x,0.5336559000425041,None,0,95,95,95,157.84500450000633,,,,,,,157.84500450000633,157.84500450000633,158.83778629999142,158.84303340001497,158.84303340001497,158.84303340001497,158.84303340001497,159.37804950005375,x,0.5336559000425041,None,,,,,,,,PM_en,001,2025-03-07_11h39.11.193,MainFlow,2024.2.4,130.23953652978602,2025-03-07 11h39.22.629291 +0700,
2,1,44,word/worden0441.png,96,96,0,z,0.6390564000466838,None,0,96,96,96,159.38333010009956,,,,,,,159.38333010009956,159.38333010009956,160.37596680002753,160.38173790008295,160.38173790008295,160.38173790008295,160.38173790008295,161.0269125000341,z,0.6390564000466838,None,,,,,,,,PM_en,001,2025-03-07_11h39.11.193,MainFlow,2024.2.4,130.23953652978602,2025-03-07 11h39.22.629291 +0700,
2,2,10,word/worden0102.png,97,97,0,x,0.5848670999985188,None,0,97,97,97,161.03324830008205,,,,,,,161.03324830008205,161.03324830008205,162.023858700064,162.0287763000233,162.0287763000233,162.0287763000233,162.0287763000233,162.62048250006046,x,0.5848670999985188,None,,,,,,,,PM_en,001,2025-03-07_11h39.11.193,MainFlow,2024.2.4,130.23953652978602,2025-03-07 11h39.22.629291 +0700,
2,2,82,word/worden0822.png,98,98,0,x,0.7036617000121623,None,0,98,98,98,162.6269441000186,,,,,,,162.6269441000186,162.6269441000186,163.61832000000868,163.623150600004,163.623150600004,163.623150600004,163.623150600004,164.3333350000903,x,0.7036617000121623,None,,,,,,,,PM_en,001,2025-03-07_11h39.11.193,MainFlow,2024.2.4,130.23953652978602,2025-03-07 11h39.22.629291 +0700,
2,3,89,word/worden0893.png,99,99,0,x,0.691127699916251,None,0,99,99,99,164.33921320002992,,,,,,,164.33921320002992,164.33921320002992,165.33437340008095,165.33948429999873,165.33948429999873,165.33948429999873,165.33948429999873,166.03542220010422,x,0.691127699916251,None,,,,,,,,PM_en,001,2025-03-07_11h39.11.193,MainFlow,2024.2.4,130.23953652978602,2025-03-07 11h39.22.629291 +0700,
2,2,44,word/worden0442.png,100,100,0,x,0.48433769994881004,None,0,100,100,100,166.04132419999223,,,,,,,166.04132419999223,166.04132419999223,167.03491530008614,167.0402348000789,167.0402348000789,167.0402348000789,167.0402348000789,167.52850300003774,x,0.48433769994881004,None,,,,,,,,PM_en,001,2025-03-07_11h39.11.193,MainFlow,2024.2.4,130.23953652978602,2025-03-07 11h39.22.629291 +0700,
2,1,52,word/worden0521.png,101,101,0,z,0.5882275000913069,None,0,101,101,101,167.53454250004143,,,,,,,167.53454250004143,167.53454250004143,168.5258157000644,168.53117229999043,168.53117229999043,168.53117229999043,168.53117229999043,169.12265110004228,z,0.5882275000913069,None,,,,,,,,PM_en,001,2025-03-07_11h39.11.193,MainFlow,2024.2.4,130.23953652978602,2025-03-07 11h39.22.629291 +0700,
2,1,51,word/worden0511.png,102,102,0,z,0.6251030000858009,None,0,102,102,102,169.12874800001737,,,,,,,169.12874800001737,169.12874800001737,170.12112210004125,170.1267829000717,170.1267829000717,170.1267829000717,170.1267829000717,170.75845050008502,z,0.6251030000858009,None,,,,,,,,PM_en,001,2025-03-07_11h39.11.193,MainFlow,2024.2.4,130.23953652978602,2025-03-07 11h39.22.629291 +0700,
2,3,51,word/worden0513.png,103,103,0,x,0.6568689999403432,None,0,103,103,103,170.76473749999423,,,,,,,170.76473749999423,170.76473749999423,171.75491310004145,171.75959890009835,171.75959890009835,171.75959890009835,171.75959890009835,172.42154370003846,x,0.6568689999403432,None,,,,,,,,PM_en,001,2025-03-07_11h39.11.193,MainFlow,2024.2.4,130.23953652978602,2025-03-07 11h39.22.629291 +0700,
2,2,8,word/worden0082.png,104,104,0,x,0.6582052999874577,None,0,104,104,104,172.42675310000777,,,,,,,172.42675310000777,172.42675310000777,173.41673709999304,173.4211951000616,173.4211951000616,173.4211951000616,173.4211951000616,174.08265080000274,x,0.6582052999874577,None,,,,,,,,PM_en,001,2025-03-07_11h39.11.193,MainFlow,2024.2.4,130.23953652978602,2025-03-07 11h39.22.629291 +0700,
2,2,3,word/worden0032.png,105,105,0,x,0.9090967999072745,None,0,105,105,105,174.08883740007877,,,,,,,174.08883740007877,174.08883740007877,175.0799343000399,175.08470750006381,175.08470750006381,175.08470750006381,175.08470750006381,175.99616780003998,x,0.9090967999072745,None,,,,,,,,PM_en,001,2025-03-07_11h39.11.193,MainFlow,2024.2.4,130.23953652978602,2025-03-07 11h39.22.629291 +0700,
2,3,3,word/worden0033.png,106,106,0,x,0.6631479000207037,None,0,106,106,106,176.00194059999194,,,,,,,176.00194059999194,176.00194059999194,176.99351450009272,176.99837869999465,176.99837869999465,176.99837869999465,176.99837869999465,177.66705380007625,x,0.6631479000207037,None,,,,,,,,PM_en,001,2025-03-07_11h39.11.193,MainFlow,2024.2.4,130.23953652978602,2025-03-07 11h39.22.629291 +0700,
2,3,64,word/worden0643.png,107,107,0,x,0.5046410000650212,None,0,107,107,107,177.67243430006783,,,,,,,177.67243430006783,177.67243430006783,178.66413530008867,178.669807300088,178.669807300088,178.669807300088,178.669807300088,179.17766000004485,x,0.5046410000650212,None,,,,,,,,PM_en,001,2025-03-07_11h39.11.193,MainFlow,2024.2.4,130.23953652978602,2025-03-07 11h39.22.629291 +0700,
2,3,26,word/worden0263.png,108,108,0,x,0.5292279999703169,None,0,108,108,108,179.18377550004516,,,,,,,179.18377550004516,179.18377550004516,180.17593350005336,180.18069160007872,180.18069160007872,180.18069160007872,180.18069160007872,180.71624830004293,x,0.5292279999703169,None,,,,,,,,PM_en,001,2025-03-07_11h39.11.193,MainFlow,2024.2.4,130.23953652978602,2025-03-07 11h39.22.629291 +0700,
2,2,96,word/worden0962.png,109,109,0,x,0.4445001999847591,None,0,109,109,109,180.72231440001633,,,,,,,180.72231440001633,180.72231440001633,181.713916500099,181.7185976000037,181.7185976000037,181.7185976000037,181.7185976000037,182.16442460007966,x,0.4445001999847591,None,,,,,,,,PM_en,001,2025-03-07_11h39.11.193,MainFlow,2024.2.4,130.23953652978602,2025-03-07 11h39.22.629291 +0700,
2,1,22,word/worden0221.png,110,110,0,z,0.4870594000676647,None,0,110,110,110,182.17063330009114,,,,,,,182.17063330009114,182.17063330009114,183.16454800008796,183.16954430006444,183.16954430006444,183.16954430006444,183.16954430006444,183.65800980001222,z,0.4870594000676647,None,,,,,,,,PM_en,001,2025-03-07_11h39.11.193,MainFlow,2024.2.4,130.23953652978602,2025-03-07 11h39.22.629291 +0700,
2,2,22,word/worden0222.png,111,111,0,x,0.42076969996560365,None,0,111,111,111,183.66398710000794,,,,,,,183.66398710000794,183.66398710000794,184.6542640000116,184.65922750008758,184.65922750008758,184.65922750008758,184.65922750008758,185.08486500009894,x,0.42076969996560365,None,,,,,,,,PM_en,001,2025-03-07_11h39.11.193,MainFlow,2024.2.4,130.23953652978602,2025-03-07 11h39.22.629291 +0700,
2,2,26,word/worden0262.png,112,112,0,x,0.4222365999594331,None,0,112,112,112,185.09080630005337,,,,,,,185.09080630005337,185.09080630005337,186.08506160008255,186.09095750004053,186.09095750004053,186.09095750004053,186.09095750004053,186.5156602000352,x,0.4222365999594331,None,,,,,,,,PM_en,001,2025-03-07_11h39.11.193,MainFlow,2024.2.4,130.23953652978602,2025-03-07 11h39.22.629291 +0700,
2,3,48,word/worden0483.png,113,113,0,x,0.5670351000735536,None,0,113,113,113,186.52181540010497,,,,,,,186.52181540010497,186.52181540010497,187.5109916999936,187.51566390006337,187.51566390006337,187.51566390006337,187.51566390006337,188.08680879999883,x,0.5670351000735536,None,,,,,,,,PM_en,001,2025-03-07_11h39.11.193,MainFlow,2024.2.4,130.23953652978602,2025-03-07 11h39.22.629291 +0700,
2,2,87,word/worden0872.png,114,114,0,x,0.45944030000828207,None,0,114,114,114,188.09229060006328,,,,,,,188.09229060006328,188.09229060006328,189.08157000003848,189.0866764000384,189.0866764000384,189.0866764000384,189.0866764000384,189.55322450003587,x,0.45944030000828207,None,,,,,,,,PM_en,001,2025-03-07_11h39.11.193,MainFlow,2024.2.4,130.23953652978602,2025-03-07 11h39.22.629291 +0700,
2,1,10,word/worden0101.png,115,115,0,z,0.5509655000641942,None,0,115,115,115,189.55973179999273,,,,,,,189.55973179999273,189.55973179999273,190.5490861000726,190.5535869000014,190.5535869000014,190.5535869000014,190.5535869000014,191.110862200032,z,0.5509655000641942,None,,,,,,,,PM_en,001,2025-03-07_11h39.11.193,MainFlow,2024.2.4,130.23953652978602,2025-03-07 11h39.22.629291 +0700,
2,3,8,word/worden0083.png,116,116,0,x,0.4870039999950677,None,0,116,116,116,191.11683569999877,,,,,,,191.11683569999877,191.11683569999877,192.10779140004888,192.11258100008126,192.11258100008126,192.11258100008126,192.11258100008126,192.6004368000431,x,0.4870039999950677,None,,,,,,,,PM_en,001,2025-03-07_11h39.11.193,MainFlow,2024.2.4,130.23953652978602,2025-03-07 11h39.22.629291 +0700,
2,3,94,word/worden0943.png,117,117,0,x,0.6592738999752328,None,0,117,117,117,192.60652400006074,,,,,,,192.60652400006074,192.60652400006074,193.59846050001215,193.60327670001425,193.60327670001425,193.60327670001425,193.60327670001425,194.26435610000044,x,0.6592738999752328,None,,,,,,,,PM_en,001,2025-03-07_11h39.11.193,MainFlow,2024.2.4,130.23953652978602,2025-03-07 11h39.22.629291 +0700,
2,2,11,word/worden0112.png,118,118,0,x,0.5292854000581428,None,0,118,118,118,194.27039650001097,,,,,,,194.27039650001097,194.27039650001097,195.2621700000018,195.2671176000731,195.2671176000731,195.2671176000731,195.2671176000731,195.80293550004717,x,0.5292854000581428,None,,,,,,,,PM_en,001,2025-03-07_11h39.11.193,MainFlow,2024.2.4,130.23953652978602,2025-03-07 11h39.22.629291 +0700,
2,3,24,word/worden0243.png,119,119,0,x,0.5986426000017673,None,0,119,119,119,195.80886340001598,,,,,,,195.80886340001598,195.80886340001598,196.80072370008565,196.80567400006112,196.80567400006112,196.80567400006112,196.80567400006112,197.41126300010365,x,0.5986426000017673,None,,,,,,,,PM_en,001,2025-03-07_11h39.11.193,MainFlow,2024.2.4,130.23953652978602,2025-03-07 11h39.22.629291 +0700,
,,,,,,,,,,,,,,,,,,,,,,,,,,,,,,,,197.41137920005713,197.4168068000581,197.4168068000581,201.37640370009467,space,3.953879600041546,None,PM_en,001,2025-03-07_11h39.11.193,MainFlow,2024.2.4,130.23953652978602,2025-03-07 11h39.22.629291 +0700,
