lang,stimuli,imageid,worddir,thisN,thisTrialN,thisRepN,key_resp.keys,key_resp.rt,key_resp.duration,trials.thisRepN,trials.thisTrialN,trials.thisN,trials.thisIndex,thisRow.t,notes,tutorial.started,tutorial.stopped,key_instruct.keys,key_instruct.rt,key_instruct.duration,instructblank.started,cross1.started,letterselect.started,imageword.started,text_2.started,cross2.started,key_resp.started,letterselect.stopped,trials.key_resp.keys,trials.key_resp.rt,trials.key_resp.duration,ending.started,text_3.started,ending_key.started,ending.stopped,ending_key.keys,ending_key.rt,ending_key.duration,participant,session,date,expName,psychopyVersion,frameRate,expStart,
,,,,,,,,,,,,,,,,0.003626100020483136,10.269243000075221,space,10.226717200013809,None,,,,,,,,,,,,,,,,,,,PM_th,001,2025-03-07_11h34.01.854,MainFlow,2024.2.4,130.07757819205995,2025-03-07 11h34.31.624394 +0700,
1,3,89,word/wordth0893.png,0,0,0,x,0.9064141000853851,None,0,0,0,0,10.301484400057234,,,,,,,10.301484400057234,10.301484400057234,11.274137899978086,11.280633800080977,11.280633800080977,11.280633800080977,11.280633800080977,12.192076400038786,x,0.9064141000853851,None,,,,,,,,PM_th,001,2025-03-07_11h34.01.854,MainFlow,2024.2.4,130.07757819205995,2025-03-07 11h34.31.624394 +0700,
1,3,28,word/wordth0283.png,1,1,0,x,0.630556600051932,None,0,1,1,1,12.198061999981292,,,,,,,12.198061999981292,12.198061999981292,13.190323700080626,13.195278799976222,13.195278799976222,13.195278799976222,13.195278799976222,13.8278655000031,x,0.630556600051932,None,,,,,,,,PM_th,001,2025-03-07_11h34.01.854,MainFlow,2024.2.4,130.07757819205995,2025-03-07 11h34.31.624394 +0700,
1,2,87,word/wordth0872.png,2,2,0,x,1.129356599994935,None,0,2,2,2,13.833605500054546,,,,,,,13.833605500054546,13.833605500054546,14.82492749998346,14.829838700010441,14.829838700010441,14.829838700010441,14.829838700010441,15.963190100039355,x,1.129356599994935,None,,,,,,,,PM_th,001,2025-03-07_11h34.01.854,MainFlow,2024.2.4,130.07757819205995,2025-03-07 11h34.31.624394 +0700,
1,2,68,word/wordth0682.png,3,3,0,x,0.8322612000629306,None,0,3,3,3,15.96946170006413,,,,,,,15.96946170006413,15.96946170006413,16.960561500047334,16.965150500065647,16.965150500065647,16.965150500065647,16.965150500065647,17.79963929997757,x,0.8322612000629306,None,,,,,,,,PM_th,001,2025-03-07_11h34.01.854,MainFlow,2024.2.4,130.07757819205995,2025-03-07 11h34.31.624394 +0700,
1,2,11,word/wordth0112.png,4,4,0,x,0.4883412999333814,None,0,4,4,4,17.805914200027473,,,,,,,17.805914200027473,17.805914200027473,18.797778000007384,18.802769600064494,18.802769600064494,18.802769600064494,18.802769600064494,19.297285599983297,x,0.4883412999333814,None,,,,,,,,PM_th,001,2025-03-07_11h34.01.854,MainFlow,2024.2.4,130.07757819205995,2025-03-07 11h34.31.624394 +0700,
1,3,11,word/wordth0113.png,5,5,0,x,0.8695793999359012,None,0,5,5,5,19.30334490002133,,,,,,,19.30334490002133,19.30334490002133,20.29454600007739,20.29946170002222,20.29946170002222,20.29946170002222,20.29946170002222,21.17605160002131,x,0.8695793999359012,None,,,,,,,,PM_th,001,2025-03-07_11h34.01.854,MainFlow,2024.2.4,130.07757819205995,2025-03-07 11h34.31.624394 +0700,
1,2,71,word/wordth0712.png,6,6,0,x,0.8266633999301121,None,0,6,6,6,21.182297700084746,,,,,,,21.182297700084746,21.182297700084746,22.174958600080572,22.180253400001675,22.180253400001675,22.180253400001675,22.180253400001675,23.013522000052035,x,0.8266633999301121,None,,,,,,,,PM_th,001,2025-03-07_11h34.01.854,MainFlow,2024.2.4,130.07757819205995,2025-03-07 11h34.31.624394 +0700,
1,3,44,word/wordth0443.png,7,7,0,x,1.340256299939938,None,0,7,7,7,23.019604000030085,,,,,,,23.019604000030085,23.019604000030085,24.011192800011486,24.015788900083862,24.015788900083862,24.015788900083862,24.015788900083862,25.357551700086333,x,1.340256299939938,None,,,,,,,,PM_th,001,2025-03-07_11h34.01.854,MainFlow,2024.2.4,130.07757819205995,2025-03-07 11h34.31.624394 +0700,
1,2,82,word/wordth0822.png,8,8,0,x,0.782527600065805,None,0,8,8,8,25.363986400072463,,,,,,,25.363986400072463,25.363986400072463,26.355213599978015,26.360271400073543,26.360271400073543,26.360271400073543,26.360271400073543,27.146509399986826,x,0.782527600065805,None,,,,,,,,PM_th,001,2025-03-07_11h34.01.854,MainFlow,2024.2.4,130.07757819205995,2025-03-07 11h34.31.624394 +0700,
1,2,28,word/wordth0282.png,9,9,0,x,0.9260418999474496,None,0,9,9,9,27.152512300061062,,,,,,,27.152512300061062,27.152512300061062,28.145057099987753,28.149880100041628,28.149880100041628,28.149880100041628,28.149880100041628,29.081147900084034,x,0.9260418999474496,None,,,,,,,,PM_th,001,2025-03-07_11h34.01.854,MainFlow,2024.2.4,130.07757819205995,2025-03-07 11h34.31.624394 +0700,
1,1,23,word/wordth0231.png,10,10,0,z,0.8055257999803871,None,0,10,10,10,29.086644200026058,,,,,,,29.086644200026058,29.086644200026058,30.08228319999762,30.089479900081642,30.089479900081642,30.089479900081642,30.089479900081642,30.901846199994907,z,0.8055257999803871,None,,,,,,,,PM_th,001,2025-03-07_11h34.01.854,MainFlow,2024.2.4,130.07757819205995,2025-03-07 11h34.31.624394 +0700,
1,2,63,word/wordth0632.png,11,11,0,x,1.33852760004811,None,0,11,11,11,30.907968800049275,,,,,,,30.907968800049275,30.907968800049275,31.898675000062212,31.903583600069396,31.903583600069396,31.903583600069396,31.903583600069396,33.2452190000331,x,1.33852760004811,None,,,,,,,,PM_th,001,2025-03-07_11h34.01.854,MainFlow,2024.2.4,130.07757819205995,2025-03-07 11h34.31.624394 +0700,
1,3,71,word/wordth0713.png,12,12,0,x,0.6520237999502569,None,0,12,12,12,33.25144410005305,,,,,,,33.25144410005305,33.25144410005305,34.24377930001356,34.24900150008034,34.24900150008034,34.24900150008034,34.24900150008034,34.90230010007508,x,0.6520237999502569,None,,,,,,,,PM_th,001,2025-03-07_11h34.01.854,MainFlow,2024.2.4,130.07757819205995,2025-03-07 11h34.31.624394 +0700,
1,1,1,word/wordth0011.png,13,13,0,z,0.6482835999922827,None,0,13,13,13,34.90833320003003,,,,,,,34.90833320003003,34.90833320003003,35.90075030003209,35.90605810005218,35.90605810005218,35.90605810005218,35.90605810005218,36.55867689999286,z,0.6482835999922827,None,,,,,,,,PM_th,001,2025-03-07_11h34.01.854,MainFlow,2024.2.4,130.07757819205995,2025-03-07 11h34.31.624394 +0700,
1,3,41,word/wordth0413.png,14,14,0,x,0.5654393999138847,None,0,14,14,14,36.56489230005536,,,,,,,36.56489230005536,36.56489230005536,37.55694330006372,37.56235190003645,37.56235190003645,37.56235190003645,37.56235190003645,38.13258320000023,x,0.5654393999138847,None,,,,,,,,PM_th,001,2025-03-07_11h34.01.854,MainFlow,2024.2.4,130.07757819205995,2025-03-07 11h34.31.624394 +0700,
1,2,64,word/wordth0642.png,15,15,0,x,0.4774254000512883,None,0,15,15,15,38.13861130003352,,,,,,,38.13861130003352,38.13861130003352,39.132493200013414,39.1385019000154,39.1385019000154,39.1385019000154,39.1385019000154,39.61858990008477,x,0.4774254000512883,None,,,,,,,,PM_th,001,2025-03-07_11h34.01.854,MainFlow,2024.2.4,130.07757819205995,2025-03-07 11h34.31.624394 +0700,
1,3,6,word/wordth0063.png,16,16,0,x,0.528009400004521,None,0,16,16,16,39.624707099981606,,,,,,,39.624707099981606,39.624707099981606,40.61572480003815,40.621684700017795,40.621684700017795,40.621684700017795,40.621684700017795,41.15081050002482,x,0.528009400004521,None,,,,,,,,PM_th,001,2025-03-07_11h34.01.854,MainFlow,2024.2.4,130.07757819205995,2025-03-07 11h34.31.624394 +0700,
1,2,31,word/wordth0312.png,17,17,0,x,0.5038567999145016,None,0,17,17,17,41.15637910005171,,,,,,,41.15637910005171,41.15637910005171,42.148949500056915,42.15407779999077,42.15407779999077,42.15407779999077,42.15407779999077,42.66126600001007,x,0.5038567999145016,None,,,,,,,,PM_th,001,2025-03-07_11h34.01.854,MainFlow,2024.2.4,130.07757819205995,2025-03-07 11h34.31.624394 +0700,
1,1,46,word/wordth0461.png,18,18,0,z,0.5508179999887943,None,0,18,18,18,42.66720530006569,,,,,,,42.66720530006569,42.66720530006569,43.66033540002536,43.66541730007157,43.66541730007157,43.66541730007157,43.66541730007157,44.22120630007703,z,0.5508179999887943,None,,,,,,,,PM_th,001,2025-03-07_11h34.01.854,MainFlow,2024.2.4,130.07757819205995,2025-03-07 11h34.31.624394 +0700,
1,3,51,word/wordth0513.png,19,19,0,x,0.5523687000386417,None,0,19,19,19,44.226784600061364,,,,,,,44.226784600061364,44.226784600061364,45.22202670003753,45.22782410006039,45.22782410006039,45.22782410006039,45.22782410006039,45.785089100012556,x,0.5523687000386417,None,,,,,,,,PM_th,001,2025-03-07_11h34.01.854,MainFlow,2024.2.4,130.07757819205995,2025-03-07 11h34.31.624394 +0700,
1,2,26,word/wordth0262.png,20,20,0,x,0.5392045000335202,None,0,20,20,20,45.790329799987376,,,,,,,45.790329799987376,45.790329799987376,46.780902500031516,46.78537270007655,46.78537270007655,46.78537270007655,46.78537270007655,47.328871199977584,x,0.5392045000335202,None,,,,,,,,PM_th,001,2025-03-07_11h34.01.854,MainFlow,2024.2.4,130.07757819205995,2025-03-07 11h34.31.624394 +0700,
1,2,96,word/wordth0962.png,21,21,0,x,0.4789088999386877,None,0,21,21,21,47.33438260003459,,,,,,,47.33438260003459,47.33438260003459,48.32352670002729,48.32819350005593,48.32819350005593,48.32819350005593,48.32819350005593,48.809134699986316,x,0.4789088999386877,None,,,,,,,,PM_th,001,2025-03-07_11h34.01.854,MainFlow,2024.2.4,130.07757819205995,2025-03-07 11h34.31.624394 +0700,
1,1,31,word/wordth0311.png,22,22,0,z,0.5307693999493495,None,0,22,22,22,48.81506689998787,,,,,,,48.81506689998787,48.81506689998787,49.805856300052255,49.811014499980956,49.811014499980956,49.811014499980956,49.811014499980956,50.34735250007361,z,0.5307693999493495,None,,,,,,,,PM_th,001,2025-03-07_11h34.01.854,MainFlow,2024.2.4,130.07757819205995,2025-03-07 11h34.31.624394 +0700,
1,2,94,word/wordth0942.png,23,23,0,x,0.47854799998458475,None,0,23,23,23,50.353261000011116,,,,,,,50.353261000011116,50.353261000011116,51.34611300006509,51.351047300035134,51.351047300035134,51.351047300035134,51.351047300035134,51.83087110007182,x,0.47854799998458475,None,,,,,,,,PM_th,001,2025-03-07_11h34.01.854,MainFlow,2024.2.4,130.07757819205995,2025-03-07 11h34.31.624394 +0700,
1,3,48,word/wordth0483.png,24,24,0,x,0.5293656999710947,None,0,24,24,24,51.836786100058816,,,,,,,51.836786100058816,51.836786100058816,52.82970030000433,52.83495400007814,52.83495400007814,52.83495400007814,52.83495400007814,53.36938679998275,x,0.5293656999710947,None,,,,,,,,PM_th,001,2025-03-07_11h34.01.854,MainFlow,2024.2.4,130.07757819205995,2025-03-07 11h34.31.624394 +0700,
1,3,24,word/wordth0243.png,25,25,0,x,0.5293836999917403,None,0,25,25,25,53.375075399992056,,,,,,,53.375075399992056,53.375075399992056,54.366979800048284,54.37203790002968,54.37203790002968,54.37203790002968,54.37203790002968,54.90796520002186,x,0.5293836999917403,None,,,,,,,,PM_th,001,2025-03-07_11h34.01.854,MainFlow,2024.2.4,130.07757819205995,2025-03-07 11h34.31.624394 +0700,
1,1,87,word/wordth0871.png,26,26,0,z,0.52930940000806,None,0,26,26,26,54.91407399997115,,,,,,,54.91407399997115,54.91407399997115,55.90521620004438,55.910922100069,55.910922100069,55.910922100069,55.910922100069,56.44678790005855,z,0.52930940000806,None,,,,,,,,PM_th,001,2025-03-07_11h34.01.854,MainFlow,2024.2.4,130.07757819205995,2025-03-07 11h34.31.624394 +0700,
1,2,51,word/wordth0512.png,27,27,0,x,0.5155522000277415,None,0,27,27,27,56.452792900032364,,,,,,,56.452792900032364,56.452792900032364,57.4427519000601,57.44759660004638,57.44759660004638,57.44759660004638,57.44759660004638,57.97016450006049,x,0.5155522000277415,None,,,,,,,,PM_th,001,2025-03-07_11h34.01.854,MainFlow,2024.2.4,130.07757819205995,2025-03-07 11h34.31.624394 +0700,
1,3,27,word/wordth0273.png,28,28,0,x,0.6534531000070274,None,0,28,28,28,57.97599030006677,,,,,,,57.97599030006677,57.97599030006677,58.968218700028956,58.97348669997882,58.97348669997882,58.97348669997882,58.97348669997882,59.63375580008142,x,0.6534531000070274,None,,,,,,,,PM_th,001,2025-03-07_11h34.01.854,MainFlow,2024.2.4,130.07757819205995,2025-03-07 11h34.31.624394 +0700,
1,2,22,word/wordth0222.png,29,29,0,x,0.547378099989146,None,0,29,29,29,59.639832700020634,,,,,,,59.639832700020634,59.639832700020634,60.628287700004876,60.632777900085784,60.632777900085784,60.632777900085784,60.632777900085784,61.18293430004269,x,0.547378099989146,None,,,,,,,,PM_th,001,2025-03-07_11h34.01.854,MainFlow,2024.2.4,130.07757819205995,2025-03-07 11h34.31.624394 +0700,
1,3,23,word/wordth0233.png,30,30,0,x,1.8068227000767365,None,0,30,30,30,61.18881479999982,,,,,,,61.18881479999982,61.18881479999982,62.18067580007482,62.18601140007377,62.18601140007377,62.18601140007377,62.18601140007377,63.9994435000699,x,1.8068227000767365,None,,,,,,,,PM_th,001,2025-03-07_11h34.01.854,MainFlow,2024.2.4,130.07757819205995,2025-03-07 11h34.31.624394 +0700,
1,1,48,word/wordth0481.png,31,31,0,z,0.8455570000223815,None,0,31,31,31,64.00540590006858,,,,,,,64.00540590006858,64.00540590006858,64.99511770007666,64.99997910007369,64.99997910007369,64.99997910007369,64.99997910007369,65.84878860006575,z,0.8455570000223815,None,,,,,,,,PM_th,001,2025-03-07_11h34.01.854,MainFlow,2024.2.4,130.07757819205995,2025-03-07 11h34.31.624394 +0700,
1,2,10,word/wordth0102.png,32,32,0,x,1.8438562999945134,None,0,32,32,32,65.85486580000725,,,,,,,65.85486580000725,65.85486580000725,66.84436770004686,66.84919630002696,66.84919630002696,66.84919630002696,66.84919630002696,68.69807160005439,x,1.8438562999945134,None,,,,,,,,PM_th,001,2025-03-07_11h34.01.854,MainFlow,2024.2.4,130.07757819205995,2025-03-07 11h34.31.624394 +0700,
1,3,64,word/wordth0643.png,33,33,0,x,0.5406304999487475,None,0,33,33,33,68.70416910003405,,,,,,,68.70416910003405,68.70416910003405,69.69684250000864,69.70193650003057,69.70193650003057,69.70193650003057,69.70193650003057,70.24421989999246,x,0.5406304999487475,None,,,,,,,,PM_th,001,2025-03-07_11h34.01.854,MainFlow,2024.2.4,130.07757819205995,2025-03-07 11h34.31.624394 +0700,
1,3,22,word/wordth0223.png,34,34,0,x,0.5120988000417128,None,0,34,34,34,70.24994890007656,,,,,,,70.24994890007656,70.24994890007656,71.24378760007676,71.24886140006129,71.24886140006129,71.24886140006129,71.24886140006129,71.76486480003223,x,0.5120988000417128,None,,,,,,,,PM_th,001,2025-03-07_11h34.01.854,MainFlow,2024.2.4,130.07757819205995,2025-03-07 11h34.31.624394 +0700,
1,1,42,word/wordth0421.png,35,35,0,z,0.9660513000562787,None,0,35,35,35,71.77102500002366,,,,,,,71.77102500002366,71.77102500002366,72.76321120001376,72.76807860005647,72.76807860005647,72.76807860005647,72.76807860005647,73.74100969999563,z,0.9660513000562787,None,,,,,,,,PM_th,001,2025-03-07_11h34.01.854,MainFlow,2024.2.4,130.07757819205995,2025-03-07 11h34.31.624394 +0700,
1,2,1,word/wordth0012.png,36,36,0,x,0.8711492998991162,None,0,36,36,36,73.74697019997984,,,,,,,73.74697019997984,73.74697019997984,74.73597879998852,74.74081880005542,74.74081880005542,74.74081880005542,74.74081880005542,75.61731820006389,x,0.8711492998991162,None,,,,,,,,PM_th,001,2025-03-07_11h34.01.854,MainFlow,2024.2.4,130.07757819205995,2025-03-07 11h34.31.624394 +0700,
1,1,82,word/wordth0821.png,37,37,0,z,0.7115439000772312,None,0,37,37,37,75.62374409998301,,,,,,,75.62374409998301,75.62374409998301,76.61476440005936,76.62004690000322,76.62004690000322,76.62004690000322,76.62004690000322,77.33701919997111,z,0.7115439000772312,None,,,,,,,,PM_th,001,2025-03-07_11h34.01.854,MainFlow,2024.2.4,130.07757819205995,2025-03-07 11h34.31.624394 +0700,
1,2,3,word/wordth0032.png,38,38,0,x,0.5888867999892682,None,0,38,38,38,77.34271110000554,,,,,,,77.34271110000554,77.34271110000554,78.33602719998453,78.34094660007395,78.34094660007395,78.34094660007395,78.34094660007395,78.93135279999115,x,0.5888867999892682,None,,,,,,,,PM_th,001,2025-03-07_11h34.01.854,MainFlow,2024.2.4,130.07757819205995,2025-03-07 11h34.31.624394 +0700,
1,1,68,word/wordth0681.png,39,39,0,z,0.5402349000796676,None,0,39,39,39,78.93703350005671,,,,,,,78.93703350005671,78.93703350005671,79.93161830003373,79.93760240008123,79.93760240008123,79.93760240008123,79.93760240008123,80.48004270007368,z,0.5402349000796676,None,,,,,,,,PM_th,001,2025-03-07_11h34.01.854,MainFlow,2024.2.4,130.07757819205995,2025-03-07 11h34.31.624394 +0700,
1,1,66,word/wordth0661.png,40,40,0,z,0.5684582000831142,None,0,40,40,40,80.48609670007136,,,,,,,80.48609670007136,80.48609670007136,81.47887970006559,81.48396290000528,81.48396290000528,81.48396290000528,81.48396290000528,82.05362800008152,z,0.5684582000831142,None,,,,,,,,PM_th,001,2025-03-07_11h34.01.854,MainFlow,2024.2.4,130.07757819205995,2025-03-07 11h34.31.624394 +0700,
1,2,42,word/wordth0422.png,41,41,0,x,0.5388909000903368,None,0,41,41,41,82.05968579999171,,,,,,,82.05968579999171,82.05968579999171,83.05225289997179,83.05696419999003,83.05696419999003,83.05696419999003,83.05696419999003,83.59933880006429,x,0.5388909000903368,None,,,,,,,,PM_th,001,2025-03-07_11h34.01.854,MainFlow,2024.2.4,130.07757819205995,2025-03-07 11h34.31.624394 +0700,
1,3,93,word/wordth0933.png,42,42,0,x,0.580641100066714,None,0,42,42,42,83.60563650005497,,,,,,,83.60563650005497,83.60563650005497,84.59759510005824,84.60231960006058,84.60231960006058,84.60231960006058,84.60231960006058,85.18656429997645,x,0.580641100066714,None,,,,,,,,PM_th,001,2025-03-07_11h34.01.854,MainFlow,2024.2.4,130.07757819205995,2025-03-07 11h34.31.624394 +0700,
1,1,71,word/wordth0711.png,43,43,0,z,0.5765850999159738,None,0,43,43,43,85.1926396000199,,,,,,,85.1926396000199,85.1926396000199,86.18555960000958,86.1908768999856,86.1908768999856,86.1908768999856,86.1908768999856,86.7739133000141,z,0.5765850999159738,None,,,,,,,,PM_th,001,2025-03-07_11h34.01.854,MainFlow,2024.2.4,130.07757819205995,2025-03-07 11h34.31.624394 +0700,
1,1,64,word/wordth0641.png,44,44,0,x,0.568618799909018,None,0,44,44,44,86.77967349998653,,,,,,,86.77967349998653,86.77967349998653,87.77305169997271,87.77809090004303,87.77809090004303,87.77809090004303,87.77809090004303,88.34762880008202,x,0.568618799909018,None,,,,,,,,PM_th,001,2025-03-07_11h34.01.854,MainFlow,2024.2.4,130.07757819205995,2025-03-07 11h34.31.624394 +0700,
1,1,88,word/wordth0881.png,45,45,0,z,0.6304292998975143,None,0,45,45,45,88.35295049997512,,,,,,,88.35295049997512,88.35295049997512,89.34417569998186,89.34893790003844,89.34893790003844,89.34893790003844,89.34893790003844,89.98270060005598,z,0.6304292998975143,None,,,,,,,,PM_th,001,2025-03-07_11h34.01.854,MainFlow,2024.2.4,130.07757819205995,2025-03-07 11h34.31.624394 +0700,
1,3,87,word/wordth0873.png,46,46,0,x,0.6984835000475869,None,0,46,46,46,89.98861090000719,,,,,,,89.98861090000719,89.98861090000719,90.97941010002978,90.98405389999971,90.98405389999971,90.98405389999971,90.98405389999971,91.68686400004663,x,0.6984835000475869,None,,,,,,,,PM_th,001,2025-03-07_11h34.01.854,MainFlow,2024.2.4,130.07757819205995,2025-03-07 11h34.31.624394 +0700,
1,3,3,word/wordth0033.png,47,47,0,x,1.348728199955076,None,0,47,47,47,91.69331400003284,,,,,,,91.69331400003284,91.69331400003284,92.68260370008647,92.6872568000108,92.6872568000108,92.6872568000108,92.6872568000108,94.04296450002585,x,1.348728199955076,None,,,,,,,,PM_th,001,2025-03-07_11h34.01.854,MainFlow,2024.2.4,130.07757819205995,2025-03-07 11h34.31.624394 +0700,
1,2,95,word/wordth0952.png,48,48,0,x,0.6956404000520706,None,0,48,48,48,94.04889109998476,,,,,,,94.04889109998476,94.04889109998476,95.03872379998211,95.04408200003672,95.04408200003672,95.04408200003672,95.04408200003672,95.7467388000805,x,0.6956404000520706,None,,,,,,,,PM_th,001,2025-03-07_11h34.01.854,MainFlow,2024.2.4,130.07757819205995,2025-03-07 11h34.31.624394 +0700,
1,1,11,word/wordth0111.png,49,49,0,z,0.5919881999725476,None,0,49,49,49,95.75294719997328,,,,,,,95.75294719997328,95.75294719997328,96.7423848999897,96.74693200003821,96.74693200003821,96.74693200003821,96.74693200003821,97.34585340006743,z,0.5919881999725476,None,,,,,,,,PM_th,001,2025-03-07_11h34.01.854,MainFlow,2024.2.4,130.07757819205995,2025-03-07 11h34.31.624394 +0700,
1,1,10,word/wordth0101.png,50,50,0,z,0.49186009995173663,None,0,50,50,50,97.35197800002061,,,,,,,97.35197800002061,97.35197800002061,98.34159030008595,98.34612480003852,98.34612480003852,98.34612480003852,98.34612480003852,98.84093050006777,z,0.49186009995173663,None,,,,,,,,PM_th,001,2025-03-07_11h34.01.854,MainFlow,2024.2.4,130.07757819205995,2025-03-07 11h34.31.624394 +0700,
1,1,44,word/wordth0441.png,51,51,0,z,0.5016639999812469,None,0,51,51,51,98.84700369997881,,,,,,,98.84700369997881,98.84700369997881,99.83810330007691,99.84297630004585,99.84297630004585,99.84297630004585,99.84297630004585,100.35156840004493,z,0.5016639999812469,None,,,,,,,,PM_th,001,2025-03-07_11h34.01.854,MainFlow,2024.2.4,130.07757819205995,2025-03-07 11h34.31.624394 +0700,
1,1,96,word/wordth0961.png,52,52,0,z,0.8054202999919653,None,0,52,52,52,100.35765420005191,,,,,,,100.35765420005191,100.35765420005191,101.3479437000351,101.35274500004016,101.35274500004016,101.35274500004016,101.35274500004016,102.16008539998438,z,0.8054202999919653,None,,,,,,,,PM_th,001,2025-03-07_11h34.01.854,MainFlow,2024.2.4,130.07757819205995,2025-03-07 11h34.31.624394 +0700,
1,2,27,word/wordth0272.png,53,53,0,x,0.8367437000852078,None,0,53,53,53,102.1660979000153,,,,,,,102.1660979000153,102.1660979000153,103.1554451000411,103.16058560006786,103.16058560006786,103.16058560006786,103.16058560006786,104.0027433000505,x,0.8367437000852078,None,,,,,,,,PM_th,001,2025-03-07_11h34.01.854,MainFlow,2024.2.4,130.07757819205995,2025-03-07 11h34.31.624394 +0700,
1,1,63,word/wordth0631.png,54,54,0,z,0.6200183000182733,None,0,54,54,54,104.00888269999996,,,,,,,104.00888269999996,104.00888269999996,104.99919440003578,105.00461469998118,105.00461469998118,105.00461469998118,105.00461469998118,105.63089360005688,z,0.6200183000182733,None,,,,,,,,PM_th,001,2025-03-07_11h34.01.854,MainFlow,2024.2.4,130.07757819205995,2025-03-07 11h34.31.624394 +0700,
1,3,66,word/wordth0663.png,55,55,0,x,0.8019828000105917,None,0,55,55,55,105.63717320002615,,,,,,,105.63717320002615,105.63717320002615,106.6272930999985,106.63204370008316,106.63204370008316,106.63204370008316,106.63204370008316,107.43921340000816,x,0.8019828000105917,None,,,,,,,,PM_th,001,2025-03-07_11h34.01.854,MainFlow,2024.2.4,130.07757819205995,2025-03-07 11h34.31.624394 +0700,
1,3,88,word/wordth0883.png,56,56,0,x,0.655669100000523,None,0,56,56,56,107.44530040002428,,,,,,,107.44530040002428,107.44530040002428,108.43706590007059,108.4420435000211,108.4420435000211,108.4420435000211,108.4420435000211,109.10283610003535,x,0.655669100000523,None,,,,,,,,PM_th,001,2025-03-07_11h34.01.854,MainFlow,2024.2.4,130.07757819205995,2025-03-07 11h34.31.624394 +0700,
1,3,96,word/wordth0963.png,57,57,0,x,0.5905984999844804,None,0,57,57,57,109.10925229999702,,,,,,,109.10925229999702,109.10925229999702,110.10016730008647,110.10531090002041,110.10531090002041,110.10531090002041,110.10531090002041,110.69741560006514,x,0.5905984999844804,None,,,,,,,,PM_th,001,2025-03-07_11h34.01.854,MainFlow,2024.2.4,130.07757819205995,2025-03-07 11h34.31.624394 +0700,
1,2,52,word/wordth0522.png,58,58,0,x,0.8410069999517873,None,0,58,58,58,110.70334480004385,,,,,,,110.70334480004385,110.70334480004385,111.69316150003579,111.69804530008696,111.69804530008696,111.69804530008696,111.69804530008696,112.54050540004391,x,0.8410069999517873,None,,,,,,,,PM_th,001,2025-03-07_11h34.01.854,MainFlow,2024.2.4,130.07757819205995,2025-03-07 11h34.31.624394 +0700,
1,3,50,word/wordth0503.png,59,59,0,x,0.6071967999450862,None,0,59,59,59,112.5456370000029,,,,,,,112.5456370000029,112.5456370000029,113.53539249999449,113.54017000005115,113.54017000005115,113.54017000005115,113.54017000005115,114.1528568000067,x,0.6071967999450862,None,,,,,,,,PM_th,001,2025-03-07_11h34.01.854,MainFlow,2024.2.4,130.07757819205995,2025-03-07 11h34.31.624394 +0700,
1,3,61,word/wordth0613.png,60,60,0,x,0.7013963999925181,None,0,60,60,60,114.15894270001445,,,,,,,114.15894270001445,114.15894270001445,115.14937960007228,115.15418349998072,115.15418349998072,115.15418349998072,115.15418349998072,115.85738010006025,x,0.7013963999925181,None,,,,,,,,PM_th,001,2025-03-07_11h34.01.854,MainFlow,2024.2.4,130.07757819205995,2025-03-07 11h34.31.624394 +0700,
1,2,46,word/wordth0462.png,61,61,0,x,0.6230207000626251,None,0,61,61,61,115.86344550002832,,,,,,,115.86344550002832,115.86344550002832,116.85622740001418,116.86167790007312,116.86167790007312,116.86167790007312,116.86167790007312,117.4892851000186,x,0.6230207000626251,None,,,,,,,,PM_th,001,2025-03-07_11h34.01.854,MainFlow,2024.2.4,130.07757819205995,2025-03-07 11h34.31.624394 +0700,
1,1,61,word/wordth0611.png,62,62,0,z,0.5417044999776408,None,0,62,62,62,117.49488360004034,,,,,,,117.49488360004034,117.49488360004034,118.48667240003124,118.49187460006215,118.49187460006215,118.49187460006215,118.49187460006215,119.03505880001467,z,0.5417044999776408,None,,,,,,,,PM_th,001,2025-03-07_11h34.01.854,MainFlow,2024.2.4,130.07757819205995,2025-03-07 11h34.31.624394 +0700,
1,1,24,word/wordth0241.png,63,63,0,z,0.5731018000515178,None,0,63,63,63,119.0404252000153,,,,,,,119.0404252000153,119.0404252000153,120.03313660004642,120.0384492999874,120.0384492999874,120.0384492999874,120.0384492999874,120.61530599999242,z,0.5731018000515178,None,,,,,,,,PM_th,001,2025-03-07_11h34.01.854,MainFlow,2024.2.4,130.07757819205995,2025-03-07 11h34.31.624394 +0700,
1,2,89,word/wordth0892.png,64,64,0,x,0.587120300042443,None,0,64,64,64,120.62076030008029,,,,,,,120.62076030008029,120.62076030008029,121.61267509998288,121.61777370003983,121.61777370003983,121.61777370003983,121.61777370003983,122.20930480002426,x,0.587120300042443,None,,,,,,,,PM_th,001,2025-03-07_11h34.01.854,MainFlow,2024.2.4,130.07757819205995,2025-03-07 11h34.31.624394 +0700,
1,1,30,word/wordth0301.png,65,65,0,z,0.49737720005214214,None,0,65,65,65,122.21540550002828,,,,,,,122.21540550002828,122.21540550002828,123.2068729000166,123.21210310002789,123.21210310002789,123.21210310002789,123.21210310002789,123.71329940005671,z,0.49737720005214214,None,,,,,,,,PM_th,001,2025-03-07_11h34.01.854,MainFlow,2024.2.4,130.07757819205995,2025-03-07 11h34.31.624394 +0700,
1,1,93,word/wordth0931.png,66,66,0,z,0.5297716000350192,None,0,66,66,66,123.71938190003857,,,,,,,123.71938190003857,123.71938190003857,124.70876890001819,124.71387229999527,124.71387229999527,124.71387229999527,124.71387229999527,125.25025230005849,z,0.5297716000350192,None,,,,,,,,PM_th,001,2025-03-07_11h34.01.854,MainFlow,2024.2.4,130.07757819205995,2025-03-07 11h34.31.624394 +0700,
1,1,50,word/wordth0501.png,67,67,0,z,0.5154972999589518,None,0,67,67,67,125.25624840008095,,,,,,,125.25624840008095,125.25624840008095,126.2508758000331,126.25633640005253,126.25633640005253,126.25633640005253,126.25633640005253,126.77869080007076,z,0.5154972999589518,None,,,,,,,,PM_th,001,2025-03-07_11h34.01.854,MainFlow,2024.2.4,130.07757819205995,2025-03-07 11h34.31.624394 +0700,
1,3,82,word/wordth0823.png,68,68,0,x,0.8358664999250323,None,0,68,68,68,126.78442669997457,,,,,,,126.78442669997457,126.78442669997457,127.777878300054,127.78331129997969,127.78331129997969,127.78331129997969,127.78331129997969,128.62591679999605,x,0.8358664999250323,None,,,,,,,,PM_th,001,2025-03-07_11h34.01.854,MainFlow,2024.2.4,130.07757819205995,2025-03-07 11h34.31.624394 +0700,
1,1,27,word/wordth0271.png,69,69,0,z,0.5746781999478117,None,0,69,69,69,128.6320350000169,,,,,,,128.6320350000169,128.6320350000169,129.62371740001254,129.62875160004478,129.62875160004478,129.62875160004478,129.62875160004478,130.2060749999946,z,0.5746781999478117,None,,,,,,,,PM_th,001,2025-03-07_11h34.01.854,MainFlow,2024.2.4,130.07757819205995,2025-03-07 11h34.31.624394 +0700,
1,3,52,word/wordth0523.png,70,70,0,x,0.5539797000819817,None,0,70,70,70,130.2121559000807,,,,,,,130.2121559000807,130.2121559000807,131.20251500001177,131.20763960003387,131.20763960003387,131.20763960003387,131.20763960003387,131.76472740003373,x,0.5539797000819817,None,,,,,,,,PM_th,001,2025-03-07_11h34.01.854,MainFlow,2024.2.4,130.07757819205995,2025-03-07 11h34.31.624394 +0700,
1,1,22,word/wordth0221.png,71,71,0,z,0.5256318000610918,None,0,71,71,71,131.7712112000445,,,,,,,131.7712112000445,131.7712112000445,132.76058130001184,132.7654486000538,132.7654486000538,132.7654486000538,132.7654486000538,133.29491499997675,z,0.5256318000610918,None,,,,,,,,PM_th,001,2025-03-07_11h34.01.854,MainFlow,2024.2.4,130.07757819205995,2025-03-07 11h34.31.624394 +0700,
1,1,6,word/wordth0061.png,72,72,0,z,0.6280380999669433,None,0,72,72,72,133.3009947000537,,,,,,,133.3009947000537,133.3009947000537,134.29168050002772,134.29669540002942,134.29669540002942,134.29669540002942,134.29669540002942,134.93024440004956,z,0.6280380999669433,None,,,,,,,,PM_th,001,2025-03-07_11h34.01.854,MainFlow,2024.2.4,130.07757819205995,2025-03-07 11h34.31.624394 +0700,
1,2,30,word/wordth0302.png,73,73,0,x,0.7109716999111697,None,0,73,73,73,134.93621199997142,,,,,,,134.93621199997142,134.93621199997142,135.92763280007057,135.93209300003946,135.93209300003946,135.93209300003946,135.93209300003946,136.6489728000015,x,0.7109716999111697,None,,,,,,,,PM_th,001,2025-03-07_11h34.01.854,MainFlow,2024.2.4,130.07757819205995,2025-03-07 11h34.31.624394 +0700,
1,1,51,word/wordth0511.png,74,74,0,z,0.7513848000671715,None,0,74,74,74,136.65510350000113,,,,,,,136.65510350000113,136.65510350000113,137.64604080002755,137.65109300008044,137.65109300008044,137.65109300008044,137.65109300008044,138.41009720007423,z,0.7513848000671715,None,,,,,,,,PM_th,001,2025-03-07_11h34.01.854,MainFlow,2024.2.4,130.07757819205995,2025-03-07 11h34.31.624394 +0700,
1,2,50,word/wordth0502.png,75,75,0,x,0.5968245000112802,None,0,75,75,75,138.41583900002297,,,,,,,138.41583900002297,138.41583900002297,139.40798420005012,139.41289450007025,139.41289450007025,139.41289450007025,139.41289450007025,140.01091529999394,x,0.5968245000112802,None,,,,,,,,PM_th,001,2025-03-07_11h34.01.854,MainFlow,2024.2.4,130.07757819205995,2025-03-07 11h34.31.624394 +0700,
1,3,95,word/wordth0953.png,76,76,0,z,1.2144489000784233,None,0,76,76,76,140.01688480004668,,,,,,,140.01688480004668,140.01688480004668,141.00883509998675,141.01386449998245,141.01386449998245,141.01386449998245,141.01386449998245,142.23014440003317,z,1.2144489000784233,None,,,,,,,,PM_th,001,2025-03-07_11h34.01.854,MainFlow,2024.2.4,130.07757819205995,2025-03-07 11h34.31.624394 +0700,
1,1,75,word/wordth0751.png,77,77,0,z,0.7452833999413997,None,0,77,77,77,142.23614000005182,,,,,,,142.23614000005182,142.23614000005182,143.2262482000515,143.23103340005036,143.23103340005036,143.23103340005036,143.23103340005036,143.9824069000315,z,0.7452833999413997,None,,,,,,,,PM_th,001,2025-03-07_11h34.01.854,MainFlow,2024.2.4,130.07757819205995,2025-03-07 11h34.31.624394 +0700,
1,1,95,word/wordth0951.png,78,78,0,z,0.6198573999572545,None,0,78,78,78,143.98851499997545,,,,,,,143.98851499997545,143.98851499997545,144.97962370002642,144.98454970004968,144.98454970004968,144.98454970004968,144.98454970004968,145.61128850001842,z,0.6198573999572545,None,,,,,,,,PM_th,001,2025-03-07_11h34.01.854,MainFlow,2024.2.4,130.07757819205995,2025-03-07 11h34.31.624394 +0700,
1,2,8,word/wordth0082.png,79,79,0,x,0.6410742000443861,None,0,79,79,79,145.61742690007668,,,,,,,145.61742690007668,145.61742690007668,146.60725650005043,146.61250290006865,146.61250290006865,146.61250290006865,146.61250290006865,147.25967080006376,x,0.6410742000443861,None,,,,,,,,PM_th,001,2025-03-07_11h34.01.854,MainFlow,2024.2.4,130.07757819205995,2025-03-07 11h34.31.624394 +0700,
1,3,75,word/wordth0753.png,80,80,0,x,0.8992125000804663,None,0,80,80,80,147.265885300003,,,,,,,147.265885300003,147.265885300003,148.25753270008136,148.262601000024,148.262601000024,148.262601000024,148.262601000024,149.1669295000611,x,0.8992125000804663,None,,,,,,,,PM_th,001,2025-03-07_11h34.01.854,MainFlow,2024.2.4,130.07757819205995,2025-03-07 11h34.31.624394 +0700,
1,1,28,word/wordth0281.png,81,81,0,z,0.6761633000569418,None,0,81,81,81,149.17244540003594,,,,,,,149.17244540003594,149.17244540003594,150.1647008000873,150.1693360999925,150.1693360999925,150.1693360999925,150.1693360999925,150.8515796000138,z,0.6761633000569418,None,,,,,,,,PM_th,001,2025-03-07_11h34.01.854,MainFlow,2024.2.4,130.07757819205995,2025-03-07 11h34.31.624394 +0700,
1,3,42,word/wordth0423.png,82,82,0,x,0.6598026999272406,None,0,82,82,82,150.85735960002057,,,,,,,150.85735960002057,150.85735960002057,151.84973000001628,151.85451760003343,151.85451760003343,151.85451760003343,151.85451760003343,152.5216140000848,x,0.6598026999272406,None,,,,,,,,PM_th,001,2025-03-07_11h34.01.854,MainFlow,2024.2.4,130.07757819205995,2025-03-07 11h34.31.624394 +0700,
1,3,46,word/wordth0463.png,83,83,0,x,0.6298838000511751,None,0,83,83,83,152.52783959999215,,,,,,,152.52783959999215,152.52783959999215,153.51814399997238,153.52307200001087,153.52307200001087,153.52307200001087,153.52307200001087,154.15662270004395,x,0.6298838000511751,None,,,,,,,,PM_th,001,2025-03-07_11h34.01.854,MainFlow,2024.2.4,130.07757819205995,2025-03-07 11h34.31.624394 +0700,
1,3,1,word/wordth0013.png,84,84,0,x,0.7015078000258654,None,0,84,84,84,154.16266260005068,,,,,,,154.16266260005068,154.16266260005068,155.1537691000849,155.15862630004995,155.15862630004995,155.15862630004995,155.15862630004995,155.86166430008598,x,0.7015078000258654,None,,,,,,,,PM_th,001,2025-03-07_11h34.01.854,MainFlow,2024.2.4,130.07757819205995,2025-03-07 11h34.31.624394 +0700,
1,2,70,word/wordth0702.png,85,85,0,x,0.5022336000110954,None,0,85,85,85,155.8672090000473,,,,,,,155.8672090000473,155.8672090000473,156.85730640008114,156.86206770001445,156.86206770001445,156.86206770001445,156.86206770001445,157.37058610003442,x,0.5022336000110954,None,,,,,,,,PM_th,001,2025-03-07_11h34.01.854,MainFlow,2024.2.4,130.07757819205995,2025-03-07 11h34.31.624394 +0700,
1,1,7,word/wordth0071.png,86,86,0,z,0.4617611999856308,None,0,86,86,86,157.37679310003296,,,,,,,157.37679310003296,157.37679310003296,158.3667655000463,158.37162430002354,158.37162430002354,158.37162430002354,158.37162430002354,158.83940890000667,z,0.4617611999856308,None,,,,,,,,PM_th,001,2025-03-07_11h34.01.854,MainFlow,2024.2.4,130.07757819205995,2025-03-07 11h34.31.624394 +0700,
1,2,7,word/wordth0072.png,87,87,0,x,0.6922804999630898,None,0,87,87,87,158.8443270000862,,,,,,,158.8443270000862,158.8443270000862,159.8341502000112,159.83887530001812,159.83887530001812,159.83887530001812,159.83887530001812,160.53487520001363,x,0.6922804999630898,None,,,,,,,,PM_th,001,2025-03-07_11h34.01.854,MainFlow,2024.2.4,130.07757819205995,2025-03-07 11h34.31.624394 +0700,
1,2,24,word/wordth0242.png,88,88,0,x,0.6205552000319585,None,0,88,88,88,160.54096330003813,,,,,,,160.54096330003813,160.54096330003813,161.52973509998992,161.53451780008618,161.53451780008618,161.53451780008618,161.53451780008618,162.16113080002833,x,0.6205552000319585,None,,,,,,,,PM_th,001,2025-03-07_11h34.01.854,MainFlow,2024.2.4,130.07757819205995,2025-03-07 11h34.31.624394 +0700,
1,3,26,word/wordth0263.png,89,89,0,x,0.49114759999793023,None,0,89,89,89,162.16726150002796,,,,,,,162.16726150002796,162.16726150002796,163.15779480000492,163.16280549997464,163.16280549997464,163.16280549997464,163.16280549997464,163.65766770008486,x,0.49114759999793023,None,,,,,,,,PM_th,001,2025-03-07_11h34.01.854,MainFlow,2024.2.4,130.07757819205995,2025-03-07 11h34.31.624394 +0700,
1,2,23,word/wordth0232.png,90,90,0,x,0.8013137999223545,None,0,90,90,90,163.6632182999747,,,,,,,163.6632182999747,163.6632182999747,164.65481099998578,164.66032250004355,164.66032250004355,164.66032250004355,164.66032250004355,165.46718620008323,x,0.8013137999223545,None,,,,,,,,PM_th,001,2025-03-07_11h34.01.854,MainFlow,2024.2.4,130.07757819205995,2025-03-07 11h34.31.624394 +0700,
1,2,75,word/wordth0752.png,91,91,0,x,0.7098616999574006,None,0,91,91,91,165.4730974000413,,,,,,,165.4730974000413,165.4730974000413,166.46373529999983,166.46851490007248,166.46851490007248,166.46851490007248,166.46851490007248,167.18571760004852,x,0.7098616999574006,None,,,,,,,,PM_th,001,2025-03-07_11h34.01.854,MainFlow,2024.2.4,130.07757819205995,2025-03-07 11h34.31.624394 +0700,
1,2,6,word/wordth0062.png,92,92,0,x,0.7946105999872088,None,0,92,92,92,167.1916766000213,,,,,,,167.1916766000213,167.1916766000213,168.18426290003117,168.18975370004773,168.18975370004773,168.18975370004773,168.18975370004773,168.9880300000077,x,0.7946105999872088,None,,,,,,,,PM_th,001,2025-03-07_11h34.01.854,MainFlow,2024.2.4,130.07757819205995,2025-03-07 11h34.31.624394 +0700,
1,2,93,word/wordth0932.png,93,93,0,x,0.5676896999357268,None,0,93,93,93,168.99409930000547,,,,,,,168.99409930000547,168.99409930000547,169.98489199997857,169.99034140002914,169.99034140002914,169.99034140002914,169.99034140002914,170.56132009997964,x,0.5676896999357268,None,,,,,,,,PM_th,001,2025-03-07_11h34.01.854,MainFlow,2024.2.4,130.07757819205995,2025-03-07 11h34.31.624394 +0700,
1,2,48,word/wordth0482.png,94,94,0,x,0.47544660000130534,None,0,94,94,94,170.56741050002165,,,,,,,170.56741050002165,170.56741050002165,171.55588970007375,171.56037259998266,171.56037259998266,171.56037259998266,171.56037259998266,172.04117029998451,x,0.47544660000130534,None,,,,,,,,PM_th,001,2025-03-07_11h34.01.854,MainFlow,2024.2.4,130.07757819205995,2025-03-07 11h34.31.624394 +0700,
1,1,70,word/wordth0701.png,95,95,0,z,0.5429730999749154,None,0,95,95,95,172.04721150000114,,,,,,,172.04721150000114,172.04721150000114,173.03606020007282,173.04149490001146,173.04149490001146,173.04149490001146,173.04149490001146,173.59138270001858,z,0.5429730999749154,None,,,,,,,,PM_th,001,2025-03-07_11h34.01.854,MainFlow,2024.2.4,130.07757819205995,2025-03-07 11h34.31.624394 +0700,
1,2,66,word/wordth0662.png,96,96,0,x,0.5548202999634668,None,0,96,96,96,173.59784439997748,,,,,,,173.59784439997748,173.59784439997748,174.58850790001452,174.5936865999829,174.5936865999829,174.5936865999829,174.5936865999829,175.1507244000677,x,0.5548202999634668,None,,,,,,,,PM_th,001,2025-03-07_11h34.01.854,MainFlow,2024.2.4,130.07757819205995,2025-03-07 11h34.31.624394 +0700,
1,1,26,word/wordth0261.png,97,97,0,z,0.5773096999619156,None,0,97,97,97,175.15693830000237,,,,,,,175.15693830000237,175.15693830000237,176.14947020006366,176.15478920005262,176.15478920005262,176.15478920005262,176.15478920005262,176.7381987000117,z,0.5773096999619156,None,,,,,,,,PM_th,001,2025-03-07_11h34.01.854,MainFlow,2024.2.4,130.07757819205995,2025-03-07 11h34.31.624394 +0700,
1,3,9,word/wordth0093.png,98,98,0,x,0.5711249999003485,None,0,98,98,98,176.7440328000812,,,,,,,176.7440328000812,176.7440328000812,177.73843040002976,177.7449116000207,177.7449116000207,177.7449116000207,177.7449116000207,178.32219089998398,x,0.5711249999003485,None,,,,,,,,PM_th,001,2025-03-07_11h34.01.854,MainFlow,2024.2.4,130.07757819205995,2025-03-07 11h34.31.624394 +0700,
1,2,61,word/wordth0612.png,99,99,0,x,0.4657933000707999,None,0,99,99,99,178.32807759998832,,,,,,,178.32807759998832,178.32807759998832,179.31863350002095,179.32371670007706,179.32371670007706,179.32371670007706,179.32371670007706,179.79064170003403,x,0.4657933000707999,None,,,,,,,,PM_th,001,2025-03-07_11h34.01.854,MainFlow,2024.2.4,130.07757819205995,2025-03-07 11h34.31.624394 +0700,
1,3,8,word/wordth0083.png,100,100,0,x,0.78685310005676,None,0,100,100,100,179.79677380004432,,,,,,,179.79677380004432,179.79677380004432,180.78647250006907,180.79103279998526,180.79103279998526,180.79103279998526,180.79103279998526,181.58409820008092,x,0.78685310005676,None,,,,,,,,PM_th,001,2025-03-07_11h34.01.854,MainFlow,2024.2.4,130.07757819205995,2025-03-07 11h34.31.624394 +0700,
1,1,8,word/wordth0081.png,101,101,0,z,0.5699141999939457,None,0,101,101,101,181.5903330000583,,,,,,,181.5903330000583,181.5903330000583,182.5819094000617,182.58685449999757,182.58685449999757,182.58685449999757,182.58685449999757,183.15780629997607,z,0.5699141999939457,None,,,,,,,,PM_th,001,2025-03-07_11h34.01.854,MainFlow,2024.2.4,130.07757819205995,2025-03-07 11h34.31.624394 +0700,
1,2,44,word/wordth0442.png,102,102,0,x,0.5586624999996275,None,0,102,102,102,183.16347370005678,,,,,,,183.16347370005678,183.16347370005678,184.15272600005846,184.15732210001443,184.15732210001443,184.15732210001443,184.15732210001443,184.72123700007796,x,0.5586624999996275,None,,,,,,,,PM_th,001,2025-03-07_11h34.01.854,MainFlow,2024.2.4,130.07757819205995,2025-03-07 11h34.31.624394 +0700,
1,3,31,word/wordth0313.png,103,103,0,x,0.47363379993475974,None,0,103,103,103,184.72743010008708,,,,,,,184.72743010008708,184.72743010008708,185.71602320007514,185.72081840003375,185.72081840003375,185.72081840003375,185.72081840003375,186.2010927000083,x,0.47363379993475974,None,,,,,,,,PM_th,001,2025-03-07_11h34.01.854,MainFlow,2024.2.4,130.07757819205995,2025-03-07 11h34.31.624394 +0700,
1,1,89,word/wordth0891.png,104,104,0,z,0.7088256999850273,None,0,104,104,104,186.20743870001752,,,,,,,186.20743870001752,186.20743870001752,187.19901380001102,187.20413730002474,187.20413730002474,187.20413730002474,187.20413730002474,187.91400810005143,z,0.7088256999850273,None,,,,,,,,PM_th,001,2025-03-07_11h34.01.854,MainFlow,2024.2.4,130.07757819205995,2025-03-07 11h34.31.624394 +0700,
1,3,70,word/wordth0703.png,105,105,0,x,0.5795647000195459,None,0,105,105,105,187.9196021000389,,,,,,,187.9196021000389,187.9196021000389,188.91155349998735,188.9166324000107,188.9166324000107,188.9166324000107,188.9166324000107,189.50129120005295,x,0.5795647000195459,None,,,,,,,,PM_th,001,2025-03-07_11h34.01.854,MainFlow,2024.2.4,130.07757819205995,2025-03-07 11h34.31.624394 +0700,
1,3,68,word/wordth0683.png,106,106,0,x,0.5819881999632344,None,0,106,106,106,189.50736779998988,,,,,,,189.50736779998988,189.50736779998988,190.49819740001112,190.50372779997997,190.50372779997997,190.50372779997997,190.50372779997997,191.08850970002823,x,0.5819881999632344,None,,,,,,,,PM_th,001,2025-03-07_11h34.01.854,MainFlow,2024.2.4,130.07757819205995,2025-03-07 11h34.31.624394 +0700,
1,3,10,word/wordth0103.png,107,107,0,x,0.5576626000693068,None,0,107,107,107,191.09457110008225,,,,,,,191.09457110008225,191.09457110008225,192.0861538000172,192.09118300001137,192.09118300001137,192.09118300001137,192.09118300001137,192.65472550003324,x,0.5576626000693068,None,,,,,,,,PM_th,001,2025-03-07_11h34.01.854,MainFlow,2024.2.4,130.07757819205995,2025-03-07 11h34.31.624394 +0700,
1,3,94,word/wordth0943.png,108,108,0,x,0.4989876000909135,None,0,108,108,108,192.6607058000518,,,,,,,192.6607058000518,192.6607058000518,193.65368590003345,193.65870630007703,193.65870630007703,193.65870630007703,193.65870630007703,194.15895770001225,x,0.4989876000909135,None,,,,,,,,PM_th,001,2025-03-07_11h34.01.854,MainFlow,2024.2.4,130.07757819205995,2025-03-07 11h34.31.624394 +0700,
1,1,3,word/wordth0031.png,109,109,0,z,0.5153495999984443,None,0,109,109,109,194.1645801999839,,,,,,,194.1645801999839,194.1645801999839,195.1554617000511,195.16031060006935,195.16031060006935,195.16031060006935,195.16031060006935,195.68217120005284,z,0.5153495999984443,None,,,,,,,,PM_th,001,2025-03-07_11h34.01.854,MainFlow,2024.2.4,130.07757819205995,2025-03-07 11h34.31.624394 +0700,
1,3,63,word/wordth0633.png,110,110,0,x,0.5328775000525638,None,0,110,110,110,195.68858539999928,,,,,,,195.68858539999928,195.68858539999928,196.67797590000555,196.6829498000443,196.6829498000443,196.6829498000443,196.6829498000443,197.21908379998058,x,0.5328775000525638,None,,,,,,,,PM_th,001,2025-03-07_11h34.01.854,MainFlow,2024.2.4,130.07757819205995,2025-03-07 11h34.31.624394 +0700,
1,2,9,word/wordth0092.png,111,111,0,x,0.5215672999620438,None,0,111,111,111,197.22533659997862,,,,,,,197.22533659997862,197.22533659997862,198.2162924000295,198.22107820003293,198.22107820003293,198.22107820003293,198.22107820003293,198.74391740001738,x,0.5215672999620438,None,,,,,,,,PM_th,001,2025-03-07_11h34.01.854,MainFlow,2024.2.4,130.07757819205995,2025-03-07 11h34.31.624394 +0700,
1,3,7,word/wordth0073.png,112,112,0,x,0.562645599944517,None,0,112,112,112,198.7493364000693,,,,,,,198.7493364000693,198.7493364000693,199.73904430004768,199.74436580005568,199.74436580005568,199.74436580005568,199.74436580005568,200.30848090001382,x,0.562645599944517,None,,,,,,,,PM_th,001,2025-03-07_11h34.01.854,MainFlow,2024.2.4,130.07757819205995,2025-03-07 11h34.31.624394 +0700,
1,2,41,word/wordth0412.png,113,113,0,x,0.4535357999848202,None,0,113,113,113,200.31417670007795,,,,,,,200.31417670007795,200.31417670007795,201.3063128000358,201.3117469000863,201.3117469000863,201.3117469000863,201.3117469000863,201.77079730003607,x,0.4535357999848202,None,,,,,,,,PM_th,001,2025-03-07_11h34.01.854,MainFlow,2024.2.4,130.07757819205995,2025-03-07 11h34.31.624394 +0700,
1,1,9,word/wordth0091.png,114,114,0,z,0.5658978000283241,None,0,114,114,114,201.77687609998975,,,,,,,201.77687609998975,201.77687609998975,202.76841620006599,202.77348049997818,202.77348049997818,202.77348049997818,202.77348049997818,203.34388850000687,z,0.5658978000283241,None,,,,,,,,PM_th,001,2025-03-07_11h34.01.854,MainFlow,2024.2.4,130.07757819205995,2025-03-07 11h34.31.624394 +0700,
1,1,94,word/wordth0941.png,115,115,0,z,0.5717195000033826,None,0,115,115,115,203.35008970007766,,,,,,,203.35008970007766,203.35008970007766,204.34078410000075,204.34548959997483,204.34548959997483,204.34548959997483,204.34548959997483,204.92353480006568,z,0.5717195000033826,None,,,,,,,,PM_th,001,2025-03-07_11h34.01.854,MainFlow,2024.2.4,130.07757819205995,2025-03-07 11h34.31.624394 +0700,
1,1,52,word/wordth0521.png,116,116,0,z,0.5377193000167608,None,0,116,116,116,204.92971310007852,,,,,,,204.92971310007852,204.92971310007852,205.91828740003984,205.9234279000666,205.9234279000666,205.9234279000666,205.9234279000666,206.46666020003613,z,0.5377193000167608,None,,,,,,,,PM_th,001,2025-03-07_11h34.01.854,MainFlow,2024.2.4,130.07757819205995,2025-03-07 11h34.31.624394 +0700,
1,2,88,word/wordth0882.png,117,117,0,x,0.627647600020282,None,0,117,117,117,206.47246499999892,,,,,,,206.47246499999892,206.47246499999892,207.46313420007937,207.46803400001954,207.46803400001954,207.46803400001954,207.46803400001954,208.10099619999528,x,0.627647600020282,None,,,,,,,,PM_th,001,2025-03-07_11h34.01.854,MainFlow,2024.2.4,130.07757819205995,2025-03-07 11h34.31.624394 +0700,
1,1,41,word/wordth0411.png,118,118,0,z,0.6743322999682277,None,0,118,118,118,208.10728250001557,,,,,,,208.10728250001557,208.10728250001557,209.0991009999998,209.10402570001315,209.10402570001315,209.10402570001315,209.10402570001315,209.7793479000684,z,0.6743322999682277,None,,,,,,,,PM_th,001,2025-03-07_11h34.01.854,MainFlow,2024.2.4,130.07757819205995,2025-03-07 11h34.31.624394 +0700,
1,3,30,word/wordth0303.png,119,119,0,x,0.5706649000057951,None,0,119,119,119,209.78514839999843,,,,,,,209.78514839999843,209.78514839999843,210.77668730006553,210.78149540000595,210.78149540000595,210.78149540000595,210.78149540000595,211.3593517000554,x,0.5706649000057951,None,,,,,,,,PM_th,001,2025-03-07_11h34.01.854,MainFlow,2024.2.4,130.07757819205995,2025-03-07 11h34.31.624394 +0700,
,,,,,,,,,,,,,,,,,,,,,,,,,,,,,,,,211.359464499983,211.3654868999729,211.3654868999729,220.01930560008623,space,8.65276890003588,None,PM_th,001,2025-03-07_11h34.01.854,MainFlow,2024.2.4,130.07757819205995,2025-03-07 11h34.31.624394 +0700,
