lang,stimuli,imageid,worddir,thisN,thisTrialN,thisRepN,key_resp.keys,key_resp.rt,key_resp.duration,trials.thisRepN,trials.thisTrialN,trials.thisN,trials.thisIndex,thisRow.t,notes,tutorial.started,tutorial.stopped,key_instruct.keys,key_instruct.rt,key_instruct.duration,instructblank.started,cross1.started,letterselect.started,imageword.started,text_2.started,cross2.started,key_resp.started,letterselect.stopped,trials.key_resp.keys,trials.key_resp.rt,trials.key_resp.duration,ending.started,text_3.started,ending_key.started,ending.stopped,ending_key.keys,ending_key.rt,ending_key.duration,participant,session,date,expName,psychopyVersion,frameRate,expStart,
,,,,,,,,,,,,,,,,0.0050099000000045635,1.9883614999998827,space,1.9537116999999853,None,,,,,,,,,,,,,,,,,,,PN_en,001,2025-03-14_19h31.35.808,MainFlow,2024.2.4,143.88613426775947,2025-03-14 19h31.44.723630 +0700,
2,1,66,word/worden0661.png,0,0,0,z,2.2619601000042167,None,0,0,0,0,2.0205329000018537,,,,,,,2.0205329000018537,2.0205329000018537,3.002266800001962,3.0147469000003184,3.0147469000003184,3.0147469000003184,3.0147469000003184,5.28128299999662,z,2.2619601000042167,None,,,,,,,,PN_en,001,2025-03-14_19h31.35.808,MainFlow,2024.2.4,143.88613426775947,2025-03-14 19h31.44.723630 +0700,
2,1,3,word/worden0031.png,1,1,0,z,0.6600862999985111,None,0,1,1,1,5.288033799995901,,,,,,,5.288033799995901,5.288033799995901,6.278234199999133,6.28863370000181,6.28863370000181,6.28863370000181,6.28863370000181,6.949576899998647,z,0.6600862999985111,None,,,,,,,,PN_en,001,2025-03-14_19h31.35.808,MainFlow,2024.2.4,143.88613426775947,2025-03-14 19h31.44.723630 +0700,
2,2,71,word/worden0712.png,2,2,0,x,2.6154767999978503,None,0,2,2,2,6.955951500000083,,,,,,,6.955951500000083,6.955951500000083,7.944424699999217,7.949254999999539,7.949254999999539,7.949254999999539,7.949254999999539,10.57129239999631,x,2.6154767999978503,None,,,,,,,,PN_en,001,2025-03-14_19h31.35.808,MainFlow,2024.2.4,143.88613426775947,2025-03-14 19h31.44.723630 +0700,
2,3,27,word/worden0273.png,3,3,0,x,0.634031599998707,None,0,3,3,3,10.57770619999792,,,,,,,10.57770619999792,10.57770619999792,11.567637200001627,11.578685399996175,11.578685399996175,11.578685399996175,11.578685399996175,12.218703099999402,x,0.634031599998707,None,,,,,,,,PN_en,001,2025-03-14_19h31.35.808,MainFlow,2024.2.4,143.88613426775947,2025-03-14 19h31.44.723630 +0700,
2,3,88,word/worden0883.png,4,4,0,x,1.2436849000005168,None,0,4,4,4,12.22509899999568,,,,,,,12.22509899999568,12.22509899999568,13.215525999999954,13.226030400001036,13.226030400001036,13.226030400001036,13.226030400001036,14.470938999998907,x,1.2436849000005168,None,,,,,,,,PN_en,001,2025-03-14_19h31.35.808,MainFlow,2024.2.4,143.88613426775947,2025-03-14 19h31.44.723630 +0700,
2,1,28,word/worden0281.png,5,5,0,z,0.6233073999974295,None,0,5,5,5,14.477402899996378,,,,,,,14.477402899996378,14.477402899996378,15.467324699995515,15.478403900000558,15.478403900000558,15.478403900000558,15.478403900000558,16.104521699999168,z,0.6233073999974295,None,,,,,,,,PN_en,001,2025-03-14_19h31.35.808,MainFlow,2024.2.4,143.88613426775947,2025-03-14 19h31.44.723630 +0700,
2,1,50,word/worden0501.png,6,6,0,z,0.5977333999981056,None,0,6,6,6,16.110975800002052,,,,,,,16.110975800002052,16.110975800002052,17.1007346999977,17.111979000001156,17.111979000001156,17.111979000001156,17.111979000001156,17.71048609999707,z,0.5977333999981056,None,,,,,,,,PN_en,001,2025-03-14_19h31.35.808,MainFlow,2024.2.4,143.88613426775947,2025-03-14 19h31.44.723630 +0700,
2,1,41,word/worden0411.png,7,7,0,z,0.7679830999986734,None,0,7,7,7,17.716724099998828,,,,,,,17.716724099998828,17.716724099998828,18.706323899998097,18.717727499999455,18.717727499999455,18.717727499999455,18.717727499999455,19.490024699996866,z,0.7679830999986734,None,,,,,,,,PN_en,001,2025-03-14_19h31.35.808,MainFlow,2024.2.4,143.88613426775947,2025-03-14 19h31.44.723630 +0700,
2,2,52,word/worden0522.png,8,8,0,z,0.6294025999959558,None,0,8,8,8,19.496272500000487,,,,,,,19.496272500000487,19.496272500000487,20.48651709999831,20.497306799996295,20.497306799996295,20.497306799996295,20.497306799996295,21.130399599998782,z,0.6294025999959558,None,,,,,,,,PN_en,001,2025-03-14_19h31.35.808,MainFlow,2024.2.4,143.88613426775947,2025-03-14 19h31.44.723630 +0700,
2,3,6,word/worden0063.png,9,9,0,x,0.9009063000048627,None,0,9,9,9,21.136788899995736,,,,,,,21.136788899995736,21.136788899995736,22.126580099997227,22.137804899997718,22.137804899997718,22.137804899997718,22.137804899997718,23.042074500001036,x,0.9009063000048627,None,,,,,,,,PN_en,001,2025-03-14_19h31.35.808,MainFlow,2024.2.4,143.88613426775947,2025-03-14 19h31.44.723630 +0700,
2,3,46,word/worden0463.png,10,10,0,x,1.2570440999988932,None,0,10,10,10,23.048446599997988,,,,,,,23.048446599997988,23.048446599997988,24.03725349999877,24.041666600001918,24.041666600001918,24.041666600001918,24.041666600001918,25.301224199996796,x,1.2570440999988932,None,,,,,,,,PN_en,001,2025-03-14_19h31.35.808,MainFlow,2024.2.4,143.88613426775947,2025-03-14 19h31.44.723630 +0700,
2,2,30,word/worden0302.png,11,11,0,x,0.72206730000471,None,0,11,11,11,25.307641300001706,,,,,,,25.307641300001706,25.307641300001706,26.29780419999588,26.308649899998272,26.308649899998272,26.308649899998272,26.308649899998272,27.032117999995535,x,0.72206730000471,None,,,,,,,,PN_en,001,2025-03-14_19h31.35.808,MainFlow,2024.2.4,143.88613426775947,2025-03-14 19h31.44.723630 +0700,
2,2,46,word/worden0462.png,12,12,0,x,0.5842623999997159,None,0,12,12,12,27.038529699995706,,,,,,,27.038529699995706,27.038529699995706,28.02845289999823,28.039523599996755,28.039523599996755,28.039523599996755,28.039523599996755,28.63101160000224,x,0.5842623999997159,None,,,,,,,,PN_en,001,2025-03-14_19h31.35.808,MainFlow,2024.2.4,143.88613426775947,2025-03-14 19h31.44.723630 +0700,
2,2,70,word/worden0702.png,13,13,0,x,2.7533725000030245,None,0,13,13,13,28.63734889999614,,,,,,,28.63734889999614,28.63734889999614,29.627456399997754,29.638348499996937,29.638348499996937,29.638348499996937,29.638348499996937,32.39856960000179,x,2.7533725000030245,None,,,,,,,,PN_en,001,2025-03-14_19h31.35.808,MainFlow,2024.2.4,143.88613426775947,2025-03-14 19h31.44.723630 +0700,
2,1,70,word/worden0701.png,14,14,0,z,1.0497395999991568,None,0,14,14,14,32.40498859999934,,,,,,,32.40498859999934,32.40498859999934,33.394431100001384,33.4060129999998,33.4060129999998,33.4060129999998,33.4060129999998,34.45647520000057,z,1.0497395999991568,None,,,,,,,,PN_en,001,2025-03-14_19h31.35.808,MainFlow,2024.2.4,143.88613426775947,2025-03-14 19h31.44.723630 +0700,
2,1,8,word/worden0081.png,15,15,0,z,0.6810848000022816,None,0,15,15,15,34.462480700000015,,,,,,,34.462480700000015,34.462480700000015,35.452520599996205,35.463629999998375,35.463629999998375,35.463629999998375,35.463629999998375,36.145556299998134,z,0.6810848000022816,None,,,,,,,,PN_en,001,2025-03-14_19h31.35.808,MainFlow,2024.2.4,143.88613426775947,2025-03-14 19h31.44.723630 +0700,
2,3,61,word/worden0613.png,16,16,0,x,0.9276989999998477,None,0,16,16,16,36.15178609999566,,,,,,,36.15178609999566,36.15178609999566,37.14009950000036,37.145013800000015,37.145013800000015,37.145013800000015,37.145013800000015,38.07790319999913,x,0.9276989999998477,None,,,,,,,,PN_en,001,2025-03-14_19h31.35.808,MainFlow,2024.2.4,143.88613426775947,2025-03-14 19h31.44.723630 +0700,
2,3,10,word/worden0103.png,17,17,0,x,0.771433399997477,None,0,17,17,17,38.08426740000141,,,,,,,38.08426740000141,38.08426740000141,39.07468779999908,39.08528919999662,39.08528919999662,39.08528919999662,39.08528919999662,39.85756099999708,x,0.771433399997477,None,,,,,,,,PN_en,001,2025-03-14_19h31.35.808,MainFlow,2024.2.4,143.88613426775947,2025-03-14 19h31.44.723630 +0700,
2,3,75,word/worden0753.png,18,18,0,x,1.3198903000011342,None,0,18,18,18,39.863823100000445,,,,,,,39.863823100000445,39.863823100000445,40.854052599999704,40.864844800002174,40.864844800002174,40.864844800002174,40.864844800002174,42.1862095999968,x,1.3198903000011342,None,,,,,,,,PN_en,001,2025-03-14_19h31.35.808,MainFlow,2024.2.4,143.88613426775947,2025-03-14 19h31.44.723630 +0700,
2,2,63,word/worden0632.png,19,19,0,x,1.2081529999995837,None,0,19,19,19,42.19256260000111,,,,,,,42.19256260000111,42.19256260000111,43.18245509999542,43.193554999998014,43.193554999998014,43.193554999998014,43.193554999998014,44.4036225000018,x,1.2081529999995837,None,,,,,,,,PN_en,001,2025-03-14_19h31.35.808,MainFlow,2024.2.4,143.88613426775947,2025-03-14 19h31.44.723630 +0700,
2,3,11,word/worden0113.png,20,20,0,x,1.918696300002921,None,0,20,20,20,44.410017700000026,,,,,,,44.410017700000026,44.410017700000026,45.39952009999979,45.41104739999719,45.41104739999719,45.41104739999719,45.41104739999719,47.33041940000112,x,1.918696300002921,None,,,,,,,,PN_en,001,2025-03-14_19h31.35.808,MainFlow,2024.2.4,143.88613426775947,2025-03-14 19h31.44.723630 +0700,
2,2,89,word/worden0892.png,21,21,0,x,0.8559418000004371,None,0,21,21,21,47.336567899998045,,,,,,,47.336567899998045,47.336567899998045,48.32481959999859,48.32978659999935,48.32978659999935,48.32978659999935,48.32978659999935,49.18641750000097,x,0.8559418000004371,None,,,,,,,,PN_en,001,2025-03-14_19h31.35.808,MainFlow,2024.2.4,143.88613426775947,2025-03-14 19h31.44.723630 +0700,
2,1,9,word/worden0091.png,22,22,0,z,0.6411435000045458,None,0,22,22,22,49.19258689999697,,,,,,,49.19258689999697,49.19258689999697,50.18240349999542,50.19357759999548,50.19357759999548,50.19357759999548,50.19357759999548,50.84055780000199,z,0.6411435000045458,None,,,,,,,,PN_en,001,2025-03-14_19h31.35.808,MainFlow,2024.2.4,143.88613426775947,2025-03-14 19h31.44.723630 +0700,
2,3,28,word/worden0283.png,23,23,0,x,0.8466771000021254,None,0,23,23,23,50.84702660000039,,,,,,,50.84702660000039,50.84702660000039,51.83641060000082,51.84803300000203,51.84803300000203,51.84803300000203,51.84803300000203,52.69665669999813,x,0.8466771000021254,None,,,,,,,,PN_en,001,2025-03-14_19h31.35.808,MainFlow,2024.2.4,143.88613426775947,2025-03-14 19h31.44.723630 +0700,
2,1,82,word/worden0821.png,24,24,0,z,0.7427106999966782,None,0,24,24,24,52.70302660000016,,,,,,,52.70302660000016,52.70302660000016,53.69242310000118,53.704035199996724,53.704035199996724,53.704035199996724,53.704035199996724,54.448357499997655,z,0.7427106999966782,None,,,,,,,,PN_en,001,2025-03-14_19h31.35.808,MainFlow,2024.2.4,143.88613426775947,2025-03-14 19h31.44.723630 +0700,
2,2,28,word/worden0282.png,25,25,0,x,0.8189493000027142,None,0,25,25,25,54.45466260000103,,,,,,,54.45466260000103,54.45466260000103,55.44481010000163,55.45577210000192,55.45577210000192,55.45577210000192,55.45577210000192,56.276571700000204,x,0.8189493000027142,None,,,,,,,,PN_en,001,2025-03-14_19h31.35.808,MainFlow,2024.2.4,143.88613426775947,2025-03-14 19h31.44.723630 +0700,
2,1,23,word/worden0231.png,26,26,0,z,0.670488399999158,None,0,26,26,26,56.28299729999708,,,,,,,56.28299729999708,56.28299729999708,57.27131849999569,57.27623699999822,57.27623699999822,57.27623699999822,57.27623699999822,57.9518706999952,z,0.670488399999158,None,,,,,,,,PN_en,001,2025-03-14_19h31.35.808,MainFlow,2024.2.4,143.88613426775947,2025-03-14 19h31.44.723630 +0700,
2,2,42,word/worden0422.png,27,27,0,x,0.868433699994057,None,0,27,27,27,57.95830610000121,,,,,,,57.95830610000121,57.95830610000121,58.94861239999591,58.95928219999769,58.95928219999769,58.95928219999769,58.95928219999769,59.82870990000083,x,0.868433699994057,None,,,,,,,,PN_en,001,2025-03-14_19h31.35.808,MainFlow,2024.2.4,143.88613426775947,2025-03-14 19h31.44.723630 +0700,
2,2,93,word/worden0932.png,28,28,0,x,0.8075570999935735,None,0,28,28,28,59.83515410000109,,,,,,,59.83515410000109,59.83515410000109,60.82546529999672,60.836162399995374,60.836162399995374,60.836162399995374,60.836162399995374,61.6499885000012,x,0.8075570999935735,None,,,,,,,,PN_en,001,2025-03-14_19h31.35.808,MainFlow,2024.2.4,143.88613426775947,2025-03-14 19h31.44.723630 +0700,
2,1,88,word/worden0881.png,29,29,0,z,0.8780970000007073,None,0,29,29,29,61.65640960000019,,,,,,,61.65640960000019,61.65640960000019,62.6446305999998,62.649625999998534,62.649625999998534,62.649625999998534,62.649625999998534,63.533820199998445,z,0.8780970000007073,None,,,,,,,,PN_en,001,2025-03-14_19h31.35.808,MainFlow,2024.2.4,143.88613426775947,2025-03-14 19h31.44.723630 +0700,
2,3,31,word/worden0313.png,30,30,0,x,0.674504499998875,None,0,30,30,30,63.54023849999794,,,,,,,63.54023849999794,63.54023849999794,64.53220069999952,64.54124020000017,64.54124020000017,64.54124020000017,64.54124020000017,65.22289859999728,x,0.674504499998875,None,,,,,,,,PN_en,001,2025-03-14_19h31.35.808,MainFlow,2024.2.4,143.88613426775947,2025-03-14 19h31.44.723630 +0700,
2,2,75,word/worden0752.png,31,31,0,x,0.790101800004777,None,0,31,31,31,65.22939749999932,,,,,,,65.22939749999932,65.22939749999932,66.21788209999795,66.22262570000021,66.22262570000021,66.22262570000021,66.22262570000021,67.01641769999696,x,0.790101800004777,None,,,,,,,,PN_en,001,2025-03-14_19h31.35.808,MainFlow,2024.2.4,143.88613426775947,2025-03-14 19h31.44.723630 +0700,
2,2,48,word/worden0482.png,32,32,0,x,0.8248454999993555,None,0,32,32,32,67.0228713999968,,,,,,,67.0228713999968,67.0228713999968,68.0121794000006,68.02387289999751,68.02387289999751,68.02387289999751,68.02387289999751,68.85162699999637,x,0.8248454999993555,None,,,,,,,,PN_en,001,2025-03-14_19h31.35.808,MainFlow,2024.2.4,143.88613426775947,2025-03-14 19h31.44.723630 +0700,
2,1,26,word/worden0261.png,33,33,0,z,0.7296751999965636,None,0,33,33,33,68.85803569999553,,,,,,,68.85803569999553,68.85803569999553,69.84745209999528,69.85904399999708,69.85904399999708,69.85904399999708,69.85904399999708,70.58957029999874,z,0.7296751999965636,None,,,,,,,,PN_en,001,2025-03-14_19h31.35.808,MainFlow,2024.2.4,143.88613426775947,2025-03-14 19h31.44.723630 +0700,
2,2,41,word/worden0412.png,34,34,0,x,0.5918357999980799,None,0,34,34,34,70.59589869999763,,,,,,,70.59589869999763,70.59589869999763,71.58558719999564,71.59688889999961,71.59688889999961,71.59688889999961,71.59688889999961,72.19523289999779,x,0.5918357999980799,None,,,,,,,,PN_en,001,2025-03-14_19h31.35.808,MainFlow,2024.2.4,143.88613426775947,2025-03-14 19h31.44.723630 +0700,
2,3,66,word/worden0663.png,35,35,0,x,6.17908009999519,None,0,35,35,35,72.20169109999551,,,,,,,72.20169109999551,72.20169109999551,73.19111519999569,73.20264779999707,73.20264779999707,73.20264779999707,73.20264779999707,79.38317719999759,x,6.17908009999519,None,,,,,,,,PN_en,001,2025-03-14_19h31.35.808,MainFlow,2024.2.4,143.88613426775947,2025-03-14 19h31.44.723630 +0700,
2,1,6,word/worden0061.png,36,36,0,z,1.0323589999970864,None,0,36,36,36,79.38934789999621,,,,,,,79.38934789999621,79.38934789999621,80.3799629999994,80.39035589999548,80.39035589999548,80.39035589999548,80.39035589999548,81.42647220000072,z,1.0323589999970864,None,,,,,,,,PN_en,001,2025-03-14_19h31.35.808,MainFlow,2024.2.4,143.88613426775947,2025-03-14 19h31.44.723630 +0700,
2,1,42,word/worden0421.png,37,37,0,z,0.932646699999168,None,0,37,37,37,81.43306060000032,,,,,,,81.43306060000032,81.43306060000032,82.42322169999534,82.43407759999536,82.43407759999536,82.43407759999536,82.43407759999536,83.37289919999603,z,0.932646699999168,None,,,,,,,,PN_en,001,2025-03-14_19h31.35.808,MainFlow,2024.2.4,143.88613426775947,2025-03-14 19h31.44.723630 +0700,
2,3,41,word/worden0413.png,38,38,0,x,0.9700216999990516,None,0,38,38,38,83.37946669999656,,,,,,,83.37946669999656,83.37946669999656,84.3675402000008,84.37268259999837,84.37268259999837,84.37268259999837,84.37268259999837,85.34720019999804,x,0.9700216999990516,None,,,,,,,,PN_en,001,2025-03-14_19h31.35.808,MainFlow,2024.2.4,143.88613426775947,2025-03-14 19h31.44.723630 +0700,
2,2,23,word/worden0232.png,39,39,0,x,0.6438348999945447,None,0,39,39,39,85.3536591000011,,,,,,,85.3536591000011,85.3536591000011,86.3419139999969,86.34688569999707,86.34688569999707,86.34688569999707,86.34688569999707,86.99476819999836,x,0.6438348999945447,None,,,,,,,,PN_en,001,2025-03-14_19h31.35.808,MainFlow,2024.2.4,143.88613426775947,2025-03-14 19h31.44.723630 +0700,
2,3,96,word/worden0963.png,40,40,0,x,0.6215921999973943,None,0,40,40,40,87.00114139999641,,,,,,,87.00114139999641,87.00114139999641,87.99152469999535,88.00214559999586,88.00214559999586,88.00214559999586,88.00214559999586,88.62832499999786,x,0.6215921999973943,None,,,,,,,,PN_en,001,2025-03-14_19h31.35.808,MainFlow,2024.2.4,143.88613426775947,2025-03-14 19h31.44.723630 +0700,
2,1,61,word/worden0611.png,41,41,0,z,0.7797826000023633,None,0,41,41,41,88.63472529999854,,,,,,,88.63472529999854,88.63472529999854,89.62319179999758,89.62793729999976,89.62793729999976,89.62793729999976,89.62793729999976,90.41486799999984,z,0.7797826000023633,None,,,,,,,,PN_en,001,2025-03-14_19h31.35.808,MainFlow,2024.2.4,143.88613426775947,2025-03-14 19h31.44.723630 +0700,
2,3,9,word/worden0093.png,42,42,0,x,0.7614946999965468,None,0,42,42,42,90.42118829999526,,,,,,,90.42118829999526,90.42118829999526,91.4114380999963,91.42221769999742,91.42221769999742,91.42221769999742,91.42221769999742,92.18735549999838,x,0.7614946999965468,None,,,,,,,,PN_en,001,2025-03-14_19h31.35.808,MainFlow,2024.2.4,143.88613426775947,2025-03-14 19h31.44.723630 +0700,
2,3,63,word/worden0633.png,43,43,0,x,0.6209270000035758,None,0,43,43,43,92.1938147999972,,,,,,,92.1938147999972,92.1938147999972,93.18338239999866,93.19481529999757,93.19481529999757,93.19481529999757,93.19481529999757,93.82107199999882,x,0.6209270000035758,None,,,,,,,,PN_en,001,2025-03-14_19h31.35.808,MainFlow,2024.2.4,143.88613426775947,2025-03-14 19h31.44.723630 +0700,
2,3,50,word/worden0503.png,44,44,0,x,0.48333979999733856,None,0,44,44,44,93.82736689999729,,,,,,,93.82736689999729,93.82736689999729,94.81759239999519,94.82837379999546,94.82837379999546,94.82837379999546,94.82837379999546,95.31551469999977,x,0.48333979999733856,None,,,,,,,,PN_en,001,2025-03-14_19h31.35.808,MainFlow,2024.2.4,143.88613426775947,2025-03-14 19h31.44.723630 +0700,
2,2,27,word/worden0272.png,45,45,0,x,0.5171898999979021,None,0,45,45,45,95.32193279999774,,,,,,,95.32193279999774,95.32193279999774,96.30991369999538,96.31552920000104,96.31552920000104,96.31552920000104,96.31552920000104,96.83787109999685,x,0.5171898999979021,None,,,,,,,,PN_en,001,2025-03-14_19h31.35.808,MainFlow,2024.2.4,143.88613426775947,2025-03-14 19h31.44.723630 +0700,
2,2,61,word/worden0612.png,46,46,0,x,0.7072212000057334,None,0,46,46,46,96.84429739999905,,,,,,,96.84429739999905,96.84429739999905,97.83243560000119,97.83750809999765,97.83750809999765,97.83750809999765,97.83750809999765,98.54792269999598,x,0.7072212000057334,None,,,,,,,,PN_en,001,2025-03-14_19h31.35.808,MainFlow,2024.2.4,143.88613426775947,2025-03-14 19h31.44.723630 +0700,
2,3,7,word/worden0073.png,47,47,0,x,3.549162499999511,None,0,47,47,47,98.55431909999606,,,,,,,98.55431909999606,98.55431909999606,99.54255849999754,99.54756169999746,99.54756169999746,99.54756169999746,99.54756169999746,103.10105699999986,x,3.549162499999511,None,,,,,,,,PN_en,001,2025-03-14_19h31.35.808,MainFlow,2024.2.4,143.88613426775947,2025-03-14 19h31.44.723630 +0700,
2,3,23,word/worden0233.png,48,48,0,x,0.5892500000045402,None,0,48,48,48,103.10745499999757,,,,,,,103.10745499999757,103.10745499999757,104.09747300000163,104.108467500002,104.108467500002,104.108467500002,104.108467500002,104.69982919999893,x,0.5892500000045402,None,,,,,,,,PN_en,001,2025-03-14_19h31.35.808,MainFlow,2024.2.4,143.88613426775947,2025-03-14 19h31.44.723630 +0700,
2,1,95,word/worden0951.png,49,49,0,z,0.7184256999971694,None,0,49,49,49,104.70627109999623,,,,,,,104.70627109999623,104.70627109999623,105.69640029999573,105.70728799999779,105.70728799999779,105.70728799999779,105.70728799999779,106.43073519999598,z,0.7184256999971694,None,,,,,,,,PN_en,001,2025-03-14_19h31.35.808,MainFlow,2024.2.4,143.88613426775947,2025-03-14 19h31.44.723630 +0700,
2,3,42,word/worden0423.png,50,50,0,x,0.9795139999987441,None,0,50,50,50,106.4372269000014,,,,,,,106.4372269000014,106.4372269000014,107.42750369999703,107.43820109999797,107.43820109999797,107.43820109999797,107.43820109999797,108.41888499999914,x,0.9795139999987441,None,,,,,,,,PN_en,001,2025-03-14_19h31.35.808,MainFlow,2024.2.4,143.88613426775947,2025-03-14 19h31.44.723630 +0700,
2,1,30,word/worden0301.png,51,51,0,z,0.5267812000020058,None,0,51,51,51,108.42530289999559,,,,,,,108.42530289999559,108.42530289999559,109.41343490000145,109.41892779999762,109.41892779999762,109.41892779999762,109.41892779999762,109.94817229999899,z,0.5267812000020058,None,,,,,,,,PN_en,001,2025-03-14_19h31.35.808,MainFlow,2024.2.4,143.88613426775947,2025-03-14 19h31.44.723630 +0700,
2,3,87,word/worden0873.png,52,52,0,x,1.1582265999968513,None,0,52,52,52,109.95457080000051,,,,,,,109.95457080000051,109.95457080000051,110.94266789999529,110.9484889000014,110.9484889000014,110.9484889000014,110.9484889000014,112.10999559999618,x,1.1582265999968513,None,,,,,,,,PN_en,001,2025-03-14_19h31.35.808,MainFlow,2024.2.4,143.88613426775947,2025-03-14 19h31.44.723630 +0700,
2,2,6,word/worden0062.png,53,53,0,x,1.3330416000026162,None,0,53,53,53,112.11644969999907,,,,,,,112.11644969999907,112.11644969999907,113.10473710000224,113.10968680000224,113.10968680000224,113.10968680000224,113.10968680000224,114.44604470000195,x,1.3330416000026162,None,,,,,,,,PN_en,001,2025-03-14_19h31.35.808,MainFlow,2024.2.4,143.88613426775947,2025-03-14 19h31.44.723630 +0700,
2,2,68,word/worden0682.png,54,54,0,x,3.846371100000397,None,0,54,54,54,114.45217369999591,,,,,,,114.45217369999591,114.45217369999591,115.44090029999643,115.44534510000085,115.44534510000085,115.44534510000085,115.44534510000085,119.29761249999865,x,3.846371100000397,None,,,,,,,,PN_en,001,2025-03-14_19h31.35.808,MainFlow,2024.2.4,143.88613426775947,2025-03-14 19h31.44.723630 +0700,
2,3,1,word/worden0013.png,55,55,0,x,11.511577699995541,None,0,55,55,55,119.30417289999605,,,,,,,119.30417289999605,119.30417289999605,120.29461959999753,120.30517600000167,120.30517600000167,120.30517600000167,120.30517600000167,131.81750889999967,x,11.511577699995541,None,,,,,,,,PN_en,001,2025-03-14_19h31.35.808,MainFlow,2024.2.4,143.88613426775947,2025-03-14 19h31.44.723630 +0700,
2,2,94,word/worden0942.png,56,56,0,x,0.7520957000015187,None,0,56,56,56,131.82362419999845,,,,,,,131.82362419999845,131.82362419999845,132.81379659999948,132.82462829999713,132.82462829999713,132.82462829999713,132.82462829999713,133.58287199999904,x,0.7520957000015187,None,,,,,,,,PN_en,001,2025-03-14_19h31.35.808,MainFlow,2024.2.4,143.88613426775947,2025-03-14 19h31.44.723630 +0700,
2,3,82,word/worden0823.png,57,57,0,x,1.5674370000051567,None,0,57,57,57,133.5892634999982,,,,,,,133.5892634999982,133.5892634999982,134.57826149999892,134.59027349999815,134.59027349999815,134.59027349999815,134.59027349999815,136.16189399999712,x,1.5674370000051567,None,,,,,,,,PN_en,001,2025-03-14_19h31.35.808,MainFlow,2024.2.4,143.88613426775947,2025-03-14 19h31.44.723630 +0700,
2,1,89,word/worden0891.png,58,58,0,z,0.7194663000045693,None,0,58,58,58,136.16808399999718,,,,,,,136.16808399999718,136.16808399999718,137.15677190000133,137.16227829999843,137.16227829999843,137.16227829999843,137.16227829999843,137.88582060000044,z,0.7194663000045693,None,,,,,,,,PN_en,001,2025-03-14_19h31.35.808,MainFlow,2024.2.4,143.88613426775947,2025-03-14 19h31.44.723630 +0700,
2,1,31,word/worden0311.png,59,59,0,z,0.6363492999953451,None,0,59,59,59,137.89217900000222,,,,,,,137.89217900000222,137.89217900000222,138.88056539999525,138.88538490000064,138.88538490000064,138.88538490000064,138.88538490000064,139.52632060000178,z,0.6363492999953451,None,,,,,,,,PN_en,001,2025-03-14_19h31.35.808,MainFlow,2024.2.4,143.88613426775947,2025-03-14 19h31.44.723630 +0700,
2,2,51,word/worden0512.png,60,60,0,x,0.7400281000009272,None,0,60,60,60,139.53271259999747,,,,,,,139.53271259999747,139.53271259999747,140.52256869999837,140.5336970999997,140.5336970999997,140.5336970999997,140.5336970999997,141.27810350000073,x,0.7400281000009272,None,,,,,,,,PN_en,001,2025-03-14_19h31.35.808,MainFlow,2024.2.4,143.88613426775947,2025-03-14 19h31.44.723630 +0700,
2,3,44,word/worden0443.png,61,61,0,x,0.8812659000031999,None,0,61,61,61,141.2844327999992,,,,,,,141.2844327999992,141.2844327999992,142.27464999999938,142.28544469999906,142.28544469999906,142.28544469999906,142.28544469999906,143.16883399999642,x,0.8812659000031999,None,,,,,,,,PN_en,001,2025-03-14_19h31.35.808,MainFlow,2024.2.4,143.88613426775947,2025-03-14 19h31.44.723630 +0700,
2,1,1,word/worden0011.png,62,62,0,z,0.8384938999952283,None,0,62,62,62,143.1752118000004,,,,,,,143.1752118000004,143.1752118000004,144.16548840000178,144.1762241999968,144.1762241999968,144.1762241999968,144.1762241999968,145.0179219999991,z,0.8384938999952283,None,,,,,,,,PN_en,001,2025-03-14_19h31.35.808,MainFlow,2024.2.4,143.88613426775947,2025-03-14 19h31.44.723630 +0700,
2,1,96,word/worden0961.png,63,63,0,z,1.097447000000102,None,0,63,63,63,145.02425270000094,,,,,,,145.02425270000094,145.02425270000094,146.01481100000092,146.02526979999675,146.02526979999675,146.02526979999675,146.02526979999675,147.12419840000075,z,1.097447000000102,None,,,,,,,,PN_en,001,2025-03-14_19h31.35.808,MainFlow,2024.2.4,143.88613426775947,2025-03-14 19h31.44.723630 +0700,
2,1,11,word/worden0111.png,64,64,0,z,1.3401944999932311,None,0,64,64,64,147.13054569999804,,,,,,,147.13054569999804,147.13054569999804,148.12038089999987,148.13154009999562,148.13154009999562,148.13154009999562,148.13154009999562,149.47370489999594,z,1.3401944999932311,None,,,,,,,,PN_en,001,2025-03-14_19h31.35.808,MainFlow,2024.2.4,143.88613426775947,2025-03-14 19h31.44.723630 +0700,
2,3,70,word/worden0703.png,65,65,0,x,1.066613300004974,None,0,65,65,65,149.48012559999916,,,,,,,149.48012559999916,149.48012559999916,150.47051849999843,150.48111419999623,150.48111419999623,150.48111419999623,150.48111419999623,151.55222089999734,x,1.066613300004974,None,,,,,,,,PN_en,001,2025-03-14_19h31.35.808,MainFlow,2024.2.4,143.88613426775947,2025-03-14 19h31.44.723630 +0700,
2,3,71,word/worden0713.png,66,66,0,x,0.7199026999951457,None,0,66,66,66,151.5585573999997,,,,,,,151.5585573999997,151.5585573999997,152.54688100000203,152.5518071999977,152.5518071999977,152.5518071999977,152.5518071999977,153.27607839999837,x,0.7199026999951457,None,,,,,,,,PN_en,001,2025-03-14_19h31.35.808,MainFlow,2024.2.4,143.88613426775947,2025-03-14 19h31.44.723630 +0700,
2,1,68,word/worden0681.png,67,67,0,z,1.164173800003482,None,0,67,67,67,153.2824346999987,,,,,,,153.2824346999987,153.2824346999987,154.2731105999992,154.2835397999952,154.2835397999952,154.2835397999952,154.2835397999952,155.45187250000163,z,1.164173800003482,None,,,,,,,,PN_en,001,2025-03-14_19h31.35.808,MainFlow,2024.2.4,143.88613426775947,2025-03-14 19h31.44.723630 +0700,
2,2,88,word/worden0882.png,68,68,0,x,0.7011763999980758,None,0,68,68,68,155.45828800000163,,,,,,,155.45828800000163,155.45828800000163,156.44654319999972,156.45155700000032,156.45155700000032,156.45155700000032,156.45155700000032,157.15502109999943,x,0.7011763999980758,None,,,,,,,,PN_en,001,2025-03-14_19h31.35.808,MainFlow,2024.2.4,143.88613426775947,2025-03-14 19h31.44.723630 +0700,
2,2,50,word/worden0502.png,69,69,0,x,1.1423281000024872,None,0,69,69,69,157.16139649999968,,,,,,,157.16139649999968,157.16139649999968,158.1517376999982,158.1623968999993,158.1623968999993,158.1623968999993,158.1623968999993,159.30992379999952,x,1.1423281000024872,None,,,,,,,,PN_en,001,2025-03-14_19h31.35.808,MainFlow,2024.2.4,143.88613426775947,2025-03-14 19h31.44.723630 +0700,
2,3,93,word/worden0933.png,70,70,0,x,0.7633691000010003,None,0,70,70,70,159.31631139999809,,,,,,,159.31631139999809,159.31631139999809,160.3062024999963,160.317349500001,160.317349500001,160.317349500001,160.317349500001,161.08260889999656,x,0.7633691000010003,None,,,,,,,,PN_en,001,2025-03-14_19h31.35.808,MainFlow,2024.2.4,143.88613426775947,2025-03-14 19h31.44.723630 +0700,
2,1,63,word/worden0631.png,71,71,0,z,0.758630299998913,None,0,71,71,71,161.0889102000001,,,,,,,161.0889102000001,161.0889102000001,162.07705890000216,162.08213679999608,162.08213679999608,162.08213679999608,162.08213679999608,162.84145880000142,z,0.758630299998913,None,,,,,,,,PN_en,001,2025-03-14_19h31.35.808,MainFlow,2024.2.4,143.88613426775947,2025-03-14 19h31.44.723630 +0700,
2,2,7,word/worden0072.png,72,72,0,x,0.46410499999910826,None,0,72,72,72,162.84758879999572,,,,,,,162.84758879999572,162.84758879999572,163.83755369999562,163.84862399999838,163.84862399999838,163.84862399999838,163.84862399999838,164.31488959999842,x,0.46410499999910826,None,,,,,,,,PN_en,001,2025-03-14_19h31.35.808,MainFlow,2024.2.4,143.88613426775947,2025-03-14 19h31.44.723630 +0700,
2,2,64,word/worden0642.png,73,73,0,x,0.6553968000007444,None,0,73,73,73,164.32131030000164,,,,,,,164.32131030000164,164.32131030000164,165.3112370999952,165.32232049999584,165.32232049999584,165.32232049999584,165.32232049999584,165.9832000000024,x,0.6553968000007444,None,,,,,,,,PN_en,001,2025-03-14_19h31.35.808,MainFlow,2024.2.4,143.88613426775947,2025-03-14 19h31.44.723630 +0700,
2,1,24,word/worden0241.png,74,74,0,z,0.8190717000034056,None,0,74,74,74,165.98964839999826,,,,,,,165.98964839999826,165.98964839999826,166.9790942999971,166.99065680000058,166.99065680000058,166.99065680000058,166.99065680000058,167.81145339999784,z,0.8190717000034056,None,,,,,,,,PN_en,001,2025-03-14_19h31.35.808,MainFlow,2024.2.4,143.88613426775947,2025-03-14 19h31.44.723630 +0700,
2,2,1,word/worden0012.png,75,75,0,x,0.5106412000022829,None,0,75,75,75,167.81785429999582,,,,,,,167.81785429999582,167.81785429999582,168.80632479999622,168.81107209999755,168.81107209999755,168.81107209999755,168.81107209999755,169.3268095999956,x,0.5106412000022829,None,,,,,,,,PN_en,001,2025-03-14_19h31.35.808,MainFlow,2024.2.4,143.88613426775947,2025-03-14 19h31.44.723630 +0700,
2,1,46,word/worden0461.png,76,76,0,z,0.5394731999986107,None,0,76,76,76,169.33326459999807,,,,,,,169.33326459999807,169.33326459999807,170.32340829999885,170.33426379999582,170.33426379999582,170.33426379999582,170.33426379999582,170.87699959999736,z,0.5394731999986107,None,,,,,,,,PN_en,001,2025-03-14_19h31.35.808,MainFlow,2024.2.4,143.88613426775947,2025-03-14 19h31.44.723630 +0700,
2,3,52,word/worden0523.png,77,77,0,x,1.0942730000024312,None,0,77,77,77,170.88338659999863,,,,,,,170.88338659999863,170.88338659999863,171.87339839999913,171.88442809999833,171.88442809999833,171.88442809999833,171.88442809999833,172.98323459999665,x,1.0942730000024312,None,,,,,,,,PN_en,001,2025-03-14_19h31.35.808,MainFlow,2024.2.4,143.88613426775947,2025-03-14 19h31.44.723630 +0700,
2,2,31,word/worden0312.png,78,78,0,x,0.5640472000013688,None,0,78,78,78,172.98969339999894,,,,,,,172.98969339999894,172.98969339999894,173.97905889999674,173.9906766999993,173.9906766999993,173.9906766999993,173.9906766999993,174.561189,x,0.5640472000013688,None,,,,,,,,PN_en,001,2025-03-14_19h31.35.808,MainFlow,2024.2.4,143.88613426775947,2025-03-14 19h31.44.723630 +0700,
2,2,95,word/worden0952.png,79,79,0,x,0.6731569999974454,None,0,79,79,79,174.56762940000044,,,,,,,174.56762940000044,174.56762940000044,175.55553749999672,175.56155710000166,175.56155710000166,175.56155710000166,175.56155710000166,176.23649869999645,x,0.6731569999974454,None,,,,,,,,PN_en,001,2025-03-14_19h31.35.808,MainFlow,2024.2.4,143.88613426775947,2025-03-14 19h31.44.723630 +0700,
2,1,93,word/worden0931.png,80,80,0,z,1.0228159000034793,None,0,80,80,80,176.24291090000042,,,,,,,176.24291090000042,176.24291090000042,177.23255849999987,177.24390380000114,177.24390380000114,177.24390380000114,177.24390380000114,178.2732137999992,z,1.0228159000034793,None,,,,,,,,PN_en,001,2025-03-14_19h31.35.808,MainFlow,2024.2.4,143.88613426775947,2025-03-14 19h31.44.723630 +0700,
2,1,71,word/worden0711.png,81,81,0,z,0.6030275000011898,None,0,81,81,81,178.27965759999643,,,,,,,178.27965759999643,178.27965759999643,179.26941670000087,179.28068129999883,179.28068129999883,179.28068129999883,179.28068129999883,179.88597650000156,z,0.6030275000011898,None,,,,,,,,PN_en,001,2025-03-14_19h31.35.808,MainFlow,2024.2.4,143.88613426775947,2025-03-14 19h31.44.723630 +0700,
2,1,48,word/worden0481.png,82,82,0,z,0.5743168999979389,None,0,82,82,82,179.89240350000182,,,,,,,179.89240350000182,179.89240350000182,180.8824542000002,180.8934178999989,180.8934178999989,180.8934178999989,180.8934178999989,181.47086039999704,z,0.5743168999979389,None,,,,,,,,PN_en,001,2025-03-14_19h31.35.808,MainFlow,2024.2.4,143.88613426775947,2025-03-14 19h31.44.723630 +0700,
2,1,94,word/worden0941.png,83,83,0,z,0.6451831999947899,None,0,83,83,83,181.47730049999518,,,,,,,181.47730049999518,181.47730049999518,182.46576629999618,182.47053890000097,182.47053890000097,182.47053890000097,182.47053890000097,183.1182331999953,z,0.6451831999947899,None,,,,,,,,PN_en,001,2025-03-14_19h31.35.808,MainFlow,2024.2.4,143.88613426775947,2025-03-14 19h31.44.723630 +0700,
2,3,68,word/worden0683.png,84,84,0,x,4.606917900004191,None,0,84,84,84,183.1247893999971,,,,,,,183.1247893999971,183.1247893999971,184.11439289999544,184.12580689999595,184.12580689999595,184.12580689999595,184.12580689999595,188.7351592999985,x,4.606917900004191,None,,,,,,,,PN_en,001,2025-03-14_19h31.35.808,MainFlow,2024.2.4,143.88613426775947,2025-03-14 19h31.44.723630 +0700,
2,2,66,word/worden0662.png,85,85,0,x,0.7259839999969699,None,0,85,85,85,188.7414557000011,,,,,,,188.7414557000011,188.7414557000011,189.7301152,189.7347226999991,189.7347226999991,189.7347226999991,189.7347226999991,190.46602049999638,x,0.7259839999969699,None,,,,,,,,PN_en,001,2025-03-14_19h31.35.808,MainFlow,2024.2.4,143.88613426775947,2025-03-14 19h31.44.723630 +0700,
2,3,95,word/worden0953.png,86,86,0,x,1.7390969000043697,None,0,86,86,86,190.47237609999866,,,,,,,190.47237609999866,190.47237609999866,191.46102429999883,191.46561870000005,191.46561870000005,191.46561870000005,191.46561870000005,193.2117464999974,x,1.7390969000043697,None,,,,,,,,PN_en,001,2025-03-14_19h31.35.808,MainFlow,2024.2.4,143.88613426775947,2025-03-14 19h31.44.723630 +0700,
2,3,30,word/worden0303.png,87,87,0,x,0.9385412999981781,None,0,87,87,87,193.2181950000013,,,,,,,193.2181950000013,193.2181950000013,194.20827129999816,194.21918600000208,194.21918600000208,194.21918600000208,194.21918600000208,195.15842229999544,x,0.9385412999981781,None,,,,,,,,PN_en,001,2025-03-14_19h31.35.808,MainFlow,2024.2.4,143.88613426775947,2025-03-14 19h31.44.723630 +0700,
2,3,22,word/worden0223.png,88,88,0,x,0.45611880000069505,None,0,88,88,88,195.16458169999532,,,,,,,195.16458169999532,195.16458169999532,196.1545915999959,196.1655896000011,196.1655896000011,196.1655896000011,196.1655896000011,196.62493189999805,x,0.45611880000069505,None,,,,,,,,PN_en,001,2025-03-14_19h31.35.808,MainFlow,2024.2.4,143.88613426775947,2025-03-14 19h31.44.723630 +0700,
2,1,75,word/worden0751.png,89,89,0,z,2.165389200003119,None,0,89,89,89,196.63131469999644,,,,,,,196.63131469999644,196.63131469999644,197.62139269999898,197.63232869999774,197.63232869999774,197.63232869999774,197.63232869999774,199.80174039999838,z,2.165389200003119,None,,,,,,,,PN_en,001,2025-03-14_19h31.35.808,MainFlow,2024.2.4,143.88613426775947,2025-03-14 19h31.44.723630 +0700,
2,1,64,word/worden0641.png,90,90,0,z,0.7646043999993708,None,0,90,90,90,199.80810349999956,,,,,,,199.80810349999956,199.80810349999956,200.7984426999974,200.8091101999962,200.8091101999962,200.8091101999962,200.8091101999962,201.57445729999745,z,0.7646043999993708,None,,,,,,,,PN_en,001,2025-03-14_19h31.35.808,MainFlow,2024.2.4,143.88613426775947,2025-03-14 19h31.44.723630 +0700,
2,1,27,word/worden0271.png,91,91,0,z,0.6327693999992334,None,0,91,91,91,201.58078340000066,,,,,,,201.58078340000066,201.58078340000066,202.56910709999647,202.57394979999663,202.57394979999663,202.57394979999663,202.57394979999663,203.2078865000003,z,0.6327693999992334,None,,,,,,,,PN_en,001,2025-03-14_19h31.35.808,MainFlow,2024.2.4,143.88613426775947,2025-03-14 19h31.44.723630 +0700,
2,2,24,word/worden0242.png,92,92,0,x,0.9591927999936161,None,0,92,92,92,203.2142451999971,,,,,,,203.2142451999971,203.2142451999971,204.2025136000011,204.20752360000188,204.20752360000188,204.20752360000188,204.20752360000188,205.16809519999515,x,0.9591927999936161,None,,,,,,,,PN_en,001,2025-03-14_19h31.35.808,MainFlow,2024.2.4,143.88613426775947,2025-03-14 19h31.44.723630 +0700,
2,1,87,word/worden0871.png,93,93,0,z,0.8231431000021985,None,0,93,93,93,205.1746060000005,,,,,,,205.1746060000005,205.1746060000005,206.16473450000194,206.17557069999748,206.17557069999748,206.17557069999748,206.17557069999748,207.0032519000015,z,0.8231431000021985,None,,,,,,,,PN_en,001,2025-03-14_19h31.35.808,MainFlow,2024.2.4,143.88613426775947,2025-03-14 19h31.44.723630 +0700,
2,1,7,word/worden0071.png,94,94,0,z,0.5719840000019758,None,0,94,94,94,207.00974069999938,,,,,,,207.00974069999938,207.00974069999938,207.99977450000006,208.01073009999527,208.01073009999527,208.01073009999527,208.01073009999527,208.58827909999673,z,0.5719840000019758,None,,,,,,,,PN_en,001,2025-03-14_19h31.35.808,MainFlow,2024.2.4,143.88613426775947,2025-03-14 19h31.44.723630 +0700,
2,2,9,word/worden0092.png,95,95,0,x,0.5868797000002814,None,0,95,95,95,208.5946522000013,,,,,,,208.5946522000013,208.5946522000013,209.58302249999542,209.5878703999988,209.5878703999988,209.5878703999988,209.5878703999988,210.1801271000004,x,0.5868797000002814,None,,,,,,,,PN_en,001,2025-03-14_19h31.35.808,MainFlow,2024.2.4,143.88613426775947,2025-03-14 19h31.44.723630 +0700,
2,1,44,word/worden0441.png,96,96,0,z,0.556207199995697,None,0,96,96,96,210.18651919999684,,,,,,,210.18651919999684,210.18651919999684,211.1768951999984,211.1875166999962,211.1875166999962,211.1875166999962,211.1875166999962,211.74434810000093,z,0.556207199995697,None,,,,,,,,PN_en,001,2025-03-14_19h31.35.808,MainFlow,2024.2.4,143.88613426775947,2025-03-14 19h31.44.723630 +0700,
2,2,10,word/worden0102.png,97,97,0,x,0.5401567000008072,None,0,97,97,97,211.7505411999955,,,,,,,211.7505411999955,211.7505411999955,212.74089490000188,212.75156450000213,212.75156450000213,212.75156450000213,212.75156450000213,213.29434359999868,x,0.5401567000008072,None,,,,,,,,PN_en,001,2025-03-14_19h31.35.808,MainFlow,2024.2.4,143.88613426775947,2025-03-14 19h31.44.723630 +0700,
2,2,82,word/worden0822.png,98,98,0,x,0.6859895999950822,None,0,98,98,98,213.30075149999902,,,,,,,213.30075149999902,213.30075149999902,214.2905357999989,214.3017278999978,214.3017278999978,214.3017278999978,214.3017278999978,214.99035020000156,x,0.6859895999950822,None,,,,,,,,PN_en,001,2025-03-14_19h31.35.808,MainFlow,2024.2.4,143.88613426775947,2025-03-14 19h31.44.723630 +0700,
2,3,89,word/worden0893.png,99,99,0,x,0.7496646999934455,None,0,99,99,99,214.99682989999565,,,,,,,214.99682989999565,214.99682989999565,215.9851120999956,215.99007690000144,215.99007690000144,215.99007690000144,215.99007690000144,216.74226420000196,x,0.7496646999934455,None,,,,,,,,PN_en,001,2025-03-14_19h31.35.808,MainFlow,2024.2.4,143.88613426775947,2025-03-14 19h31.44.723630 +0700,
2,2,44,word/worden0442.png,100,100,0,x,0.4550932999991346,None,0,100,100,100,216.7485897000006,,,,,,,216.7485897000006,216.7485897000006,217.73840299999574,217.74961839999742,217.74961839999742,217.74961839999742,217.74961839999742,218.20879409999907,x,0.4550932999991346,None,,,,,,,,PN_en,001,2025-03-14_19h31.35.808,MainFlow,2024.2.4,143.88613426775947,2025-03-14 19h31.44.723630 +0700,
2,1,52,word/worden0521.png,101,101,0,z,0.5563535999972373,None,0,101,101,101,218.21535169999697,,,,,,,218.21535169999697,218.21535169999697,219.20569180000166,219.2163612000004,219.2163612000004,219.2163612000004,219.2163612000004,219.7798479999983,z,0.5563535999972373,None,,,,,,,,PN_en,001,2025-03-14_19h31.35.808,MainFlow,2024.2.4,143.88613426775947,2025-03-14 19h31.44.723630 +0700,
2,1,51,word/worden0511.png,102,102,0,z,0.5293478000021423,None,0,102,102,102,219.78636079999706,,,,,,,219.78636079999706,219.78636079999706,220.77613479999854,220.78738349999912,220.78738349999912,220.78738349999912,220.78738349999912,221.32315469999594,z,0.5293478000021423,None,,,,,,,,PN_en,001,2025-03-14_19h31.35.808,MainFlow,2024.2.4,143.88613426775947,2025-03-14 19h31.44.723630 +0700,
2,3,51,word/worden0513.png,103,103,0,x,0.7212521999972523,None,0,103,103,103,221.32956439999543,,,,,,,221.32956439999543,221.32956439999543,222.31752119999874,222.32346600000164,222.32346600000164,222.32346600000164,222.32346600000164,223.04716429999826,x,0.7212521999972523,None,,,,,,,,PN_en,001,2025-03-14_19h31.35.808,MainFlow,2024.2.4,143.88613426775947,2025-03-14 19h31.44.723630 +0700,
2,2,8,word/worden0082.png,104,104,0,x,0.5742081000062171,None,0,104,104,104,223.0534817000007,,,,,,,223.0534817000007,223.0534817000007,224.04345779999858,224.05451009999524,224.05451009999524,224.05451009999524,224.05451009999524,224.6320366,x,0.5742081000062171,None,,,,,,,,PN_en,001,2025-03-14_19h31.35.808,MainFlow,2024.2.4,143.88613426775947,2025-03-14 19h31.44.723630 +0700,
2,2,3,word/worden0032.png,105,105,0,x,0.5503227999943192,None,0,105,105,105,224.6384012999988,,,,,,,224.6384012999988,224.6384012999988,225.62864299999637,225.63942429999588,225.63942429999588,225.63942429999588,225.63942429999588,226.19610309999553,x,0.5503227999943192,None,,,,,,,,PN_en,001,2025-03-14_19h31.35.808,MainFlow,2024.2.4,143.88613426775947,2025-03-14 19h31.44.723630 +0700,
2,3,3,word/worden0033.png,106,106,0,x,0.6731394000016735,None,0,106,106,106,226.20246239999688,,,,,,,226.20246239999688,226.20246239999688,227.19065469999623,227.1965904999961,227.1965904999961,227.1965904999961,227.1965904999961,227.87127379999583,x,0.6731394000016735,None,,,,,,,,PN_en,001,2025-03-14_19h31.35.808,MainFlow,2024.2.4,143.88613426775947,2025-03-14 19h31.44.723630 +0700,
2,3,64,word/worden0643.png,107,107,0,x,0.6389525999984471,None,0,107,107,107,227.87776779999695,,,,,,,227.87776779999695,227.87776779999695,228.86747599999944,228.8787725000002,228.8787725000002,228.8787725000002,228.8787725000002,229.51880050000182,x,0.6389525999984471,None,,,,,,,,PN_en,001,2025-03-14_19h31.35.808,MainFlow,2024.2.4,143.88613426775947,2025-03-14 19h31.44.723630 +0700,
2,3,26,word/worden0263.png,108,108,0,x,0.4708535000027041,None,0,108,108,108,229.5252165999991,,,,,,,229.5252165999991,229.5252165999991,230.5133702999956,230.51888179999514,230.51888179999514,230.51888179999514,230.51888179999514,230.99248570000054,x,0.4708535000027041,None,,,,,,,,PN_en,001,2025-03-14_19h31.35.808,MainFlow,2024.2.4,143.88613426775947,2025-03-14 19h31.44.723630 +0700,
2,2,96,word/worden0962.png,109,109,0,x,0.6299027999993996,None,0,109,109,109,230.9989426999964,,,,,,,230.9989426999964,230.9989426999964,231.98857300000236,231.99981809999736,231.99981809999736,231.99981809999736,231.99981809999736,232.63311039999826,x,0.6299027999993996,None,,,,,,,,PN_en,001,2025-03-14_19h31.35.808,MainFlow,2024.2.4,143.88613426775947,2025-03-14 19h31.44.723630 +0700,
2,1,22,word/worden0221.png,110,110,0,z,0.670251499999722,None,0,110,110,110,232.63946800000122,,,,,,,232.63946800000122,232.63946800000122,233.62968140000157,233.64047389999905,233.64047389999905,233.64047389999905,233.64047389999905,234.31527919999644,z,0.670251499999722,None,,,,,,,,PN_en,001,2025-03-14_19h31.35.808,MainFlow,2024.2.4,143.88613426775947,2025-03-14 19h31.44.723630 +0700,
2,2,22,word/worden0222.png,111,111,0,x,0.44800479999685194,None,0,111,111,111,234.32170760000008,,,,,,,234.32170760000008,234.32170760000008,235.31140949999826,235.32270730000164,235.32270730000164,235.32270730000164,235.32270730000164,235.77504970000155,x,0.44800479999685194,None,,,,,,,,PN_en,001,2025-03-14_19h31.35.808,MainFlow,2024.2.4,143.88613426775947,2025-03-14 19h31.44.723630 +0700,
2,2,26,word/worden0262.png,112,112,0,x,0.5962223000024096,None,0,112,112,112,235.78150050000113,,,,,,,235.78150050000113,235.78150050000113,236.77151349999622,236.78248529999837,236.78248529999837,236.78248529999837,236.78248529999837,237.38085860000137,x,0.5962223000024096,None,,,,,,,,PN_en,001,2025-03-14_19h31.35.808,MainFlow,2024.2.4,143.88613426775947,2025-03-14 19h31.44.723630 +0700,
2,3,48,word/worden0483.png,113,113,0,x,0.6302444000029936,None,0,113,113,113,237.38724060000095,,,,,,,237.38724060000095,237.38724060000095,238.37569670000084,238.38046790000226,238.38046790000226,238.38046790000226,238.38046790000226,239.0143745999958,x,0.6302444000029936,None,,,,,,,,PN_en,001,2025-03-14_19h31.35.808,MainFlow,2024.2.4,143.88613426775947,2025-03-14 19h31.44.723630 +0700,
2,2,87,word/worden0872.png,114,114,0,x,0.6938921000037226,None,0,114,114,114,239.02081259999977,,,,,,,239.02081259999977,239.02081259999977,240.01054949999525,240.02182270000048,240.02182270000048,240.02182270000048,240.02182270000048,240.7175126000002,x,0.6938921000037226,None,,,,,,,,PN_en,001,2025-03-14_19h31.35.808,MainFlow,2024.2.4,143.88613426775947,2025-03-14 19h31.44.723630 +0700,
2,1,10,word/worden0101.png,115,115,0,z,0.5105683000001591,None,0,115,115,115,240.723911699999,,,,,,,240.723911699999,240.723911699999,241.71245449999697,241.71713479999744,241.71713479999744,241.71713479999744,241.71713479999744,242.23287989999517,z,0.5105683000001591,None,,,,,,,,PN_en,001,2025-03-14_19h31.35.808,MainFlow,2024.2.4,143.88613426775947,2025-03-14 19h31.44.723630 +0700,
2,3,8,word/worden0083.png,116,116,0,x,0.5554432999997516,None,0,116,116,116,242.23932269999932,,,,,,,242.23932269999932,242.23932269999932,243.22959609999816,243.24029809999774,243.24029809999774,243.24029809999774,243.24029809999774,243.79698980000103,x,0.5554432999997516,None,,,,,,,,PN_en,001,2025-03-14_19h31.35.808,MainFlow,2024.2.4,143.88613426775947,2025-03-14 19h31.44.723630 +0700,
2,3,94,word/worden0943.png,117,117,0,x,0.5431278999967617,None,0,117,117,117,243.8033828999978,,,,,,,243.8033828999978,243.8033828999978,244.79195839999738,244.79659790000005,244.79659790000005,244.79659790000005,244.79659790000005,245.34043250000104,x,0.5431278999967617,None,,,,,,,,PN_en,001,2025-03-14_19h31.35.808,MainFlow,2024.2.4,143.88613426775947,2025-03-14 19h31.44.723630 +0700,
2,2,11,word/worden0112.png,118,118,0,x,1.0599191000001156,None,0,118,118,118,245.3465772999989,,,,,,,245.3465772999989,245.3465772999989,246.33528829999705,246.3397943000018,246.3397943000018,246.3397943000018,246.3397943000018,247.40476630000194,x,1.0599191000001156,None,,,,,,,,PN_en,001,2025-03-14_19h31.35.808,MainFlow,2024.2.4,143.88613426775947,2025-03-14 19h31.44.723630 +0700,
2,3,24,word/worden0243.png,119,119,0,x,0.38834670000505866,None,0,119,119,119,247.41112630000134,,,,,,,247.41112630000134,247.41112630000134,248.39937780000037,248.40435509999952,248.40435509999952,248.40435509999952,248.40435509999952,248.79502820000198,x,0.38834670000505866,None,,,,,,,,PN_en,001,2025-03-14_19h31.35.808,MainFlow,2024.2.4,143.88613426775947,2025-03-14 19h31.44.723630 +0700,
,,,,,,,,,,,,,,,,,,,,,,,,,,,,,,,,248.79511759999878,248.8014086999974,248.8014086999974,250.2687197999985,space,1.463385200004268,None,PN_en,001,2025-03-14_19h31.35.808,MainFlow,2024.2.4,143.88613426775947,2025-03-14 19h31.44.723630 +0700,
