lang,stimuli,imageid,worddir,thisN,thisTrialN,thisRepN,key_resp.keys,key_resp.rt,key_resp.duration,trials.thisRepN,trials.thisTrialN,trials.thisN,trials.thisIndex,thisRow.t,notes,tutorial.started,tutorial.stopped,key_instruct.keys,key_instruct.rt,key_instruct.duration,instructblank.started,cross1.started,letterselect.started,imageword.started,text_2.started,cross2.started,key_resp.started,letterselect.stopped,trials.key_resp.keys,trials.key_resp.rt,trials.key_resp.duration,ending.started,text_3.started,ending_key.started,ending.stopped,ending_key.keys,ending_key.rt,ending_key.duration,participant,session,date,expName,psychopyVersion,frameRate,expStart,
,,,,,,,,,,,,,,,,0.0033048999994207406,15.648360499999399,space,15.6264472999992,None,,,,,,,,,,,,,,,,,,,PT_en,001,2025-03-12_16h42.01.684,MainFlow,2024.2.4,129.98154261990106,2025-03-12 16h42.10.280881 +0700,
2,1,66,word/worden0661.png,0,0,0,x,1.3742642999986856,None,0,0,0,0,15.673043500000858,,,,,,,15.673043500000858,15.673043500000858,16.644878700000845,16.649684300000445,16.649684300000445,16.649684300000445,16.649684300000445,18.025697900000523,x,1.3742642999986856,None,,,,,,,,PT_en,001,2025-03-12_16h42.01.684,MainFlow,2024.2.4,129.98154261990106,2025-03-12 16h42.10.280881 +0700,
2,1,3,word/worden0031.png,1,1,0,z,0.8449705000002723,None,0,1,1,1,18.031966000000466,,,,,,,18.031966000000466,18.031966000000466,19.019488899999487,19.02339319999919,19.02339319999919,19.02339319999919,19.02339319999919,19.872907900000428,z,0.8449705000002723,None,,,,,,,,PT_en,001,2025-03-12_16h42.01.684,MainFlow,2024.2.4,129.98154261990106,2025-03-12 16h42.10.280881 +0700,
2,2,71,word/worden0712.png,2,2,0,x,1.0978267999998934,None,0,2,2,2,19.879359799999293,,,,,,,19.879359799999293,19.879359799999293,20.86606589999974,20.870079099999202,20.870079099999202,20.870079099999202,20.870079099999202,21.96996659999968,x,1.0978267999998934,None,,,,,,,,PT_en,001,2025-03-12_16h42.01.684,MainFlow,2024.2.4,129.98154261990106,2025-03-12 16h42.10.280881 +0700,
2,3,27,word/worden0273.png,3,3,0,x,0.7844986000000063,None,0,3,3,3,21.976424899999984,,,,,,,21.976424899999984,21.976424899999984,22.963156800000434,22.967360099999496,22.967360099999496,22.967360099999496,22.967360099999496,23.755031799999415,x,0.7844986000000063,None,,,,,,,,PT_en,001,2025-03-12_16h42.01.684,MainFlow,2024.2.4,129.98154261990106,2025-03-12 16h42.10.280881 +0700,
2,3,88,word/worden0883.png,4,4,0,x,0.9924360999993951,None,0,4,4,4,23.76091760000054,,,,,,,23.76091760000054,23.76091760000054,24.74966680000034,24.75400609999997,24.75400609999997,24.75400609999997,24.75400609999997,25.748204600000463,x,0.9924360999993951,None,,,,,,,,PT_en,001,2025-03-12_16h42.01.684,MainFlow,2024.2.4,129.98154261990106,2025-03-12 16h42.10.280881 +0700,
2,1,28,word/worden0281.png,5,5,0,z,0.6628947999997763,None,0,5,5,5,25.75463520000085,,,,,,,25.75463520000085,25.75463520000085,26.74322790000042,26.74738559999969,26.74738559999969,26.74738559999969,26.74738559999969,27.41526850000082,z,0.6628947999997763,None,,,,,,,,PT_en,001,2025-03-12_16h42.01.684,MainFlow,2024.2.4,129.98154261990106,2025-03-12 16h42.10.280881 +0700,
2,1,50,word/worden0501.png,6,6,0,z,1.145212100000208,None,0,6,6,6,27.421722600000066,,,,,,,27.421722600000066,27.421722600000066,28.409941699999763,28.414478400000007,28.414478400000007,28.414478400000007,28.414478400000007,29.561517599999206,z,1.145212100000208,None,,,,,,,,PT_en,001,2025-03-12_16h42.01.684,MainFlow,2024.2.4,129.98154261990106,2025-03-12 16h42.10.280881 +0700,
2,1,41,word/worden0411.png,7,7,0,z,0.6944316999997682,None,0,7,7,7,29.567968299999848,,,,,,,29.567968299999848,29.567968299999848,30.55586129999938,30.560116599999674,30.560116599999674,30.560116599999674,30.560116599999674,31.25606069999958,z,0.6944316999997682,None,,,,,,,,PT_en,001,2025-03-12_16h42.01.684,MainFlow,2024.2.4,129.98154261990106,2025-03-12 16h42.10.280881 +0700,
2,2,52,word/worden0522.png,8,8,0,x,0.6300961999986612,None,0,8,8,8,31.262272300000404,,,,,,,31.262272300000404,31.262272300000404,32.24950689999969,32.253550199999154,32.253550199999154,32.253550199999154,32.253550199999154,32.887754600000335,x,0.6300961999986612,None,,,,,,,,PT_en,001,2025-03-12_16h42.01.684,MainFlow,2024.2.4,129.98154261990106,2025-03-12 16h42.10.280881 +0700,
2,3,6,word/worden0063.png,9,9,0,x,1.9374764999993204,None,0,9,9,9,32.894274599999335,,,,,,,32.894274599999335,32.894274599999335,33.88079169999946,33.88497350000034,33.88497350000034,33.88497350000034,33.88497350000034,35.825689299999794,x,1.9374764999993204,None,,,,,,,,PT_en,001,2025-03-12_16h42.01.684,MainFlow,2024.2.4,129.98154261990106,2025-03-12 16h42.10.280881 +0700,
2,3,46,word/worden0463.png,10,10,0,x,6.296721800001251,None,0,10,10,10,35.83184369999981,,,,,,,35.83184369999981,35.83184369999981,36.81929889999992,36.82353279999916,36.82353279999916,36.82353279999916,36.82353279999916,43.12350139999944,x,6.296721800001251,None,,,,,,,,PT_en,001,2025-03-12_16h42.01.684,MainFlow,2024.2.4,129.98154261990106,2025-03-12 16h42.10.280881 +0700,
2,2,30,word/worden0302.png,11,11,0,x,2.2208725000000413,None,0,11,11,11,43.129908999999316,,,,,,,43.129908999999316,43.129908999999316,44.117986699999165,44.12226489999921,44.12226489999921,44.12226489999921,44.12226489999921,46.34553530000085,x,2.2208725000000413,None,,,,,,,,PT_en,001,2025-03-12_16h42.01.684,MainFlow,2024.2.4,129.98154261990106,2025-03-12 16h42.10.280881 +0700,
2,2,46,word/worden0462.png,12,12,0,x,2.262720900000204,None,0,12,12,12,46.35204329999942,,,,,,,46.35204329999942,46.35204329999942,47.34005670000079,47.34451900000022,47.34451900000022,47.34451900000022,47.34451900000022,49.609578699999474,x,2.262720900000204,None,,,,,,,,PT_en,001,2025-03-12_16h42.01.684,MainFlow,2024.2.4,129.98154261990106,2025-03-12 16h42.10.280881 +0700,
2,2,70,word/worden0702.png,13,13,0,x,1.7933465000005526,None,0,13,13,13,49.6160777999994,,,,,,,49.6160777999994,49.6160777999994,50.60365119999915,50.60768839999946,50.60768839999946,50.60768839999946,50.60768839999946,52.40800510000008,x,1.7933465000005526,None,,,,,,,,PT_en,001,2025-03-12_16h42.01.684,MainFlow,2024.2.4,129.98154261990106,2025-03-12 16h42.10.280881 +0700,
2,1,70,word/worden0701.png,14,14,0,z,0.9806473999997252,None,0,14,14,14,52.41451980000056,,,,,,,52.41451980000056,52.41451980000056,53.40174450000086,53.40578260000075,53.40578260000075,53.40578260000075,53.40578260000075,54.387293199999476,z,0.9806473999997252,None,,,,,,,,PT_en,001,2025-03-12_16h42.01.684,MainFlow,2024.2.4,129.98154261990106,2025-03-12 16h42.10.280881 +0700,
2,1,8,word/worden0081.png,15,15,0,z,2.023522299999968,None,0,15,15,15,54.393493300000046,,,,,,,54.393493300000046,54.393493300000046,55.381249000000025,55.385465499999555,55.385465499999555,55.385465499999555,55.385465499999555,57.41469870000037,z,2.023522299999968,None,,,,,,,,PT_en,001,2025-03-12_16h42.01.684,MainFlow,2024.2.4,129.98154261990106,2025-03-12 16h42.10.280881 +0700,
2,3,61,word/worden0613.png,16,16,0,x,0.6971854999992502,None,0,16,16,16,57.421192800000426,,,,,,,57.421192800000426,57.421192800000426,58.408820799999376,58.4126569,58.4126569,58.4126569,58.4126569,59.11595959999977,x,0.6971854999992502,None,,,,,,,,PT_en,001,2025-03-12_16h42.01.684,MainFlow,2024.2.4,129.98154261990106,2025-03-12 16h42.10.280881 +0700,
2,3,10,word/worden0103.png,17,17,0,x,4.461164300000746,None,0,17,17,17,59.12247209999987,,,,,,,59.12247209999987,59.12247209999987,60.111364700000195,60.115684399999736,60.115684399999736,60.115684399999736,60.115684399999736,64.5821051999992,x,4.461164300000746,None,,,,,,,,PT_en,001,2025-03-12_16h42.01.684,MainFlow,2024.2.4,129.98154261990106,2025-03-12 16h42.10.280881 +0700,
2,3,75,word/worden0753.png,18,18,0,x,1.8003033000004507,None,0,18,18,18,64.5886188000004,,,,,,,64.5886188000004,64.5886188000004,65.57604179999908,65.58004249999976,65.58004249999976,65.58004249999976,65.58004249999976,67.38747759999933,x,1.8003033000004507,None,,,,,,,,PT_en,001,2025-03-12_16h42.01.684,MainFlow,2024.2.4,129.98154261990106,2025-03-12 16h42.10.280881 +0700,
2,2,63,word/worden0632.png,19,19,0,x,0.840251099998568,None,0,19,19,19,67.39403350000066,,,,,,,67.39403350000066,67.39403350000066,68.38106949999928,68.38513160000002,68.38513160000002,68.38513160000002,68.38513160000002,69.22799400000076,x,0.840251099998568,None,,,,,,,,PT_en,001,2025-03-12_16h42.01.684,MainFlow,2024.2.4,129.98154261990106,2025-03-12 16h42.10.280881 +0700,
2,3,11,word/worden0113.png,20,20,0,x,1.869510900000023,None,0,20,20,20,69.23447739999938,,,,,,,69.23447739999938,69.23447739999938,70.22164630000043,70.22573080000075,70.22573080000075,70.22573080000075,70.22573080000075,72.09590559999924,x,1.869510900000023,None,,,,,,,,PT_en,001,2025-03-12_16h42.01.684,MainFlow,2024.2.4,129.98154261990106,2025-03-12 16h42.10.280881 +0700,
2,2,89,word/worden0892.png,21,21,0,x,1.479787899999792,None,0,21,21,21,72.10210039999947,,,,,,,72.10210039999947,72.10210039999947,73.08944979999978,73.09355030000006,73.09355030000006,73.09355030000006,73.09355030000006,74.5751622000007,x,1.479787899999792,None,,,,,,,,PT_en,001,2025-03-12_16h42.01.684,MainFlow,2024.2.4,129.98154261990106,2025-03-12 16h42.10.280881 +0700,
2,1,9,word/worden0091.png,22,22,0,z,0.5455079000003025,None,0,22,22,22,74.58100899999954,,,,,,,74.58100899999954,74.58100899999954,75.56912759999977,75.57321489999958,75.57321489999958,75.57321489999958,75.57321489999958,76.12330060000022,z,0.5455079000003025,None,,,,,,,,PT_en,001,2025-03-12_16h42.01.684,MainFlow,2024.2.4,129.98154261990106,2025-03-12 16h42.10.280881 +0700,
2,3,28,word/worden0283.png,23,23,0,z,0.6240065000001778,None,0,23,23,23,76.12980830000015,,,,,,,76.12980830000015,76.12980830000015,77.11814439999944,77.12264890000006,77.12264890000006,77.12264890000006,77.12264890000006,77.74848799999927,z,0.6240065000001778,None,,,,,,,,PT_en,001,2025-03-12_16h42.01.684,MainFlow,2024.2.4,129.98154261990106,2025-03-12 16h42.10.280881 +0700,
2,1,82,word/worden0821.png,24,24,0,z,2.2687225000008766,None,0,24,24,24,77.75501559999975,,,,,,,77.75501559999975,77.75501559999975,78.7428959000008,78.74723219999942,78.74723219999942,78.74723219999942,78.74723219999942,81.0196147000006,z,2.2687225000008766,None,,,,,,,,PT_en,001,2025-03-12_16h42.01.684,MainFlow,2024.2.4,129.98154261990106,2025-03-12 16h42.10.280881 +0700,
2,2,28,word/worden0282.png,25,25,0,x,1.3157645999999659,None,0,25,25,25,81.02603049999925,,,,,,,81.02603049999925,81.02603049999925,82.0147221999996,82.01908130000083,82.01908130000083,82.01908130000083,82.01908130000083,83.33983690000059,x,1.3157645999999659,None,,,,,,,,PT_en,001,2025-03-12_16h42.01.684,MainFlow,2024.2.4,129.98154261990106,2025-03-12 16h42.10.280881 +0700,
2,1,23,word/worden0231.png,26,26,0,z,2.7265619000008883,None,0,26,26,26,83.34627919999912,,,,,,,83.34627919999912,83.34627919999912,84.33328819999952,84.33714650000002,84.33714650000002,84.33714650000002,84.33714650000002,87.06898489999912,z,2.7265619000008883,None,,,,,,,,PT_en,001,2025-03-12_16h42.01.684,MainFlow,2024.2.4,129.98154261990106,2025-03-12 16h42.10.280881 +0700,
2,2,42,word/worden0422.png,27,27,0,x,1.345081699999355,None,0,27,27,27,87.0748519000008,,,,,,,87.0748519000008,87.0748519000008,88.06384900000012,88.06812349999927,88.06812349999927,88.06812349999927,88.06812349999927,89.41672839999956,x,1.345081699999355,None,,,,,,,,PT_en,001,2025-03-12_16h42.01.684,MainFlow,2024.2.4,129.98154261990106,2025-03-12 16h42.10.280881 +0700,
2,2,93,word/worden0932.png,28,28,0,x,1.402674000000843,None,0,28,28,28,89.42311920000066,,,,,,,89.42311920000066,89.42311920000066,90.41029229999913,90.41443299999992,90.41443299999992,90.41443299999992,90.41443299999992,91.81922909999957,x,1.402674000000843,None,,,,,,,,PT_en,001,2025-03-12_16h42.01.684,MainFlow,2024.2.4,129.98154261990106,2025-03-12 16h42.10.280881 +0700,
2,1,88,word/worden0881.png,29,29,0,z,0.7446956000003411,None,0,29,29,29,91.82570900000064,,,,,,,91.82570900000064,91.82570900000064,92.81281499999932,92.81683089999933,92.81683089999933,92.81683089999933,92.81683089999933,93.56254719999924,z,0.7446956000003411,None,,,,,,,,PT_en,001,2025-03-12_16h42.01.684,MainFlow,2024.2.4,129.98154261990106,2025-03-12 16h42.10.280881 +0700,
2,3,31,word/worden0313.png,30,30,0,x,0.6340640999987954,None,0,30,30,30,93.56891279999945,,,,,,,93.56891279999945,93.56891279999945,94.55844120000074,94.56264679999913,94.56264679999913,94.56264679999913,94.56264679999913,95.20275399999991,x,0.6340640999987954,None,,,,,,,,PT_en,001,2025-03-12_16h42.01.684,MainFlow,2024.2.4,129.98154261990106,2025-03-12 16h42.10.280881 +0700,
2,2,75,word/worden0752.png,31,31,0,x,0.6983992000004946,None,0,31,31,31,95.20918429999983,,,,,,,95.20918429999983,95.20918429999983,96.19758309999997,96.20185859999947,96.20185859999947,96.20185859999947,96.20185859999947,96.90470839999944,x,0.6983992000004946,None,,,,,,,,PT_en,001,2025-03-12_16h42.01.684,MainFlow,2024.2.4,129.98154261990106,2025-03-12 16h42.10.280881 +0700,
2,2,48,word/worden0482.png,32,32,0,x,1.3671679999988555,None,0,32,32,32,96.91061500000069,,,,,,,96.91061500000069,96.91061500000069,97.89874670000063,97.90327660000003,97.90327660000003,97.90327660000003,97.90327660000003,99.27253609999934,x,1.3671679999988555,None,,,,,,,,PT_en,001,2025-03-12_16h42.01.684,MainFlow,2024.2.4,129.98154261990106,2025-03-12 16h42.10.280881 +0700,
2,1,26,word/worden0261.png,33,33,0,x,1.1522624999997788,None,0,33,33,33,99.2789427000007,,,,,,,99.2789427000007,99.2789427000007,100.26752479999959,100.27178040000035,100.27178040000035,100.27178040000035,100.27178040000035,101.42567389999931,x,1.1522624999997788,None,,,,,,,,PT_en,001,2025-03-12_16h42.01.684,MainFlow,2024.2.4,129.98154261990106,2025-03-12 16h42.10.280881 +0700,
2,2,41,word/worden0412.png,34,34,0,x,1.4548787000003358,None,0,34,34,34,101.43213929999911,,,,,,,101.43213929999911,101.43213929999911,102.41958440000053,102.4238177999996,102.4238177999996,102.4238177999996,102.4238177999996,103.8842141999994,x,1.4548787000003358,None,,,,,,,,PT_en,001,2025-03-12_16h42.01.684,MainFlow,2024.2.4,129.98154261990106,2025-03-12 16h42.10.280881 +0700,
2,3,66,word/worden0663.png,35,35,0,x,0.6064378999999462,None,0,35,35,35,103.89065429999937,,,,,,,103.89065429999937,103.89065429999937,104.87767460000032,104.88187499999913,104.88187499999913,104.88187499999913,104.88187499999913,105.49513610000031,x,0.6064378999999462,None,,,,,,,,PT_en,001,2025-03-12_16h42.01.684,MainFlow,2024.2.4,129.98154261990106,2025-03-12 16h42.10.280881 +0700,
2,1,6,word/worden0061.png,36,36,0,z,0.7389320000002044,None,0,36,36,36,105.50167979999969,,,,,,,105.50167979999969,105.50167979999969,106.48881360000087,106.49331669999992,106.49331669999992,106.49331669999992,106.49331669999992,107.23798139999963,z,0.7389320000002044,None,,,,,,,,PT_en,001,2025-03-12_16h42.01.684,MainFlow,2024.2.4,129.98154261990106,2025-03-12 16h42.10.280881 +0700,
2,1,42,word/worden0421.png,37,37,0,z,1.300312600000325,None,0,37,37,37,107.24427800000012,,,,,,,107.24427800000012,107.24427800000012,108.23209769999994,108.23654510000051,108.23654510000051,108.23654510000051,108.23654510000051,109.54384290000053,z,1.300312600000325,None,,,,,,,,PT_en,001,2025-03-12_16h42.01.684,MainFlow,2024.2.4,129.98154261990106,2025-03-12 16h42.10.280881 +0700,
2,3,41,word/worden0413.png,38,38,0,x,2.0189071000004333,None,0,38,38,38,109.54978950000077,,,,,,,109.54978950000077,109.54978950000077,110.53731589999916,110.54164569999921,110.54164569999921,110.54164569999921,110.54164569999921,112.56405380000069,x,2.0189071000004333,None,,,,,,,,PT_en,001,2025-03-12_16h42.01.684,MainFlow,2024.2.4,129.98154261990106,2025-03-12 16h42.10.280881 +0700,
2,2,23,word/worden0232.png,39,39,0,x,0.8212237000007008,None,0,39,39,39,112.57053029999952,,,,,,,112.57053029999952,112.57053029999952,113.55949209999926,113.56388979999974,113.56388979999974,113.56388979999974,113.56388979999974,114.39146249999976,x,0.8212237000007008,None,,,,,,,,PT_en,001,2025-03-12_16h42.01.684,MainFlow,2024.2.4,129.98154261990106,2025-03-12 16h42.10.280881 +0700,
2,3,96,word/worden0963.png,40,40,0,x,1.6807795000004262,None,0,40,40,40,114.39783299999908,,,,,,,114.39783299999908,114.39783299999908,115.3852040999991,115.38933859999997,115.38933859999997,115.38933859999997,115.38933859999997,117.07183970000006,x,1.6807795000004262,None,,,,,,,,PT_en,001,2025-03-12_16h42.01.684,MainFlow,2024.2.4,129.98154261990106,2025-03-12 16h42.10.280881 +0700,
2,1,61,word/worden0611.png,41,41,0,z,2.9059931000010693,None,0,41,41,41,117.07818520000001,,,,,,,117.07818520000001,117.07818520000001,118.06751149999945,118.07178009999916,118.07178009999916,118.07178009999916,118.07178009999916,120.98270989999946,z,2.9059931000010693,None,,,,,,,,PT_en,001,2025-03-12_16h42.01.684,MainFlow,2024.2.4,129.98154261990106,2025-03-12 16h42.10.280881 +0700,
2,3,9,word/worden0093.png,42,42,0,z,4.4083006999990175,None,0,42,42,42,120.98918740000045,,,,,,,120.98918740000045,120.98918740000045,121.97762809999949,121.98206629999913,121.98206629999913,121.98206629999913,121.98206629999913,126.3931076000008,z,4.4083006999990175,None,,,,,,,,PT_en,001,2025-03-12_16h42.01.684,MainFlow,2024.2.4,129.98154261990106,2025-03-12 16h42.10.280881 +0700,
2,3,63,word/worden0633.png,43,43,0,x,1.4442782000005536,None,0,43,43,43,126.3995429000006,,,,,,,126.3995429000006,126.3995429000006,127.38678649999929,127.39093420000063,127.39093420000063,127.39093420000063,127.39093420000063,128.8370176999997,x,1.4442782000005536,None,,,,,,,,PT_en,001,2025-03-12_16h42.01.684,MainFlow,2024.2.4,129.98154261990106,2025-03-12 16h42.10.280881 +0700,
2,3,50,word/worden0503.png,44,44,0,x,1.4938308000000688,None,0,44,44,44,128.84354469999926,,,,,,,128.84354469999926,128.84354469999926,129.83134710000013,129.8356600999996,129.8356600999996,129.8356600999996,129.8356600999996,131.33068409999942,x,1.4938308000000688,None,,,,,,,,PT_en,001,2025-03-12_16h42.01.684,MainFlow,2024.2.4,129.98154261990106,2025-03-12 16h42.10.280881 +0700,
2,2,27,word/worden0272.png,45,45,0,x,1.0426791999998386,None,0,45,45,45,131.33696249999957,,,,,,,131.33696249999957,131.33696249999957,132.3258279999991,132.33007440000074,132.33007440000074,132.33007440000074,132.33007440000074,133.37969469999916,x,1.0426791999998386,None,,,,,,,,PT_en,001,2025-03-12_16h42.01.684,MainFlow,2024.2.4,129.98154261990106,2025-03-12 16h42.10.280881 +0700,
2,2,61,word/worden0612.png,46,46,0,x,0.8282543000004807,None,0,46,46,46,133.38616759999968,,,,,,,133.38616759999968,133.38616759999968,134.37492650000058,134.37929629999962,134.37929629999962,134.37929629999962,134.37929629999962,135.21405009999944,x,0.8282543000004807,None,,,,,,,,PT_en,001,2025-03-12_16h42.01.684,MainFlow,2024.2.4,129.98154261990106,2025-03-12 16h42.10.280881 +0700,
2,3,7,word/worden0073.png,47,47,0,x,0.8248949999997421,None,0,47,47,47,135.22045819999948,,,,,,,135.22045819999948,135.22045819999948,136.20796970000083,136.2120883000007,136.2120883000007,136.2120883000007,136.2120883000007,137.0404170999991,x,0.8248949999997421,None,,,,,,,,PT_en,001,2025-03-12_16h42.01.684,MainFlow,2024.2.4,129.98154261990106,2025-03-12 16h42.10.280881 +0700,
2,3,23,word/worden0233.png,48,48,0,x,0.6330466999988857,None,0,48,48,48,137.04684389999966,,,,,,,137.04684389999966,137.04684389999966,138.03414990000056,138.0382953999997,138.0382953999997,138.0382953999997,138.0382953999997,138.67220590000034,x,0.6330466999988857,None,,,,,,,,PT_en,001,2025-03-12_16h42.01.684,MainFlow,2024.2.4,129.98154261990106,2025-03-12 16h42.10.280881 +0700,
2,1,95,word/worden0951.png,49,49,0,z,1.2389505999999528,None,0,49,49,49,138.67838459999984,,,,,,,138.67838459999984,138.67838459999984,139.66739249999955,139.67163190000065,139.67163190000065,139.67163190000065,139.67163190000065,140.91600130000006,z,1.2389505999999528,None,,,,,,,,PT_en,001,2025-03-12_16h42.01.684,MainFlow,2024.2.4,129.98154261990106,2025-03-12 16h42.10.280881 +0700,
2,3,42,word/worden0423.png,50,50,0,x,0.6461591000006592,None,0,50,50,50,140.92244460000074,,,,,,,140.92244460000074,140.92244460000074,141.90934369999923,141.91361929999948,141.91361929999948,141.91361929999948,141.91361929999948,142.56189409999934,x,0.6461591000006592,None,,,,,,,,PT_en,001,2025-03-12_16h42.01.684,MainFlow,2024.2.4,129.98154261990106,2025-03-12 16h42.10.280881 +0700,
2,1,30,word/worden0301.png,51,51,0,z,0.5535598000005848,None,0,51,51,51,142.56837059999998,,,,,,,142.56837059999998,142.56837059999998,143.5570430000007,143.56136490000063,143.56136490000063,143.56136490000063,143.56136490000063,144.1181173999994,z,0.5535598000005848,None,,,,,,,,PT_en,001,2025-03-12_16h42.01.684,MainFlow,2024.2.4,129.98154261990106,2025-03-12 16h42.10.280881 +0700,
2,3,87,word/worden0873.png,52,52,0,x,0.7257962000003317,None,0,52,52,52,144.12453690000075,,,,,,,144.12453690000075,144.12453690000075,145.11307400000078,145.11746420000054,145.11746420000054,145.11746420000054,145.11746420000054,145.84758470000088,x,0.7257962000003317,None,,,,,,,,PT_en,001,2025-03-12_16h42.01.684,MainFlow,2024.2.4,129.98154261990106,2025-03-12 16h42.10.280881 +0700,
2,2,6,word/worden0062.png,53,53,0,x,0.5457687999987684,None,0,53,53,53,145.85412800000086,,,,,,,145.85412800000086,145.85412800000086,146.84373140000025,146.8477984000001,146.8477984000001,146.8477984000001,146.8477984000001,147.3984691000005,x,0.5457687999987684,None,,,,,,,,PT_en,001,2025-03-12_16h42.01.684,MainFlow,2024.2.4,129.98154261990106,2025-03-12 16h42.10.280881 +0700,
2,2,68,word/worden0682.png,54,54,0,x,0.626666699999987,None,0,54,54,54,147.40399409999918,,,,,,,147.40399409999918,147.40399409999918,148.39114700000027,148.39526040000055,148.39526040000055,148.39526040000055,148.39526040000055,149.02276419999907,x,0.626666699999987,None,,,,,,,,PT_en,001,2025-03-12_16h42.01.684,MainFlow,2024.2.4,129.98154261990106,2025-03-12 16h42.10.280881 +0700,
2,3,1,word/worden0013.png,55,55,0,z,2.3508642999986478,None,0,55,55,55,149.02899179999986,,,,,,,149.02899179999986,149.02899179999986,150.01608739999938,150.02014939999935,150.02014939999935,150.02014939999935,150.02014939999935,152.3768455999998,z,2.3508642999986478,None,,,,,,,,PT_en,001,2025-03-12_16h42.01.684,MainFlow,2024.2.4,129.98154261990106,2025-03-12 16h42.10.280881 +0700,
2,2,94,word/worden0942.png,56,56,0,x,1.1331128000001627,None,0,56,56,56,152.38324529999954,,,,,,,152.38324529999954,152.38324529999954,153.37226320000082,153.3767298999992,153.3767298999992,153.3767298999992,153.3767298999992,154.51691690000007,x,1.1331128000001627,None,,,,,,,,PT_en,001,2025-03-12_16h42.01.684,MainFlow,2024.2.4,129.98154261990106,2025-03-12 16h42.10.280881 +0700,
2,3,82,word/worden0823.png,57,57,0,x,0.98445940000056,None,0,57,57,57,154.52332670000033,,,,,,,154.52332670000033,154.52332670000033,155.51119010000002,155.51547159999973,155.51547159999973,155.51547159999973,155.51547159999973,156.50287989999924,x,0.98445940000056,None,,,,,,,,PT_en,001,2025-03-12_16h42.01.684,MainFlow,2024.2.4,129.98154261990106,2025-03-12 16h42.10.280881 +0700,
2,1,89,word/worden0891.png,58,58,0,z,1.6192824999998265,None,0,58,58,58,156.5092593999998,,,,,,,156.5092593999998,156.5092593999998,157.4968759000003,157.50080569999955,157.50080569999955,157.50080569999955,157.50080569999955,159.12095360000058,z,1.6192824999998265,None,,,,,,,,PT_en,001,2025-03-12_16h42.01.684,MainFlow,2024.2.4,129.98154261990106,2025-03-12 16h42.10.280881 +0700,
2,1,31,word/worden0311.png,59,59,0,z,0.9220487000002322,None,0,59,59,59,159.12730480000027,,,,,,,159.12730480000027,159.12730480000027,160.11627919999955,160.12066389999927,160.12066389999927,160.12066389999927,160.12066389999927,161.04541670000071,z,0.9220487000002322,None,,,,,,,,PT_en,001,2025-03-12_16h42.01.684,MainFlow,2024.2.4,129.98154261990106,2025-03-12 16h42.10.280881 +0700,
2,2,51,word/worden0512.png,60,60,0,x,0.5841132999994443,None,0,60,60,60,161.0519062000003,,,,,,,161.0519062000003,161.0519062000003,162.03894760000003,162.04323959999965,162.04323959999965,162.04323959999965,162.04323959999965,162.62868320000052,x,0.5841132999994443,None,,,,,,,,PT_en,001,2025-03-12_16h42.01.684,MainFlow,2024.2.4,129.98154261990106,2025-03-12 16h42.10.280881 +0700,
2,3,44,word/worden0443.png,61,61,0,x,0.7756027000014001,None,0,61,61,61,162.63513170000078,,,,,,,162.63513170000078,162.63513170000078,163.6221827999998,163.62629879999986,163.62629879999986,163.62629879999986,163.62629879999986,164.4066156000008,x,0.7756027000014001,None,,,,,,,,PT_en,001,2025-03-12_16h42.01.684,MainFlow,2024.2.4,129.98154261990106,2025-03-12 16h42.10.280881 +0700,
2,1,1,word/worden0011.png,62,62,0,z,0.6059033000001364,None,0,62,62,62,164.4130698000008,,,,,,,164.4130698000008,164.4130698000008,165.40090880000025,165.4051500000005,165.4051500000005,165.4051500000005,165.4051500000005,166.0176991999997,z,0.6059033000001364,None,,,,,,,,PT_en,001,2025-03-12_16h42.01.684,MainFlow,2024.2.4,129.98154261990106,2025-03-12 16h42.10.280881 +0700,
2,1,96,word/worden0961.png,63,63,0,z,0.5731878000005963,None,0,63,63,63,166.0241901999998,,,,,,,166.0241901999998,166.0241901999998,167.01348250000046,167.01783989999967,167.01783989999967,167.01783989999967,167.01783989999967,167.5957613999999,z,0.5731878000005963,None,,,,,,,,PT_en,001,2025-03-12_16h42.01.684,MainFlow,2024.2.4,129.98154261990106,2025-03-12 16h42.10.280881 +0700,
2,1,11,word/worden0111.png,64,64,0,z,4.190583900001002,None,0,64,64,64,167.60159659999954,,,,,,,167.60159659999954,167.60159659999954,168.58942240000033,168.59348239999963,168.59348239999963,168.59348239999963,168.59348239999963,172.7900695999997,z,4.190583900001002,None,,,,,,,,PT_en,001,2025-03-12_16h42.01.684,MainFlow,2024.2.4,129.98154261990106,2025-03-12 16h42.10.280881 +0700,
2,3,70,word/worden0703.png,65,65,0,x,1.1138859000002412,None,0,65,65,65,172.79623080000056,,,,,,,172.79623080000056,172.79623080000056,173.78520019999996,173.78968650000024,173.78968650000024,173.78968650000024,173.78968650000024,174.90896219999922,x,1.1138859000002412,None,,,,,,,,PT_en,001,2025-03-12_16h42.01.684,MainFlow,2024.2.4,129.98154261990106,2025-03-12 16h42.10.280881 +0700,
2,3,71,word/worden0713.png,66,66,0,x,0.6061317000003328,None,0,66,66,66,174.91538070000024,,,,,,,174.91538070000024,174.91538070000024,175.9026260999999,175.90666880000026,175.90666880000026,175.90666880000026,175.90666880000026,176.5199620000003,x,0.6061317000003328,None,,,,,,,,PT_en,001,2025-03-12_16h42.01.684,MainFlow,2024.2.4,129.98154261990106,2025-03-12 16h42.10.280881 +0700,
2,1,68,word/worden0681.png,67,67,0,z,1.6645103999999264,None,0,67,67,67,176.52644750000036,,,,,,,176.52644750000036,176.52644750000036,177.51390410000022,177.51806559999932,177.51806559999932,177.51806559999932,177.51806559999932,179.18689099999938,z,1.6645103999999264,None,,,,,,,,PT_en,001,2025-03-12_16h42.01.684,MainFlow,2024.2.4,129.98154261990106,2025-03-12 16h42.10.280881 +0700,
2,2,88,word/worden0882.png,68,68,0,x,0.9420910999997432,None,0,68,68,68,179.19329769999968,,,,,,,179.19329769999968,179.19329769999968,180.18090610000036,180.18549510000048,180.18549510000048,180.18549510000048,180.18549510000048,181.1309068999999,x,0.9420910999997432,None,,,,,,,,PT_en,001,2025-03-12_16h42.01.684,MainFlow,2024.2.4,129.98154261990106,2025-03-12 16h42.10.280881 +0700,
2,2,50,word/worden0502.png,69,69,0,x,1.5272464000008767,None,0,69,69,69,181.1373676000003,,,,,,,181.1373676000003,181.1373676000003,182.12471209999967,182.12868870000057,182.12868870000057,182.12868870000057,182.12868870000057,183.6586743000007,x,1.5272464000008767,None,,,,,,,,PT_en,001,2025-03-12_16h42.01.684,MainFlow,2024.2.4,129.98154261990106,2025-03-12 16h42.10.280881 +0700,
2,3,93,word/worden0933.png,70,70,0,x,0.8133806999994704,None,0,70,70,70,183.6651024999992,,,,,,,183.6651024999992,183.6651024999992,184.65278799999942,184.65683720000015,184.65683720000015,184.65683720000015,184.65683720000015,185.47117509999953,x,0.8133806999994704,None,,,,,,,,PT_en,001,2025-03-12_16h42.01.684,MainFlow,2024.2.4,129.98154261990106,2025-03-12 16h42.10.280881 +0700,
2,1,63,word/worden0631.png,71,71,0,z,0.5761806000009528,None,0,71,71,71,185.47756599999957,,,,,,,185.47756599999957,185.47756599999957,186.46494370000073,186.46903550000025,186.46903550000025,186.46903550000025,186.46903550000025,187.0472850999995,z,0.5761806000009528,None,,,,,,,,PT_en,001,2025-03-12_16h42.01.684,MainFlow,2024.2.4,129.98154261990106,2025-03-12 16h42.10.280881 +0700,
2,2,7,word/worden0072.png,72,72,0,x,0.5428342000013799,None,0,72,72,72,187.0537320000003,,,,,,,187.0537320000003,187.0537320000003,188.04171339999994,188.04588159999912,188.04588159999912,188.04588159999912,188.04588159999912,188.59601909999947,x,0.5428342000013799,None,,,,,,,,PT_en,001,2025-03-12_16h42.01.684,MainFlow,2024.2.4,129.98154261990106,2025-03-12 16h42.10.280881 +0700,
2,2,64,word/worden0642.png,73,73,0,x,0.5349607999996806,None,0,73,73,73,188.6025009999994,,,,,,,188.6025009999994,188.6025009999994,189.58995920000052,189.59403700000075,189.59403700000075,189.59403700000075,189.59403700000075,190.13086769999973,x,0.5349607999996806,None,,,,,,,,PT_en,001,2025-03-12_16h42.01.684,MainFlow,2024.2.4,129.98154261990106,2025-03-12 16h42.10.280881 +0700,
2,1,24,word/worden0241.png,74,74,0,z,0.8589676999999938,None,0,74,74,74,190.1374221999995,,,,,,,190.1374221999995,190.1374221999995,191.12460979999923,191.12867929999993,191.12867929999993,191.12867929999993,191.12867929999993,191.99167699999998,z,0.8589676999999938,None,,,,,,,,PT_en,001,2025-03-12_16h42.01.684,MainFlow,2024.2.4,129.98154261990106,2025-03-12 16h42.10.280881 +0700,
2,2,1,word/worden0012.png,75,75,0,x,0.5162813999995706,None,0,75,75,75,191.99811840000075,,,,,,,191.99811840000075,191.99811840000075,192.98661750000065,192.99096380000083,192.99096380000083,192.99096380000083,192.99096380000083,193.51326560000052,x,0.5162813999995706,None,,,,,,,,PT_en,001,2025-03-12_16h42.01.684,MainFlow,2024.2.4,129.98154261990106,2025-03-12 16h42.10.280881 +0700,
2,1,46,word/worden0461.png,76,76,0,z,0.6283385999995517,None,0,76,76,76,193.5196221999995,,,,,,,193.5196221999995,193.5196221999995,194.50856270000077,194.51280939999924,194.51280939999924,194.51280939999924,194.51280939999924,195.14590689999932,z,0.6283385999995517,None,,,,,,,,PT_en,001,2025-03-12_16h42.01.684,MainFlow,2024.2.4,129.98154261990106,2025-03-12 16h42.10.280881 +0700,
2,3,52,word/worden0523.png,77,77,0,x,0.6467088999997941,None,0,77,77,77,195.15229329999966,,,,,,,195.15229329999966,195.15229329999966,196.1399564000003,196.14432640000086,196.14432640000086,196.14432640000086,196.14432640000086,196.79187660000025,x,0.6467088999997941,None,,,,,,,,PT_en,001,2025-03-12_16h42.01.684,MainFlow,2024.2.4,129.98154261990106,2025-03-12 16h42.10.280881 +0700,
2,2,31,word/worden0312.png,78,78,0,x,0.6304360000012821,None,0,78,78,78,196.79819270000007,,,,,,,196.79819270000007,196.79819270000007,197.78533649999918,197.78957330000048,197.78957330000048,197.78957330000048,197.78957330000048,198.4236562999995,x,0.6304360000012821,None,,,,,,,,PT_en,001,2025-03-12_16h42.01.684,MainFlow,2024.2.4,129.98154261990106,2025-03-12 16h42.10.280881 +0700,
2,2,95,word/worden0952.png,79,79,0,x,0.904175399999076,None,0,79,79,79,198.4301959000004,,,,,,,198.4301959000004,198.4301959000004,199.4169524000008,199.4209549999996,199.4209549999996,199.4209549999996,199.4209549999996,200.32650439999998,x,0.904175399999076,None,,,,,,,,PT_en,001,2025-03-12_16h42.01.684,MainFlow,2024.2.4,129.98154261990106,2025-03-12 16h42.10.280881 +0700,
2,1,93,word/worden0931.png,80,80,0,z,0.7655921000005037,None,0,80,80,80,200.33288270000048,,,,,,,200.33288270000048,200.33288270000048,201.32032660000004,201.32476730000053,201.32476730000053,201.32476730000053,201.32476730000053,202.0969540999995,z,0.7655921000005037,None,,,,,,,,PT_en,001,2025-03-12_16h42.01.684,MainFlow,2024.2.4,129.98154261990106,2025-03-12 16h42.10.280881 +0700,
2,1,71,word/worden0711.png,81,81,0,z,0.7219655999997485,None,0,81,81,81,202.10344579999946,,,,,,,202.10344579999946,202.10344579999946,203.09244249999938,203.09682629999952,203.09682629999952,203.09682629999952,203.09682629999952,203.82021449999957,z,0.7219655999997485,None,,,,,,,,PT_en,001,2025-03-12_16h42.01.684,MainFlow,2024.2.4,129.98154261990106,2025-03-12 16h42.10.280881 +0700,
2,1,48,word/worden0481.png,82,82,0,z,0.8032820999997057,None,0,82,82,82,203.8265807000007,,,,,,,203.8265807000007,203.8265807000007,204.8152656000002,204.8195581,204.8195581,204.8195581,204.8195581,205.62643910000043,z,0.8032820999997057,None,,,,,,,,PT_en,001,2025-03-12_16h42.01.684,MainFlow,2024.2.4,129.98154261990106,2025-03-12 16h42.10.280881 +0700,
2,1,94,word/worden0941.png,83,83,0,z,0.9178658999990148,None,0,83,83,83,205.63286169999992,,,,,,,205.63286169999992,205.63286169999992,206.6205291999995,206.62465990000055,206.62465990000055,206.62465990000055,206.62465990000055,207.54321150000033,z,0.9178658999990148,None,,,,,,,,PT_en,001,2025-03-12_16h42.01.684,MainFlow,2024.2.4,129.98154261990106,2025-03-12 16h42.10.280881 +0700,
2,3,68,word/worden0683.png,84,84,0,x,2.733533399999942,None,0,84,84,84,207.54943309999908,,,,,,,207.54943309999908,207.54943309999908,208.53823639999973,208.54257479999978,208.54257479999978,208.54257479999978,208.54257479999978,211.28009569999995,x,2.733533399999942,None,,,,,,,,PT_en,001,2025-03-12_16h42.01.684,MainFlow,2024.2.4,129.98154261990106,2025-03-12 16h42.10.280881 +0700,
2,2,66,word/worden0662.png,85,85,0,x,0.8437544999997044,None,0,85,85,85,211.28615010000067,,,,,,,211.28615010000067,211.28615010000067,212.27346840000064,212.2775170999994,212.2775170999994,212.2775170999994,212.2775170999994,213.12694519999968,x,0.8437544999997044,None,,,,,,,,PT_en,001,2025-03-12_16h42.01.684,MainFlow,2024.2.4,129.98154261990106,2025-03-12 16h42.10.280881 +0700,
2,3,95,word/worden0953.png,86,86,0,x,3.399333999999726,None,0,86,86,86,213.1335715999994,,,,,,,213.1335715999994,213.1335715999994,214.12158330000057,214.12582959999963,214.12582959999963,214.12582959999963,214.12582959999963,217.52741779999997,x,3.399333999999726,None,,,,,,,,PT_en,001,2025-03-12_16h42.01.684,MainFlow,2024.2.4,129.98154261990106,2025-03-12 16h42.10.280881 +0700,
2,3,30,word/worden0303.png,87,87,0,x,0.9965035999994143,None,0,87,87,87,217.5332782000005,,,,,,,217.5332782000005,217.5332782000005,218.5226789999997,218.52708730000086,218.52708730000086,218.52708730000086,218.52708730000086,219.52844039999945,x,0.9965035999994143,None,,,,,,,,PT_en,001,2025-03-12_16h42.01.684,MainFlow,2024.2.4,129.98154261990106,2025-03-12 16h42.10.280881 +0700,
2,3,22,word/worden0223.png,88,88,0,x,0.6250104999999166,None,0,88,88,88,219.53467450000062,,,,,,,219.53467450000062,219.53467450000062,220.52364210000087,220.52801399999953,220.52801399999953,220.52801399999953,220.52801399999953,221.15424429999985,x,0.6250104999999166,None,,,,,,,,PT_en,001,2025-03-12_16h42.01.684,MainFlow,2024.2.4,129.98154261990106,2025-03-12 16h42.10.280881 +0700,
2,1,75,word/worden0751.png,89,89,0,z,1.3044121000002633,None,0,89,89,89,221.1606216,,,,,,,221.1606216,221.1606216,222.14858119999917,222.15312319999975,222.15312319999975,222.15312319999975,222.15312319999975,223.4597049999993,z,1.3044121000002633,None,,,,,,,,PT_en,001,2025-03-12_16h42.01.684,MainFlow,2024.2.4,129.98154261990106,2025-03-12 16h42.10.280881 +0700,
2,1,64,word/worden0641.png,90,90,0,z,0.6098648000006506,None,0,90,90,90,223.46644519999973,,,,,,,223.46644519999973,223.46644519999973,224.4533295000001,224.45742170000085,224.45742170000085,224.45742170000085,224.45742170000085,225.07071429999996,z,0.6098648000006506,None,,,,,,,,PT_en,001,2025-03-12_16h42.01.684,MainFlow,2024.2.4,129.98154261990106,2025-03-12 16h42.10.280881 +0700,
2,1,27,word/worden0271.png,91,91,0,z,0.7812008999990212,None,0,91,91,91,225.07720010000048,,,,,,,225.07720010000048,225.07720010000048,226.0659452,226.0703697000008,226.0703697000008,226.0703697000008,226.0703697000008,226.8562349999993,z,0.7812008999990212,None,,,,,,,,PT_en,001,2025-03-12_16h42.01.684,MainFlow,2024.2.4,129.98154261990106,2025-03-12 16h42.10.280881 +0700,
2,2,24,word/worden0242.png,92,92,0,x,0.7556241999991471,None,0,92,92,92,226.86270709999917,,,,,,,226.86270709999917,226.86270709999917,227.85065829999985,227.85499329999948,227.85499329999948,227.85499329999948,227.85499329999948,228.6132576,x,0.7556241999991471,None,,,,,,,,PT_en,001,2025-03-12_16h42.01.684,MainFlow,2024.2.4,129.98154261990106,2025-03-12 16h42.10.280881 +0700,
2,1,87,word/worden0871.png,93,93,0,z,0.7586568999995507,None,0,93,93,93,228.6198000000004,,,,,,,228.6198000000004,228.6198000000004,229.60687750000034,229.61104460000024,229.61104460000024,229.61104460000024,229.61104460000024,230.3767843000005,z,0.7586568999995507,None,,,,,,,,PT_en,001,2025-03-12_16h42.01.684,MainFlow,2024.2.4,129.98154261990106,2025-03-12 16h42.10.280881 +0700,
2,1,7,word/worden0071.png,94,94,0,z,0.638724700000239,None,0,94,94,94,230.38340310000058,,,,,,,230.38340310000058,230.38340310000058,231.3713831999994,231.37579779999942,231.37579779999942,231.37579779999942,231.37579779999942,232.01602450000064,z,0.638724700000239,None,,,,,,,,PT_en,001,2025-03-12_16h42.01.684,MainFlow,2024.2.4,129.98154261990106,2025-03-12 16h42.10.280881 +0700,
2,2,9,word/worden0092.png,95,95,0,x,0.9124450999988767,None,0,95,95,95,232.02243180000005,,,,,,,232.02243180000005,232.02243180000005,233.00934339999912,233.01356060000035,233.01356060000035,233.01356060000035,233.01356060000035,233.93258570000035,x,0.9124450999988767,None,,,,,,,,PT_en,001,2025-03-12_16h42.01.684,MainFlow,2024.2.4,129.98154261990106,2025-03-12 16h42.10.280881 +0700,
2,1,44,word/worden0441.png,96,96,0,z,0.6413824999999633,None,0,96,96,96,233.93907450000006,,,,,,,233.93907450000006,233.93907450000006,234.9277732999999,234.9319534999995,234.9319534999995,234.9319534999995,234.9319534999995,235.57894789999955,z,0.6413824999999633,None,,,,,,,,PT_en,001,2025-03-12_16h42.01.684,MainFlow,2024.2.4,129.98154261990106,2025-03-12 16h42.10.280881 +0700,
2,2,10,word/worden0102.png,97,97,0,x,0.6229540000003908,None,0,97,97,97,235.5853537999992,,,,,,,235.5853537999992,235.5853537999992,236.57528900000034,236.5795679999992,236.5795679999992,236.5795679999992,236.5795679999992,237.20586150000054,x,0.6229540000003908,None,,,,,,,,PT_en,001,2025-03-12_16h42.01.684,MainFlow,2024.2.4,129.98154261990106,2025-03-12 16h42.10.280881 +0700,
2,2,82,word/worden0822.png,98,98,0,x,1.491165600000386,None,0,98,98,98,237.21228320000046,,,,,,,237.21228320000046,237.21228320000046,238.20149409999976,238.20568660000026,238.20568660000026,238.20568660000026,238.20568660000026,239.6996808999993,x,1.491165600000386,None,,,,,,,,PT_en,001,2025-03-12_16h42.01.684,MainFlow,2024.2.4,129.98154261990106,2025-03-12 16h42.10.280881 +0700,
2,3,89,word/worden0893.png,99,99,0,x,0.6895313000004535,None,0,99,99,99,239.70621070000016,,,,,,,239.70621070000016,239.70621070000016,240.6959339999994,240.7016696999999,240.7016696999999,240.7016696999999,240.7016696999999,241.39759480000066,x,0.6895313000004535,None,,,,,,,,PT_en,001,2025-03-12_16h42.01.684,MainFlow,2024.2.4,129.98154261990106,2025-03-12 16h42.10.280881 +0700,
2,2,44,word/worden0442.png,100,100,0,x,0.578213599999799,None,0,100,100,100,241.40355610000006,,,,,,,241.40355610000006,241.40355610000006,242.3925421999993,242.39669409999988,242.39669409999988,242.39669409999988,242.39669409999988,242.98121170000013,x,0.578213599999799,None,,,,,,,,PT_en,001,2025-03-12_16h42.01.684,MainFlow,2024.2.4,129.98154261990106,2025-03-12 16h42.10.280881 +0700,
2,1,52,word/worden0521.png,101,101,0,z,1.1726355999999214,None,0,101,101,101,242.98753620000025,,,,,,,242.98753620000025,242.98753620000025,243.9777742999995,243.9819081000005,243.9819081000005,243.9819081000005,243.9819081000005,245.15694430000076,z,1.1726355999999214,None,,,,,,,,PT_en,001,2025-03-12_16h42.01.684,MainFlow,2024.2.4,129.98154261990106,2025-03-12 16h42.10.280881 +0700,
2,1,51,word/worden0511.png,102,102,0,z,0.7986559000000852,None,0,102,102,102,245.16339589999916,,,,,,,245.16339589999916,245.16339589999916,246.1512932000005,246.1553311000007,246.1553311000007,246.1553311000007,246.1553311000007,246.95540029999938,z,0.7986559000000852,None,,,,,,,,PT_en,001,2025-03-12_16h42.01.684,MainFlow,2024.2.4,129.98154261990106,2025-03-12 16h42.10.280881 +0700,
2,3,51,word/worden0513.png,103,103,0,x,1.025463199999649,None,0,103,103,103,246.96190489999935,,,,,,,246.96190489999935,246.96190489999935,247.9490724999996,247.95326209999985,247.95326209999985,247.95326209999985,247.95326209999985,248.98324580000008,x,1.025463199999649,None,,,,,,,,PT_en,001,2025-03-12_16h42.01.684,MainFlow,2024.2.4,129.98154261990106,2025-03-12 16h42.10.280881 +0700,
2,2,8,word/worden0082.png,104,104,0,x,0.5605639000004885,None,0,104,104,104,248.9896243000003,,,,,,,248.9896243000003,248.9896243000003,249.97837679999975,249.9824136999996,249.9824136999996,249.9824136999996,249.9824136999996,250.54623549999997,x,0.5605639000004885,None,,,,,,,,PT_en,001,2025-03-12_16h42.01.684,MainFlow,2024.2.4,129.98154261990106,2025-03-12 16h42.10.280881 +0700,
2,2,3,word/worden0032.png,105,105,0,x,2.256640999999945,None,0,105,105,105,250.55269229999976,,,,,,,250.55269229999976,250.55269229999976,251.54043190000084,251.54472859999987,251.54472859999987,251.54472859999987,251.54472859999987,253.80336530000022,x,2.256640999999945,None,,,,,,,,PT_en,001,2025-03-12_16h42.01.684,MainFlow,2024.2.4,129.98154261990106,2025-03-12 16h42.10.280881 +0700,
2,3,3,word/worden0033.png,106,106,0,x,1.0444980000011128,None,0,106,106,106,253.8092328999992,,,,,,,253.8092328999992,253.8092328999992,254.79774050000015,254.80205410000053,254.80205410000053,254.80205410000053,254.80205410000053,255.85195910000039,x,1.0444980000011128,None,,,,,,,,PT_en,001,2025-03-12_16h42.01.684,MainFlow,2024.2.4,129.98154261990106,2025-03-12 16h42.10.280881 +0700,
2,3,64,word/worden0643.png,107,107,0,x,1.7686020000001008,None,0,107,107,107,255.85807569999997,,,,,,,255.85807569999997,255.85807569999997,256.8471320999997,256.8513867999991,256.8513867999991,256.8513867999991,256.8513867999991,258.6236160999997,x,1.7686020000001008,None,,,,,,,,PT_en,001,2025-03-12_16h42.01.684,MainFlow,2024.2.4,129.98154261990106,2025-03-12 16h42.10.280881 +0700,
2,3,26,word/worden0263.png,108,108,0,x,0.7583438999990904,None,0,108,108,108,258.62998660000085,,,,,,,258.62998660000085,258.62998660000085,259.61735679999947,259.6214834000002,259.6214834000002,259.6214834000002,259.6214834000002,260.3804880000007,x,0.7583438999990904,None,,,,,,,,PT_en,001,2025-03-12_16h42.01.684,MainFlow,2024.2.4,129.98154261990106,2025-03-12 16h42.10.280881 +0700,
2,2,96,word/worden0962.png,109,109,0,x,0.7062443000013445,None,0,109,109,109,260.3866734000003,,,,,,,260.3866734000003,260.3866734000003,261.37444139999934,261.37890890000017,261.37890890000017,261.37890890000017,261.37890890000017,262.0884908000007,x,0.7062443000013445,None,,,,,,,,PT_en,001,2025-03-12_16h42.01.684,MainFlow,2024.2.4,129.98154261990106,2025-03-12 16h42.10.280881 +0700,
2,1,22,word/worden0221.png,110,110,0,z,0.49785370000063267,None,0,110,110,110,262.0949528000001,,,,,,,262.0949528000001,262.0949528000001,263.08214000000044,263.0860704000006,263.0860704000006,263.0860704000006,263.0860704000006,263.58843159999924,z,0.49785370000063267,None,,,,,,,,PT_en,001,2025-03-12_16h42.01.684,MainFlow,2024.2.4,129.98154261990106,2025-03-12 16h42.10.280881 +0700,
2,2,22,word/worden0222.png,111,111,0,x,0.5135733999995864,None,0,111,111,111,263.5948406999996,,,,,,,263.5948406999996,263.5948406999996,264.58219780000036,264.58616149999943,264.58616149999943,264.58616149999943,264.58616149999943,265.10229489999983,x,0.5135733999995864,None,,,,,,,,PT_en,001,2025-03-12_16h42.01.684,MainFlow,2024.2.4,129.98154261990106,2025-03-12 16h42.10.280881 +0700,
2,2,26,word/worden0262.png,112,112,0,x,0.46004029999858176,None,0,112,112,112,265.1087055000007,,,,,,,265.1087055000007,265.1087055000007,266.0981843999998,266.1023872000005,266.1023872000005,266.1023872000005,266.1023872000005,266.5690348999997,x,0.46004029999858176,None,,,,,,,,PT_en,001,2025-03-12_16h42.01.684,MainFlow,2024.2.4,129.98154261990106,2025-03-12 16h42.10.280881 +0700,
2,3,48,word/worden0483.png,113,113,0,x,0.8202620000010938,None,0,113,113,113,266.57542099999955,,,,,,,266.57542099999955,266.57542099999955,267.5626644999993,267.5666301000001,267.5666301000001,267.5666301000001,267.5666301000001,268.38835140000083,x,0.8202620000010938,None,,,,,,,,PT_en,001,2025-03-12_16h42.01.684,MainFlow,2024.2.4,129.98154261990106,2025-03-12 16h42.10.280881 +0700,
2,2,87,word/worden0872.png,114,114,0,x,0.7355759000001854,None,0,114,114,114,268.3948266999996,,,,,,,268.3948266999996,268.3948266999996,269.3818778999994,269.38598079999974,269.38598079999974,269.38598079999974,269.38598079999974,270.1245925000003,x,0.7355759000001854,None,,,,,,,,PT_en,001,2025-03-12_16h42.01.684,MainFlow,2024.2.4,129.98154261990106,2025-03-12 16h42.10.280881 +0700,
2,1,10,word/worden0101.png,115,115,0,z,0.5480745999993815,None,0,115,115,115,270.13101070000084,,,,,,,270.13101070000084,270.13101070000084,271.1184639000003,271.1228570000003,271.1228570000003,271.1228570000003,271.1228570000003,271.6727824999998,z,0.5480745999993815,None,,,,,,,,PT_en,001,2025-03-12_16h42.01.684,MainFlow,2024.2.4,129.98154261990106,2025-03-12 16h42.10.280881 +0700,
2,3,8,word/worden0083.png,116,116,0,x,0.5181346999997913,None,0,116,116,116,271.67926439999974,,,,,,,271.67926439999974,271.67926439999974,272.6683434000006,272.6726170999991,272.6726170999991,272.6726170999991,272.6726170999991,273.1947574000005,x,0.5181346999997913,None,,,,,,,,PT_en,001,2025-03-12_16h42.01.684,MainFlow,2024.2.4,129.98154261990106,2025-03-12 16h42.10.280881 +0700,
2,3,94,word/worden0943.png,117,117,0,x,0.5404049000007944,None,0,117,117,117,273.20101389999945,,,,,,,273.20101389999945,273.20101389999945,274.1902838999995,274.19455799999923,274.19455799999923,274.19455799999923,274.19455799999923,274.73742520000087,x,0.5404049000007944,None,,,,,,,,PT_en,001,2025-03-12_16h42.01.684,MainFlow,2024.2.4,129.98154261990106,2025-03-12 16h42.10.280881 +0700,
2,2,11,word/worden0112.png,118,118,0,x,0.4382858999997552,None,0,118,118,118,274.7439310000009,,,,,,,274.7439310000009,274.7439310000009,275.7316086999999,275.7359207999998,275.7359207999998,275.7359207999998,275.7359207999998,276.1750909000002,x,0.4382858999997552,None,,,,,,,,PT_en,001,2025-03-12_16h42.01.684,MainFlow,2024.2.4,129.98154261990106,2025-03-12 16h42.10.280881 +0700,
2,3,24,word/worden0243.png,119,119,0,x,0.6798971999996866,None,0,119,119,119,276.18148350000047,,,,,,,276.18148350000047,276.18148350000047,277.1705356000002,277.1746206000007,277.1746206000007,277.1746206000007,277.1746206000007,277.85651730000063,x,0.6798971999996866,None,,,,,,,,PT_en,001,2025-03-12_16h42.01.684,MainFlow,2024.2.4,129.98154261990106,2025-03-12 16h42.10.280881 +0700,
,,,,,,,,,,,,,,,,,,,,,,,,,,,,,,,,277.85661230000005,277.86283750000075,277.86283750000075,279.25918470000033,space,1.3908307000001514,None,PT_en,001,2025-03-12_16h42.01.684,MainFlow,2024.2.4,129.98154261990106,2025-03-12 16h42.10.280881 +0700,
