lang,stimuli,imageid,worddir,thisN,thisTrialN,thisRepN,key_resp.keys,key_resp.rt,key_resp.duration,trials.thisRepN,trials.thisTrialN,trials.thisN,trials.thisIndex,thisRow.t,notes,tutorial.started,tutorial.stopped,key_instruct.keys,key_instruct.rt,key_instruct.duration,instructblank.started,cross1.started,letterselect.started,imageword.started,text_2.started,cross2.started,key_resp.started,letterselect.stopped,trials.key_resp.keys,trials.key_resp.rt,trials.key_resp.duration,ending.started,text_3.started,ending_key.started,ending.stopped,ending_key.keys,ending_key.rt,ending_key.duration,participant,session,date,expName,psychopyVersion,frameRate,expStart,
,,,,,,,,,,,,,,,,0.002632100000482751,7.808388100000229,space,7.788015199999791,None,,,,,,,,,,,,,,,,,,,PT_th,001,2025-03-12_16h37.41.996,MainFlow,2024.2.4,129.99472221523428,2025-03-12 16h37.51.328369 +0700,
1,3,89,word/wordth0893.png,0,0,0,x,0.8133120999991661,None,0,0,0,0,7.833300399999644,,,,,,,7.833300399999644,7.833300399999644,8.80555749999985,8.81008490000022,8.81008490000022,8.81008490000022,8.81008490000022,9.63037550000081,x,0.8133120999991661,None,,,,,,,,PT_th,001,2025-03-12_16h37.41.996,MainFlow,2024.2.4,129.99472221523428,2025-03-12 16h37.51.328369 +0700,
1,3,28,word/wordth0283.png,1,1,0,x,0.6997966999988421,None,0,1,1,1,9.636892599999555,,,,,,,9.636892599999555,9.636892599999555,10.624340799999118,10.62847099999999,10.62847099999999,10.62847099999999,10.62847099999999,11.331698100000722,x,0.6997966999988421,None,,,,,,,,PT_th,001,2025-03-12_16h37.41.996,MainFlow,2024.2.4,129.99472221523428,2025-03-12 16h37.51.328369 +0700,
1,2,87,word/wordth0872.png,2,2,0,x,0.952696799999103,None,0,2,2,2,11.338155400000687,,,,,,,11.338155400000687,11.338155400000687,12.325278700000126,12.3295092999997,12.3295092999997,12.3295092999997,12.3295092999997,13.28303269999924,x,0.952696799999103,None,,,,,,,,PT_th,001,2025-03-12_16h37.41.996,MainFlow,2024.2.4,129.99472221523428,2025-03-12 16h37.51.328369 +0700,
1,2,68,word/wordth0682.png,3,3,0,x,0.9545328999993217,None,0,3,3,3,13.28923020000002,,,,,,,13.28923020000002,13.28923020000002,14.278544099999635,14.282910699999775,14.282910699999775,14.282910699999775,14.282910699999775,15.242420799999309,x,0.9545328999993217,None,,,,,,,,PT_th,001,2025-03-12_16h37.41.996,MainFlow,2024.2.4,129.99472221523428,2025-03-12 16h37.51.328369 +0700,
1,2,11,word/wordth0112.png,4,4,0,x,0.6206285999996908,None,0,4,4,4,15.249066500000481,,,,,,,15.249066500000481,15.249066500000481,16.235909000000902,16.240032400000928,16.240032400000928,16.240032400000928,16.240032400000928,16.867476800000077,x,0.6206285999996908,None,,,,,,,,PT_th,001,2025-03-12_16h37.41.996,MainFlow,2024.2.4,129.99472221523428,2025-03-12 16h37.51.328369 +0700,
1,3,11,word/wordth0113.png,5,5,0,x,0.9101511000008031,None,0,5,5,5,16.873911900000166,,,,,,,16.873911900000166,16.873911900000166,17.861150099999577,17.86520030000065,17.86520030000065,17.86520030000065,17.86520030000065,18.777232000000367,x,0.9101511000008031,None,,,,,,,,PT_th,001,2025-03-12_16h37.41.996,MainFlow,2024.2.4,129.99472221523428,2025-03-12 16h37.51.328369 +0700,
1,2,71,word/wordth0712.png,6,6,0,x,1.3338449000002583,None,0,6,6,6,18.78353849999985,,,,,,,18.78353849999985,18.78353849999985,19.770652200000768,19.774814000000333,19.774814000000333,19.774814000000333,19.774814000000333,21.11044740000034,x,1.3338449000002583,None,,,,,,,,PT_th,001,2025-03-12_16h37.41.996,MainFlow,2024.2.4,129.99472221523428,2025-03-12 16h37.51.328369 +0700,
1,3,44,word/wordth0443.png,7,7,0,x,0.8536884000004648,None,0,7,7,7,21.117234299999836,,,,,,,21.117234299999836,21.117234299999836,22.105355899999267,22.109569000000192,22.109569000000192,22.109569000000192,22.109569000000192,22.96505260000049,x,0.8536884000004648,None,,,,,,,,PT_th,001,2025-03-12_16h37.41.996,MainFlow,2024.2.4,129.99472221523428,2025-03-12 16h37.51.328369 +0700,
1,2,82,word/wordth0822.png,8,8,0,x,0.6888061000008747,None,0,8,8,8,22.971516400000837,,,,,,,22.971516400000837,22.971516400000837,23.95987629999945,23.96426050000082,23.96426050000082,23.96426050000082,23.96426050000082,24.660165600000255,x,0.6888061000008747,None,,,,,,,,PT_th,001,2025-03-12_16h37.41.996,MainFlow,2024.2.4,129.99472221523428,2025-03-12 16h37.51.328369 +0700,
1,2,28,word/wordth0282.png,9,9,0,x,2.0086741000013717,None,0,9,9,9,24.665990800000145,,,,,,,24.665990800000145,24.665990800000145,25.653842199999417,25.658167100000355,25.658167100000355,25.658167100000355,25.658167100000355,27.673931100000118,x,2.0086741000013717,None,,,,,,,,PT_th,001,2025-03-12_16h37.41.996,MainFlow,2024.2.4,129.99472221523428,2025-03-12 16h37.51.328369 +0700,
1,1,23,word/wordth0231.png,10,10,0,z,1.171954999999798,None,0,10,10,10,27.679770099999587,,,,,,,27.679770099999587,27.679770099999587,28.66963240000041,28.674057399999583,28.674057399999583,28.674057399999583,28.674057399999583,29.849045499999193,z,1.171954999999798,None,,,,,,,,PT_th,001,2025-03-12_16h37.41.996,MainFlow,2024.2.4,129.99472221523428,2025-03-12 16h37.51.328369 +0700,
1,2,63,word/wordth0632.png,11,11,0,x,1.8267974999998842,None,0,11,11,11,29.855505999999878,,,,,,,29.855505999999878,29.855505999999878,30.84402190000037,30.848333300000377,30.848333300000377,30.848333300000377,30.848333300000377,32.67603400000007,x,1.8267974999998842,None,,,,,,,,PT_th,001,2025-03-12_16h37.41.996,MainFlow,2024.2.4,129.99472221523428,2025-03-12 16h37.51.328369 +0700,
1,3,71,word/wordth0713.png,12,12,0,x,0.9984772999996494,None,0,12,12,12,32.682310599999255,,,,,,,32.682310599999255,32.682310599999255,33.67037589999927,33.674848000000566,33.674848000000566,33.674848000000566,33.674848000000566,34.67614619999949,x,0.9984772999996494,None,,,,,,,,PT_th,001,2025-03-12_16h37.41.996,MainFlow,2024.2.4,129.99472221523428,2025-03-12 16h37.51.328369 +0700,
1,1,1,word/wordth0011.png,13,13,0,z,3.0676975999995193,None,0,13,13,13,34.682697300000655,,,,,,,34.682697300000655,34.682697300000655,35.670111800000086,35.67481439999938,35.67481439999938,35.67481439999938,35.67481439999938,38.745408200000384,z,3.0676975999995193,None,,,,,,,,PT_th,001,2025-03-12_16h37.41.996,MainFlow,2024.2.4,129.99472221523428,2025-03-12 16h37.51.328369 +0700,
1,3,41,word/wordth0413.png,14,14,0,x,0.6927402000001166,None,0,14,14,14,38.7517368000008,,,,,,,38.7517368000008,38.7517368000008,39.739530200000445,39.74394829999983,39.74394829999983,39.74394829999983,39.74394829999983,40.439539299999524,x,0.6927402000001166,None,,,,,,,,PT_th,001,2025-03-12_16h37.41.996,MainFlow,2024.2.4,129.99472221523428,2025-03-12 16h37.51.328369 +0700,
1,2,64,word/wordth0642.png,15,15,0,x,1.0168843999999808,None,0,15,15,15,40.44606630000089,,,,,,,40.44606630000089,40.44606630000089,41.43466670000089,41.43879679999918,41.43879679999918,41.43879679999918,41.43879679999918,42.46104600000035,x,1.0168843999999808,None,,,,,,,,PT_th,001,2025-03-12_16h37.41.996,MainFlow,2024.2.4,129.99472221523428,2025-03-12 16h37.51.328369 +0700,
1,3,6,word/wordth0063.png,16,16,0,x,0.9497895999993489,None,0,16,16,16,42.46756289999939,,,,,,,42.46756289999939,42.46756289999939,43.455175600000075,43.45983779999915,43.45983779999915,43.45983779999915,43.45983779999915,44.41212590000032,x,0.9497895999993489,None,,,,,,,,PT_th,001,2025-03-12_16h37.41.996,MainFlow,2024.2.4,129.99472221523428,2025-03-12 16h37.51.328369 +0700,
1,2,31,word/wordth0312.png,17,17,0,x,0.5876869000003353,None,0,17,17,17,44.41863670000021,,,,,,,44.41863670000021,44.41863670000021,45.40752450000036,45.41192149999915,45.41192149999915,45.41192149999915,45.41192149999915,46.003228699999454,x,0.5876869000003353,None,,,,,,,,PT_th,001,2025-03-12_16h37.41.996,MainFlow,2024.2.4,129.99472221523428,2025-03-12 16h37.51.328369 +0700,
1,1,46,word/wordth0461.png,18,18,0,z,0.7660774000014499,None,0,18,18,18,46.00967859999946,,,,,,,46.00967859999946,46.00967859999946,46.9980429999996,47.0023512000007,47.0023512000007,47.0023512000007,47.0023512000007,47.77439140000024,z,0.7660774000014499,None,,,,,,,,PT_th,001,2025-03-12_16h37.41.996,MainFlow,2024.2.4,129.99472221523428,2025-03-12 16h37.51.328369 +0700,
1,3,51,word/wordth0513.png,19,19,0,x,0.5805651000009675,None,0,19,19,19,47.780935099999624,,,,,,,47.780935099999624,47.780935099999624,48.768343199999435,48.77275030000055,48.77275030000055,48.77275030000055,48.77275030000055,49.35756650000076,x,0.5805651000009675,None,,,,,,,,PT_th,001,2025-03-12_16h37.41.996,MainFlow,2024.2.4,129.99472221523428,2025-03-12 16h37.51.328369 +0700,
1,2,26,word/wordth0262.png,20,20,0,x,0.9519524999996065,None,0,20,20,20,49.36405630000081,,,,,,,49.36405630000081,49.36405630000081,50.35134520000065,50.355556599999545,50.355556599999545,50.355556599999545,50.355556599999545,51.30921750000016,x,0.9519524999996065,None,,,,,,,,PT_th,001,2025-03-12_16h37.41.996,MainFlow,2024.2.4,129.99472221523428,2025-03-12 16h37.51.328369 +0700,
1,2,96,word/wordth0962.png,21,21,0,x,0.8843089000001783,None,0,21,21,21,51.31559220000054,,,,,,,51.31559220000054,51.31559220000054,52.303590299999996,52.30800339999951,52.30800339999951,52.30800339999951,52.30800339999951,53.19793600000048,x,0.8843089000001783,None,,,,,,,,PT_th,001,2025-03-12_16h37.41.996,MainFlow,2024.2.4,129.99472221523428,2025-03-12 16h37.51.328369 +0700,
1,1,31,word/wordth0311.png,22,22,0,z,0.7536502000002656,None,0,22,22,22,53.20439869999973,,,,,,,53.20439869999973,53.20439869999973,54.19301900000028,54.19719350000014,54.19719350000014,54.19719350000014,54.19719350000014,54.95522030000029,z,0.7536502000002656,None,,,,,,,,PT_th,001,2025-03-12_16h37.41.996,MainFlow,2024.2.4,129.99472221523428,2025-03-12 16h37.51.328369 +0700,
1,2,94,word/wordth0942.png,23,23,0,x,1.09729999999945,None,0,23,23,23,54.9617502000001,,,,,,,54.9617502000001,54.9617502000001,55.94903449999947,55.953103899999405,55.953103899999405,55.953103899999405,55.953103899999405,57.052516800000376,x,1.09729999999945,None,,,,,,,,PT_th,001,2025-03-12_16h37.41.996,MainFlow,2024.2.4,129.99472221523428,2025-03-12 16h37.51.328369 +0700,
1,3,48,word/wordth0483.png,24,24,0,x,0.8279872000002797,None,0,24,24,24,57.05874530000074,,,,,,,57.05874530000074,57.05874530000074,58.04823650000071,58.05254729999979,58.05254729999979,58.05254729999979,58.05254729999979,58.886902199999895,x,0.8279872000002797,None,,,,,,,,PT_th,001,2025-03-12_16h37.41.996,MainFlow,2024.2.4,129.99472221523428,2025-03-12 16h37.51.328369 +0700,
1,3,24,word/wordth0243.png,25,25,0,x,0.518596300000354,None,0,25,25,25,58.893352299999606,,,,,,,58.893352299999606,58.893352299999606,59.88184410000031,59.88630320000084,59.88630320000084,59.88630320000084,59.88630320000084,60.40842049999992,x,0.518596300000354,None,,,,,,,,PT_th,001,2025-03-12_16h37.41.996,MainFlow,2024.2.4,129.99472221523428,2025-03-12 16h37.51.328369 +0700,
1,1,87,word/wordth0871.png,26,26,0,z,1.187113699999827,None,0,26,26,26,60.41484180000043,,,,,,,60.41484180000043,60.41484180000043,61.40280639999946,61.40695810000034,61.40695810000034,61.40695810000034,61.40695810000034,62.59572189999926,z,1.187113699999827,None,,,,,,,,PT_th,001,2025-03-12_16h37.41.996,MainFlow,2024.2.4,129.99472221523428,2025-03-12 16h37.51.328369 +0700,
1,2,51,word/wordth0512.png,27,27,0,z,0.6531826999998884,None,0,27,27,27,62.602167900000495,,,,,,,62.602167900000495,62.602167900000495,63.59071109999968,63.59501830000045,63.59501830000045,63.59501830000045,63.59501830000045,64.24909499999922,z,0.6531826999998884,None,,,,,,,,PT_th,001,2025-03-12_16h37.41.996,MainFlow,2024.2.4,129.99472221523428,2025-03-12 16h37.51.328369 +0700,
1,3,27,word/wordth0273.png,28,28,0,x,1.3302054999985558,None,0,28,28,28,64.25545579999925,,,,,,,64.25545579999925,64.25545579999925,65.24280460000045,65.24678549999953,65.24678549999953,65.24678549999953,65.24678549999953,66.58252449999964,x,1.3302054999985558,None,,,,,,,,PT_th,001,2025-03-12_16h37.41.996,MainFlow,2024.2.4,129.99472221523428,2025-03-12 16h37.51.328369 +0700,
1,2,22,word/wordth0222.png,29,29,0,x,3.0784262999986822,None,0,29,29,29,66.58874300000025,,,,,,,66.58874300000025,66.58874300000025,67.5778451999995,67.58224820000032,67.58224820000032,67.58224820000032,67.58224820000032,70.66714339999999,x,3.0784262999986822,None,,,,,,,,PT_th,001,2025-03-12_16h37.41.996,MainFlow,2024.2.4,129.99472221523428,2025-03-12 16h37.51.328369 +0700,
1,3,23,word/wordth0233.png,30,30,0,x,1.0571082000005845,None,0,30,30,30,70.67338170000039,,,,,,,70.67338170000039,70.67338170000039,71.66359919999923,71.6681095999993,71.6681095999993,71.6681095999993,71.6681095999993,72.73202230000061,x,1.0571082000005845,None,,,,,,,,PT_th,001,2025-03-12_16h37.41.996,MainFlow,2024.2.4,129.99472221523428,2025-03-12 16h37.51.328369 +0700,
1,1,48,word/wordth0481.png,31,31,0,z,1.3491090999996231,None,0,31,31,31,72.73844129999998,,,,,,,72.73844129999998,72.73844129999998,73.7261942999994,73.73043660000076,73.73043660000076,73.73043660000076,73.73043660000076,75.08576709999943,z,1.3491090999996231,None,,,,,,,,PT_th,001,2025-03-12_16h37.41.996,MainFlow,2024.2.4,129.99472221523428,2025-03-12 16h37.51.328369 +0700,
1,2,10,word/wordth0102.png,32,32,0,x,1.0360538999993878,None,0,32,32,32,75.09227099999953,,,,,,,75.09227099999953,75.09227099999953,76.07971130000078,76.08373240000037,76.08373240000037,76.08373240000037,76.08373240000037,77.12063130000024,x,1.0360538999993878,None,,,,,,,,PT_th,001,2025-03-12_16h37.41.996,MainFlow,2024.2.4,129.99472221523428,2025-03-12 16h37.51.328369 +0700,
1,3,64,word/wordth0643.png,33,33,0,x,0.9686553000010463,None,0,33,33,33,77.12700369999948,,,,,,,77.12700369999948,77.12700369999948,78.11602900000071,78.12038070000017,78.12038070000017,78.12038070000017,78.12038070000017,79.09415869999975,x,0.9686553000010463,None,,,,,,,,PT_th,001,2025-03-12_16h37.41.996,MainFlow,2024.2.4,129.99472221523428,2025-03-12 16h37.51.328369 +0700,
1,3,22,word/wordth0223.png,34,34,0,x,0.580083700000614,None,0,34,34,34,79.10051150000072,,,,,,,79.10051150000072,79.10051150000072,80.08787880000091,80.09239700000035,80.09239700000035,80.09239700000035,80.09239700000035,80.67718129999957,x,0.580083700000614,None,,,,,,,,PT_th,001,2025-03-12_16h37.41.996,MainFlow,2024.2.4,129.99472221523428,2025-03-12 16h37.51.328369 +0700,
1,1,42,word/wordth0421.png,35,35,0,z,0.7661731000007421,None,0,35,35,35,80.68365740000081,,,,,,,80.68365740000081,80.68365740000081,81.67216990000088,81.67654779999975,81.67654779999975,81.67654779999975,81.67654779999975,82.4486508000009,z,0.7661731000007421,None,,,,,,,,PT_th,001,2025-03-12_16h37.41.996,MainFlow,2024.2.4,129.99472221523428,2025-03-12 16h37.51.328369 +0700,
1,2,1,word/wordth0012.png,36,36,0,x,1.442259000001286,None,0,36,36,36,82.45509959999981,,,,,,,82.45509959999981,82.45509959999981,83.44543689999955,83.4497023999993,83.4497023999993,83.4497023999993,83.4497023999993,84.89548619999914,x,1.442259000001286,None,,,,,,,,PT_th,001,2025-03-12_16h37.41.996,MainFlow,2024.2.4,129.99472221523428,2025-03-12 16h37.51.328369 +0700,
1,1,82,word/wordth0821.png,37,37,0,z,0.6579295999999886,None,0,37,37,37,84.9018159999996,,,,,,,84.9018159999996,84.9018159999996,85.88918249999915,85.89319350000005,85.89319350000005,85.89319350000005,85.89319350000005,86.55530410000028,z,0.6579295999999886,None,,,,,,,,PT_th,001,2025-03-12_16h37.41.996,MainFlow,2024.2.4,129.99472221523428,2025-03-12 16h37.51.328369 +0700,
1,2,3,word/wordth0032.png,38,38,0,x,0.5212902999992366,None,0,38,38,38,86.56175450000046,,,,,,,86.56175450000046,86.56175450000046,87.5502219000009,87.55448260000048,87.55448260000048,87.55448260000048,87.55448260000048,88.07663599999978,x,0.5212902999992366,None,,,,,,,,PT_th,001,2025-03-12_16h37.41.996,MainFlow,2024.2.4,129.99472221523428,2025-03-12 16h37.51.328369 +0700,
1,1,68,word/wordth0681.png,39,39,0,z,0.5339511000001949,None,0,39,39,39,88.08293980000053,,,,,,,88.08293980000053,88.08293980000053,89.0714981000001,89.07586059999994,89.07586059999994,89.07586059999994,89.07586059999994,89.6116204000009,z,0.5339511000001949,None,,,,,,,,PT_th,001,2025-03-12_16h37.41.996,MainFlow,2024.2.4,129.99472221523428,2025-03-12 16h37.51.328369 +0700,
1,1,66,word/wordth0661.png,40,40,0,z,0.570259600001009,None,0,40,40,40,89.61798679999993,,,,,,,89.61798679999993,89.61798679999993,90.60574810000071,90.60994779999965,90.60994779999965,90.60994779999965,90.60994779999965,91.18123919999925,z,0.570259600001009,None,,,,,,,,PT_th,001,2025-03-12_16h37.41.996,MainFlow,2024.2.4,129.99472221523428,2025-03-12 16h37.51.328369 +0700,
1,2,42,word/wordth0422.png,41,41,0,x,0.6398595999999088,None,0,41,41,41,91.18766510000023,,,,,,,91.18766510000023,91.18766510000023,92.17547960000047,92.1794676999998,92.1794676999998,92.1794676999998,92.1794676999998,92.82039029999942,x,0.6398595999999088,None,,,,,,,,PT_th,001,2025-03-12_16h37.41.996,MainFlow,2024.2.4,129.99472221523428,2025-03-12 16h37.51.328369 +0700,
1,3,93,word/wordth0933.png,42,42,0,x,0.8206777000013972,None,0,42,42,42,92.82672740000089,,,,,,,92.82672740000089,92.82672740000089,93.81407509999917,93.81798560000061,93.81798560000061,93.81798560000061,93.81798560000061,94.6397780999996,x,0.8206777000013972,None,,,,,,,,PT_th,001,2025-03-12_16h37.41.996,MainFlow,2024.2.4,129.99472221523428,2025-03-12 16h37.51.328369 +0700,
1,1,71,word/wordth0711.png,43,43,0,z,0.6583243999994011,None,0,43,43,43,94.64559539999937,,,,,,,94.64559539999937,94.64559539999937,95.63559250000071,95.63988590000008,95.63988590000008,95.63988590000008,95.63988590000008,96.30098299999918,z,0.6583243999994011,None,,,,,,,,PT_th,001,2025-03-12_16h37.41.996,MainFlow,2024.2.4,129.99472221523428,2025-03-12 16h37.51.328369 +0700,
1,1,64,word/wordth0641.png,44,44,0,z,0.6330808000002435,None,0,44,44,44,96.3074159000007,,,,,,,96.3074159000007,96.3074159000007,97.29479840000022,97.2988148000004,97.2988148000004,97.2988148000004,97.2988148000004,97.93299330000082,z,0.6330808000002435,None,,,,,,,,PT_th,001,2025-03-12_16h37.41.996,MainFlow,2024.2.4,129.99472221523428,2025-03-12 16h37.51.328369 +0700,
1,1,88,word/wordth0881.png,45,45,0,z,0.6136545999997907,None,0,45,45,45,97.93889789999957,,,,,,,97.93889789999957,97.93889789999957,98.92857489999915,98.93297999999959,98.93297999999959,98.93297999999959,98.93297999999959,99.55218199999945,z,0.6136545999997907,None,,,,,,,,PT_th,001,2025-03-12_16h37.41.996,MainFlow,2024.2.4,129.99472221523428,2025-03-12 16h37.51.328369 +0700,
1,3,87,word/wordth0873.png,46,46,0,x,0.696141100001114,None,0,46,46,46,99.55870750000031,,,,,,,99.55870750000031,99.55870750000031,100.54609039999923,100.55016989999967,100.55016989999967,100.55016989999967,100.55016989999967,101.25355259999924,x,0.696141100001114,None,,,,,,,,PT_th,001,2025-03-12_16h37.41.996,MainFlow,2024.2.4,129.99472221523428,2025-03-12 16h37.51.328369 +0700,
1,3,3,word/wordth0033.png,47,47,0,x,0.6780817000017123,None,0,47,47,47,101.2595796000005,,,,,,,101.2595796000005,101.2595796000005,102.24872230000074,102.25293489999967,102.25293489999967,102.25293489999967,102.25293489999967,102.9348886000007,x,0.6780817000017123,None,,,,,,,,PT_th,001,2025-03-12_16h37.41.996,MainFlow,2024.2.4,129.99472221523428,2025-03-12 16h37.51.328369 +0700,
1,2,95,word/wordth0952.png,48,48,0,x,0.5122258999999758,None,0,48,48,48,102.94124340000053,,,,,,,102.94124340000053,102.94124340000053,103.92865209999945,103.93279480000092,103.93279480000092,103.93279480000092,103.93279480000092,104.44863719999921,x,0.5122258999999758,None,,,,,,,,PT_th,001,2025-03-12_16h37.41.996,MainFlow,2024.2.4,129.99472221523428,2025-03-12 16h37.51.328369 +0700,
1,1,11,word/wordth0111.png,49,49,0,z,0.49858380000114266,None,0,49,49,49,104.45504880000044,,,,,,,104.45504880000044,104.45504880000044,105.44237450000037,105.44642449999992,105.44642449999992,105.44642449999992,105.44642449999992,105.9484966,z,0.49858380000114266,None,,,,,,,,PT_th,001,2025-03-12_16h37.41.996,MainFlow,2024.2.4,129.99472221523428,2025-03-12 16h37.51.328369 +0700,
1,1,10,word/wordth0101.png,50,50,0,z,0.5802785999985645,None,0,50,50,50,105.95497500000056,,,,,,,105.95497500000056,105.95497500000056,106.94421409999995,106.94856599999912,106.94856599999912,106.94856599999912,106.94856599999912,107.53334490000088,z,0.5802785999985645,None,,,,,,,,PT_th,001,2025-03-12_16h37.41.996,MainFlow,2024.2.4,129.99472221523428,2025-03-12 16h37.51.328369 +0700,
1,1,44,word/wordth0441.png,51,51,0,z,0.4673683000000892,None,0,51,51,51,107.53978129999996,,,,,,,107.53978129999996,107.53978129999996,108.52724710000075,108.53141759999926,108.53141759999926,108.53141759999926,108.53141759999926,109.00524729999961,z,0.4673683000000892,None,,,,,,,,PT_th,001,2025-03-12_16h37.41.996,MainFlow,2024.2.4,129.99472221523428,2025-03-12 16h37.51.328369 +0700,
1,1,96,word/wordth0961.png,52,52,0,x,0.6054395000010118,None,0,52,52,52,109.01176470000064,,,,,,,109.01176470000064,109.01176470000064,109.99919480000062,110.00332549999985,110.00332549999985,110.00332549999985,110.00332549999985,110.60954130000027,x,0.6054395000010118,None,,,,,,,,PT_th,001,2025-03-12_16h37.41.996,MainFlow,2024.2.4,129.99472221523428,2025-03-12 16h37.51.328369 +0700,
1,2,27,word/wordth0272.png,53,53,0,x,0.6647393000002921,None,0,53,53,53,110.61581599999954,,,,,,,110.61581599999954,110.61581599999954,111.60331330000008,111.60737049999989,111.60737049999989,111.60737049999989,111.60737049999989,112.27584749999914,x,0.6647393000002921,None,,,,,,,,PT_th,001,2025-03-12_16h37.41.996,MainFlow,2024.2.4,129.99472221523428,2025-03-12 16h37.51.328369 +0700,
1,1,63,word/wordth0631.png,54,54,0,z,0.632170099999712,None,0,54,54,54,112.28219569999965,,,,,,,112.28219569999965,112.28219569999965,113.27069850000044,113.27535180000086,113.27535180000086,113.27535180000086,113.27535180000086,113.90851769999972,z,0.632170099999712,None,,,,,,,,PT_th,001,2025-03-12_16h37.41.996,MainFlow,2024.2.4,129.99472221523428,2025-03-12 16h37.51.328369 +0700,
1,3,66,word/wordth0663.png,55,55,0,x,0.8734829000004538,None,0,55,55,55,113.9149522000007,,,,,,,113.9149522000007,113.9149522000007,114.90338030000021,114.90761890000067,114.90761890000067,114.90761890000067,114.90761890000067,115.78407630000038,x,0.8734829000004538,None,,,,,,,,PT_th,001,2025-03-12_16h37.41.996,MainFlow,2024.2.4,129.99472221523428,2025-03-12 16h37.51.328369 +0700,
1,3,88,word/wordth0883.png,56,56,0,x,0.7767481999999291,None,0,56,56,56,115.79052299999967,,,,,,,115.79052299999967,115.79052299999967,116.77934529999948,116.78363569999965,116.78363569999965,116.78363569999965,116.78363569999965,117.56271299999935,x,0.7767481999999291,None,,,,,,,,PT_th,001,2025-03-12_16h37.41.996,MainFlow,2024.2.4,129.99472221523428,2025-03-12 16h37.51.328369 +0700,
1,3,96,word/wordth0963.png,57,57,0,x,0.46458960000018124,None,0,57,57,57,117.56911840000066,,,,,,,117.56911840000066,117.56911840000066,118.55655230000048,118.56050610000057,118.56050610000057,118.56050610000057,118.56050610000057,119.02762020000046,x,0.46458960000018124,None,,,,,,,,PT_th,001,2025-03-12_16h37.41.996,MainFlow,2024.2.4,129.99472221523428,2025-03-12 16h37.51.328369 +0700,
1,2,52,word/wordth0522.png,58,58,0,x,0.4234231999998883,None,0,58,58,58,119.03408239999953,,,,,,,119.03408239999953,119.03408239999953,120.02171230000022,120.02567959999942,120.02567959999942,120.02567959999942,120.02567959999942,120.45128929999919,x,0.4234231999998883,None,,,,,,,,PT_th,001,2025-03-12_16h37.41.996,MainFlow,2024.2.4,129.99472221523428,2025-03-12 16h37.51.328369 +0700,
1,3,50,word/wordth0503.png,59,59,0,x,0.5094516999997722,None,0,59,59,59,120.45778989999963,,,,,,,120.45778989999963,120.45778989999963,121.44562460000088,121.44998160000068,121.44998160000068,121.44998160000068,121.44998160000068,121.96509420000075,x,0.5094516999997722,None,,,,,,,,PT_th,001,2025-03-12_16h37.41.996,MainFlow,2024.2.4,129.99472221523428,2025-03-12 16h37.51.328369 +0700,
1,3,61,word/wordth0613.png,60,60,0,x,0.6435005000003002,None,0,60,60,60,121.97160299999996,,,,,,,121.97160299999996,121.97160299999996,122.96033610000086,122.96486849999928,122.96486849999928,122.96486849999928,122.96486849999928,123.61207400000058,x,0.6435005000003002,None,,,,,,,,PT_th,001,2025-03-12_16h37.41.996,MainFlow,2024.2.4,129.99472221523428,2025-03-12 16h37.51.328369 +0700,
1,2,46,word/wordth0462.png,61,61,0,x,0.5619267000001855,None,0,61,61,61,123.61856919999991,,,,,,,123.61856919999991,123.61856919999991,124.60733609999988,124.61150869999983,124.61150869999983,124.61150869999983,124.61150869999983,125.17517410000073,x,0.5619267000001855,None,,,,,,,,PT_th,001,2025-03-12_16h37.41.996,MainFlow,2024.2.4,129.99472221523428,2025-03-12 16h37.51.328369 +0700,
1,1,61,word/wordth0611.png,62,62,0,z,0.5844954999993206,None,0,62,62,62,125.18165989999943,,,,,,,125.18165989999943,125.18165989999943,126.16937470000084,126.17345319999913,126.17345319999913,126.17345319999913,126.17345319999913,126.75859200000014,z,0.5844954999993206,None,,,,,,,,PT_th,001,2025-03-12_16h37.41.996,MainFlow,2024.2.4,129.99472221523428,2025-03-12 16h37.51.328369 +0700,
1,1,24,word/wordth0241.png,63,63,0,z,1.2373371000012412,None,0,63,63,63,126.76489410000067,,,,,,,126.76489410000067,126.76489410000067,127.75450359999923,127.75905480000074,127.75905480000074,127.75905480000074,127.75905480000074,129.00339519999943,z,1.2373371000012412,None,,,,,,,,PT_th,001,2025-03-12_16h37.41.996,MainFlow,2024.2.4,129.99472221523428,2025-03-12 16h37.51.328369 +0700,
1,2,89,word/wordth0892.png,64,64,0,x,0.7296230000010837,None,0,64,64,64,129.00986639999974,,,,,,,129.00986639999974,129.00986639999974,129.99735449999935,130.00135520000003,130.00135520000003,130.00135520000003,130.00135520000003,130.73269679999976,x,0.7296230000010837,None,,,,,,,,PT_th,001,2025-03-12_16h37.41.996,MainFlow,2024.2.4,129.99472221523428,2025-03-12 16h37.51.328369 +0700,
1,1,30,word/wordth0301.png,65,65,0,z,0.6204842000006465,None,0,65,65,65,130.7391031999996,,,,,,,130.7391031999996,130.7391031999996,131.7260898000004,131.7298914999992,131.7298914999992,131.7298914999992,131.7298914999992,132.3576950000006,z,0.6204842000006465,None,,,,,,,,PT_th,001,2025-03-12_16h37.41.996,MainFlow,2024.2.4,129.99472221523428,2025-03-12 16h37.51.328369 +0700,
1,1,93,word/wordth0931.png,66,66,0,z,0.8742746999996598,None,0,66,66,66,132.3635661999997,,,,,,,132.3635661999997,132.3635661999997,133.35125379999954,133.3556435999999,133.3556435999999,133.3556435999999,133.3556435999999,134.23240839999926,z,0.8742746999996598,None,,,,,,,,PT_th,001,2025-03-12_16h37.41.996,MainFlow,2024.2.4,129.99472221523428,2025-03-12 16h37.51.328369 +0700,
1,1,50,word/wordth0501.png,67,67,0,x,1.1111237000004621,None,0,67,67,67,134.2388735000004,,,,,,,134.2388735000004,134.2388735000004,135.22792909999953,135.23245010000028,135.23245010000028,135.23245010000028,135.23245010000028,136.34473249999974,x,1.1111237000004621,None,,,,,,,,PT_th,001,2025-03-12_16h37.41.996,MainFlow,2024.2.4,129.99472221523428,2025-03-12 16h37.51.328369 +0700,
1,3,82,word/wordth0823.png,68,68,0,x,0.8199726000002556,None,0,68,68,68,136.3510683000004,,,,,,,136.3510683000004,136.3510683000004,137.3394702000005,137.34382259999984,137.34382259999984,137.34382259999984,137.34382259999984,138.1649035999999,x,0.8199726000002556,None,,,,,,,,PT_th,001,2025-03-12_16h37.41.996,MainFlow,2024.2.4,129.99472221523428,2025-03-12 16h37.51.328369 +0700,
1,1,27,word/wordth0271.png,69,69,0,z,0.5244659999989381,None,0,69,69,69,138.17064670000036,,,,,,,138.17064670000036,138.17064670000036,139.15897600000062,139.1633951999993,139.1633951999993,139.1633951999993,139.1633951999993,139.69216269999924,z,0.5244659999989381,None,,,,,,,,PT_th,001,2025-03-12_16h37.41.996,MainFlow,2024.2.4,129.99472221523428,2025-03-12 16h37.51.328369 +0700,
1,3,52,word/wordth0523.png,70,70,0,x,0.5595553000002838,None,0,70,70,70,139.6986340000003,,,,,,,139.6986340000003,139.6986340000003,140.68828810000014,140.69275689999995,140.69275689999995,140.69275689999995,140.69275689999995,141.25675509999928,x,0.5595553000002838,None,,,,,,,,PT_th,001,2025-03-12_16h37.41.996,MainFlow,2024.2.4,129.99472221523428,2025-03-12 16h37.51.328369 +0700,
1,1,22,word/wordth0221.png,71,71,0,z,0.5361685999996553,None,0,71,71,71,141.26317980000022,,,,,,,141.26317980000022,141.26317980000022,142.25050630000078,142.25499169999966,142.25499169999966,142.25499169999966,142.25499169999966,142.7980150000003,z,0.5361685999996553,None,,,,,,,,PT_th,001,2025-03-12_16h37.41.996,MainFlow,2024.2.4,129.99472221523428,2025-03-12 16h37.51.328369 +0700,
1,1,6,word/wordth0061.png,72,72,0,z,0.5546333999991475,None,0,72,72,72,142.80449729999964,,,,,,,142.80449729999964,142.80449729999964,143.79167100000086,143.79575710000063,143.79575710000063,143.79575710000063,143.79575710000063,144.35369759999958,z,0.5546333999991475,None,,,,,,,,PT_th,001,2025-03-12_16h37.41.996,MainFlow,2024.2.4,129.99472221523428,2025-03-12 16h37.51.328369 +0700,
1,2,30,word/wordth0302.png,73,73,0,x,0.7120821999997133,None,0,73,73,73,144.36020610000014,,,,,,,144.36020610000014,144.36020610000014,145.3490880999998,145.3532240000004,145.3532240000004,145.3532240000004,145.3532240000004,146.06998329999988,x,0.7120821999997133,None,,,,,,,,PT_th,001,2025-03-12_16h37.41.996,MainFlow,2024.2.4,129.99472221523428,2025-03-12 16h37.51.328369 +0700,
1,1,51,word/wordth0511.png,74,74,0,z,0.6563774999995076,None,0,74,74,74,146.07639439999912,,,,,,,146.07639439999912,146.07639439999912,147.06380189999982,147.06786680000005,147.06786680000005,147.06786680000005,147.06786680000005,147.72941399999945,z,0.6563774999995076,None,,,,,,,,PT_th,001,2025-03-12_16h37.41.996,MainFlow,2024.2.4,129.99472221523428,2025-03-12 16h37.51.328369 +0700,
1,2,50,word/wordth0502.png,75,75,0,x,0.7056337000012718,None,0,75,75,75,147.7358134999995,,,,,,,147.7358134999995,147.7358134999995,148.7240051000008,148.72837790000085,148.72837790000085,148.72837790000085,148.72837790000085,149.43769559999964,x,0.7056337000012718,None,,,,,,,,PT_th,001,2025-03-12_16h37.41.996,MainFlow,2024.2.4,129.99472221523428,2025-03-12 16h37.51.328369 +0700,
1,3,95,word/wordth0953.png,76,76,0,x,0.9264187999997375,None,0,76,76,76,149.4441468999994,,,,,,,149.4441468999994,149.4441468999994,150.43288639999992,150.43745409999974,150.43745409999974,150.43745409999974,150.43745409999974,151.36930460000076,x,0.9264187999997375,None,,,,,,,,PT_th,001,2025-03-12_16h37.41.996,MainFlow,2024.2.4,129.99472221523428,2025-03-12 16h37.51.328369 +0700,
1,1,75,word/wordth0751.png,77,77,0,z,1.539147999999841,None,0,77,77,77,151.37572980000004,,,,,,,151.37572980000004,151.37572980000004,152.36366500000076,152.36829880000005,152.36829880000005,152.36829880000005,152.36829880000005,153.91095700000005,z,1.539147999999841,None,,,,,,,,PT_th,001,2025-03-12_16h37.41.996,MainFlow,2024.2.4,129.99472221523428,2025-03-12 16h37.51.328369 +0700,
1,1,95,word/wordth0951.png,78,78,0,z,0.8064751000001706,None,0,78,78,78,153.91740690000006,,,,,,,153.91740690000006,153.91740690000006,154.90659819999928,154.91085910000038,154.91085910000038,154.91085910000038,154.91085910000038,155.7245272,z,0.8064751000001706,None,,,,,,,,PT_th,001,2025-03-12_16h37.41.996,MainFlow,2024.2.4,129.99472221523428,2025-03-12 16h37.51.328369 +0700,
1,2,8,word/wordth0082.png,79,79,0,x,0.5176621000009618,None,0,79,79,79,155.73115879999932,,,,,,,155.73115879999932,155.73115879999932,156.71922540000014,156.72352019999926,156.72352019999926,156.72352019999926,156.72352019999926,157.2455556999994,x,0.5176621000009618,None,,,,,,,,PT_th,001,2025-03-12_16h37.41.996,MainFlow,2024.2.4,129.99472221523428,2025-03-12 16h37.51.328369 +0700,
1,3,75,word/wordth0753.png,80,80,0,x,1.1148080000002665,None,0,80,80,80,157.2519812999999,,,,,,,157.2519812999999,157.2519812999999,158.24109359999966,158.24529819999952,158.24529819999952,158.24529819999952,158.24529819999952,159.36470860000009,x,1.1148080000002665,None,,,,,,,,PT_th,001,2025-03-12_16h37.41.996,MainFlow,2024.2.4,129.99472221523428,2025-03-12 16h37.51.328369 +0700,
1,1,28,word/wordth0281.png,81,81,0,z,0.6561458000014682,None,0,81,81,81,159.37102980000054,,,,,,,159.37102980000054,159.37102980000054,160.3590817000004,160.3633009999994,160.3633009999994,160.3633009999994,160.3633009999994,161.02452380000068,z,0.6561458000014682,None,,,,,,,,PT_th,001,2025-03-12_16h37.41.996,MainFlow,2024.2.4,129.99472221523428,2025-03-12 16h37.51.328369 +0700,
1,3,42,word/wordth0423.png,82,82,0,x,0.9501728000013827,None,0,82,82,82,161.0309703999992,,,,,,,161.0309703999992,161.0309703999992,162.01933540000027,162.02358110000023,162.02358110000023,162.02358110000023,162.02358110000023,162.97633739999947,x,0.9501728000013827,None,,,,,,,,PT_th,001,2025-03-12_16h37.41.996,MainFlow,2024.2.4,129.99472221523428,2025-03-12 16h37.51.328369 +0700,
1,3,46,word/wordth0463.png,83,83,0,x,1.0721128000004683,None,0,83,83,83,162.98277020000023,,,,,,,162.98277020000023,162.98277020000023,163.97123920000013,163.9762812000008,163.9762812000008,163.9762812000008,163.9762812000008,165.05021959999976,x,1.0721128000004683,None,,,,,,,,PT_th,001,2025-03-12_16h37.41.996,MainFlow,2024.2.4,129.99472221523428,2025-03-12 16h37.51.328369 +0700,
1,3,1,word/wordth0013.png,84,84,0,x,0.5836925999992673,None,0,84,84,84,165.05677699999978,,,,,,,165.05677699999978,165.05677699999978,166.04969789999996,166.05403520000073,166.05403520000073,166.05403520000073,166.05403520000073,166.64474279999922,x,0.5836925999992673,None,,,,,,,,PT_th,001,2025-03-12_16h37.41.996,MainFlow,2024.2.4,129.99472221523428,2025-03-12 16h37.51.328369 +0700,
1,2,70,word/wordth0702.png,85,85,0,x,0.5576599000014539,None,0,85,85,85,166.65107650000027,,,,,,,166.65107650000027,166.65107650000027,167.6396703999999,167.64422860000013,167.64422860000013,167.64422860000013,167.64422860000013,168.20816960000047,x,0.5576599000014539,None,,,,,,,,PT_th,001,2025-03-12_16h37.41.996,MainFlow,2024.2.4,129.99472221523428,2025-03-12 16h37.51.328369 +0700,
1,1,7,word/wordth0071.png,86,86,0,z,0.9031560000003083,None,0,86,86,86,168.21464519999972,,,,,,,168.21464519999972,168.21464519999972,169.2048892999992,169.2091464999994,169.2091464999994,169.2091464999994,169.2091464999994,170.11317509999935,z,0.9031560000003083,None,,,,,,,,PT_th,001,2025-03-12_16h37.41.996,MainFlow,2024.2.4,129.99472221523428,2025-03-12 16h37.51.328369 +0700,
1,2,7,word/wordth0072.png,87,87,0,x,0.5825961999998981,None,0,87,87,87,170.1196228000008,,,,,,,170.1196228000008,170.1196228000008,171.1094078999995,171.11371900000086,171.11371900000086,171.11371900000086,171.11371900000086,171.69830829999955,x,0.5825961999998981,None,,,,,,,,PT_th,001,2025-03-12_16h37.41.996,MainFlow,2024.2.4,129.99472221523428,2025-03-12 16h37.51.328369 +0700,
1,2,24,word/wordth0242.png,88,88,0,x,0.7261202999998204,None,0,88,88,88,171.70467420000023,,,,,,,171.70467420000023,171.70467420000023,172.69560920000004,172.6998480000002,172.6998480000002,172.6998480000002,172.6998480000002,173.43032950000088,x,0.7261202999998204,None,,,,,,,,PT_th,001,2025-03-12_16h37.41.996,MainFlow,2024.2.4,129.99472221523428,2025-03-12 16h37.51.328369 +0700,
1,3,26,word/wordth0263.png,89,89,0,x,0.4401646000005712,None,0,89,89,89,173.4367712000003,,,,,,,173.4367712000003,173.4367712000003,174.4257132999992,174.43042889999924,174.43042889999924,174.43042889999924,174.43042889999924,174.87624519999918,x,0.4401646000005712,None,,,,,,,,PT_th,001,2025-03-12_16h37.41.996,MainFlow,2024.2.4,129.99472221523428,2025-03-12 16h37.51.328369 +0700,
1,2,23,word/wordth0232.png,90,90,0,x,1.4882409999991069,None,0,90,90,90,174.8823797999994,,,,,,,174.8823797999994,174.8823797999994,175.87119650000022,175.8758858000001,175.8758858000001,175.8758858000001,175.8758858000001,177.36980240000048,x,1.4882409999991069,None,,,,,,,,PT_th,001,2025-03-12_16h37.41.996,MainFlow,2024.2.4,129.99472221523428,2025-03-12 16h37.51.328369 +0700,
1,2,75,word/wordth0752.png,91,91,0,x,0.5499608000009175,None,0,91,91,91,177.37625099999968,,,,,,,177.37625099999968,177.37625099999968,178.36432480000076,178.36896549999983,178.36896549999983,178.36896549999983,178.36896549999983,178.92571920000046,x,0.5499608000009175,None,,,,,,,,PT_th,001,2025-03-12_16h37.41.996,MainFlow,2024.2.4,129.99472221523428,2025-03-12 16h37.51.328369 +0700,
1,2,6,word/wordth0062.png,92,92,0,x,0.40547090000109165,None,0,92,92,92,178.93216559999928,,,,,,,178.93216559999928,178.93216559999928,179.91802319999988,179.92245580000053,179.92245580000053,179.92245580000053,179.92245580000053,180.33335579999948,x,0.40547090000109165,None,,,,,,,,PT_th,001,2025-03-12_16h37.41.996,MainFlow,2024.2.4,129.99472221523428,2025-03-12 16h37.51.328369 +0700,
1,2,93,word/wordth0932.png,93,93,0,x,0.6346741000015754,None,0,93,93,93,180.33992079999916,,,,,,,180.33992079999916,180.33992079999916,181.32888830000047,181.33321350000006,181.33321350000006,181.33321350000006,181.33321350000006,181.97357550000015,x,0.6346741000015754,None,,,,,,,,PT_th,001,2025-03-12_16h37.41.996,MainFlow,2024.2.4,129.99472221523428,2025-03-12 16h37.51.328369 +0700,
1,2,48,word/wordth0482.png,94,94,0,x,0.41448829999899317,None,0,94,94,94,181.98002880000058,,,,,,,181.98002880000058,181.98002880000058,182.96900180000011,182.97338730000047,182.97338730000047,182.97338730000047,182.97338730000047,183.39132299999983,x,0.41448829999899317,None,,,,,,,,PT_th,001,2025-03-12_16h37.41.996,MainFlow,2024.2.4,129.99472221523428,2025-03-12 16h37.51.328369 +0700,
1,1,70,word/wordth0701.png,95,95,0,z,0.6670642999997654,None,0,95,95,95,183.39777069999946,,,,,,,183.39777069999946,183.39777069999946,184.38529000000017,184.38944880000054,184.38944880000054,184.38944880000054,184.38944880000054,185.05782759999965,z,0.6670642999997654,None,,,,,,,,PT_th,001,2025-03-12_16h37.41.996,MainFlow,2024.2.4,129.99472221523428,2025-03-12 16h37.51.328369 +0700,
1,2,66,word/wordth0662.png,96,96,0,x,0.8304052999992564,None,0,96,96,96,185.0641699000007,,,,,,,185.0641699000007,185.0641699000007,186.0516931000002,186.05562669999927,186.05562669999927,186.05562669999927,186.05562669999927,186.89128139999957,x,0.8304052999992564,None,,,,,,,,PT_th,001,2025-03-12_16h37.41.996,MainFlow,2024.2.4,129.99472221523428,2025-03-12 16h37.51.328369 +0700,
1,1,26,word/wordth0261.png,97,97,0,z,0.9811706000000413,None,0,97,97,97,186.8976204999999,,,,,,,186.8976204999999,186.8976204999999,187.88475629999994,187.88893500000086,187.88893500000086,187.88893500000086,187.88893500000086,188.87702890000037,z,0.9811706000000413,None,,,,,,,,PT_th,001,2025-03-12_16h37.41.996,MainFlow,2024.2.4,129.99472221523428,2025-03-12 16h37.51.328369 +0700,
1,3,9,word/wordth0093.png,98,98,0,x,1.808558400000038,None,0,98,98,98,188.88349000000017,,,,,,,188.88349000000017,188.88349000000017,189.87137950000033,189.87579150000056,189.87579150000056,189.87579150000056,189.87579150000056,191.68938639999942,x,1.808558400000038,None,,,,,,,,PT_th,001,2025-03-12_16h37.41.996,MainFlow,2024.2.4,129.99472221523428,2025-03-12 16h37.51.328369 +0700,
1,2,61,word/wordth0612.png,99,99,0,x,1.2332939000007173,None,0,99,99,99,191.69583039999998,,,,,,,191.69583039999998,191.69583039999998,192.6858386999993,192.6900158999997,192.6900158999997,192.6900158999997,192.6900158999997,193.9275235999994,x,1.2332939000007173,None,,,,,,,,PT_th,001,2025-03-12_16h37.41.996,MainFlow,2024.2.4,129.99472221523428,2025-03-12 16h37.51.328369 +0700,
1,3,8,word/wordth0083.png,100,100,0,x,1.1120608000001084,None,0,100,100,100,193.9339132999994,,,,,,,193.9339132999994,193.9339132999994,194.92141579999952,194.92553550000048,194.92553550000048,194.92553550000048,194.92553550000048,196.0385896000007,x,1.1120608000001084,None,,,,,,,,PT_th,001,2025-03-12_16h37.41.996,MainFlow,2024.2.4,129.99472221523428,2025-03-12 16h37.51.328369 +0700,
1,1,8,word/wordth0081.png,101,101,0,z,0.5956691999999748,None,0,101,101,101,196.04493899999943,,,,,,,196.04493899999943,196.04493899999943,197.03217899999981,197.03625099999954,197.03625099999954,197.03625099999954,197.03625099999954,197.63572879999992,z,0.5956691999999748,None,,,,,,,,PT_th,001,2025-03-12_16h37.41.996,MainFlow,2024.2.4,129.99472221523428,2025-03-12 16h37.51.328369 +0700,
1,2,44,word/wordth0442.png,102,102,0,x,0.778490700000475,None,0,102,102,102,197.64212550000047,,,,,,,197.64212550000047,197.64212550000047,198.62937860000056,198.63338060000024,198.63338060000024,198.63338060000024,198.63338060000024,199.4132927999999,x,0.778490700000475,None,,,,,,,,PT_th,001,2025-03-12_16h37.41.996,MainFlow,2024.2.4,129.99472221523428,2025-03-12 16h37.51.328369 +0700,
1,3,31,word/wordth0313.png,103,103,0,x,0.6383565000014642,None,0,103,103,103,199.41958999999952,,,,,,,199.41958999999952,199.41958999999952,200.40822259999914,200.41266650000034,200.41266650000034,200.41266650000034,200.41266650000034,201.0529573999993,x,0.6383565000014642,None,,,,,,,,PT_th,001,2025-03-12_16h37.41.996,MainFlow,2024.2.4,129.99472221523428,2025-03-12 16h37.51.328369 +0700,
1,1,89,word/wordth0891.png,104,104,0,z,0.6343956000000617,None,0,104,104,104,201.0594701000009,,,,,,,201.0594701000009,201.0594701000009,202.04709659999935,202.0514062000002,202.0514062000002,202.0514062000002,202.0514062000002,202.69244009999966,z,0.6343956000000617,None,,,,,,,,PT_th,001,2025-03-12_16h37.41.996,MainFlow,2024.2.4,129.99472221523428,2025-03-12 16h37.51.328369 +0700,
1,3,70,word/wordth0703.png,105,105,0,x,0.5764546999998856,None,0,105,105,105,202.69806749999952,,,,,,,202.69806749999952,202.69806749999952,203.68909349999922,203.69403740000052,203.69403740000052,203.69403740000052,203.69403740000052,204.27137930000026,x,0.5764546999998856,None,,,,,,,,PT_th,001,2025-03-12_16h37.41.996,MainFlow,2024.2.4,129.99472221523428,2025-03-12 16h37.51.328369 +0700,
1,3,68,word/wordth0683.png,106,106,0,x,0.6403279999994993,None,0,106,106,106,204.27770469999996,,,,,,,204.27770469999996,204.27770469999996,205.26550680000037,205.26943439999923,205.26943439999923,205.26943439999923,205.26943439999923,205.9104126000002,x,0.6403279999994993,None,,,,,,,,PT_th,001,2025-03-12_16h37.41.996,MainFlow,2024.2.4,129.99472221523428,2025-03-12 16h37.51.328369 +0700,
1,3,10,word/wordth0103.png,107,107,0,x,0.5640493000009883,None,0,107,107,107,205.91673289999926,,,,,,,205.91673289999926,205.91673289999926,206.9059066000009,206.91024520000065,206.91024520000065,206.91024520000065,206.91024520000065,207.48114610000084,x,0.5640493000009883,None,,,,,,,,PT_th,001,2025-03-12_16h37.41.996,MainFlow,2024.2.4,129.99472221523428,2025-03-12 16h37.51.328369 +0700,
1,3,94,word/wordth0943.png,108,108,0,x,0.49859490000017104,None,0,108,108,108,207.4871122000004,,,,,,,207.4871122000004,207.4871122000004,208.4754369000002,208.4796126000001,208.4796126000001,208.4796126000001,208.4796126000001,208.9810837999994,x,0.49859490000017104,None,,,,,,,,PT_th,001,2025-03-12_16h37.41.996,MainFlow,2024.2.4,129.99472221523428,2025-03-12 16h37.51.328369 +0700,
1,1,3,word/wordth0031.png,109,109,0,z,0.5391939000001003,None,0,109,109,109,208.98751269999957,,,,,,,208.98751269999957,208.98751269999957,209.97465329999977,209.97875019999992,209.97875019999992,209.97875019999992,209.97875019999992,210.52232360000016,z,0.5391939000001003,None,,,,,,,,PT_th,001,2025-03-12_16h37.41.996,MainFlow,2024.2.4,129.99472221523428,2025-03-12 16h37.51.328369 +0700,
1,3,63,word/wordth0633.png,110,110,0,x,0.4120476000007329,None,0,110,110,110,210.52878480000072,,,,,,,210.52878480000072,210.52878480000072,211.5167175000006,211.52099459999954,211.52099459999954,211.52099459999954,211.52099459999954,211.93907469999976,x,0.4120476000007329,None,,,,,,,,PT_th,001,2025-03-12_16h37.41.996,MainFlow,2024.2.4,129.99472221523428,2025-03-12 16h37.51.328369 +0700,
1,2,9,word/wordth0092.png,111,111,0,x,0.4739632000000711,None,0,111,111,111,211.94549059999918,,,,,,,211.94549059999918,211.94549059999918,212.93369730000086,212.93786960000034,212.93786960000034,212.93786960000034,212.93786960000034,213.41849379999985,x,0.4739632000000711,None,,,,,,,,PT_th,001,2025-03-12_16h37.41.996,MainFlow,2024.2.4,129.99472221523428,2025-03-12 16h37.51.328369 +0700,
1,3,7,word/wordth0073.png,112,112,0,x,0.5205709000001661,None,0,112,112,112,213.42498030000024,,,,,,,213.42498030000024,213.42498030000024,214.41219230000024,214.41644180000003,214.41644180000003,214.41644180000003,214.41644180000003,214.93939409999984,x,0.5205709000001661,None,,,,,,,,PT_th,001,2025-03-12_16h37.41.996,MainFlow,2024.2.4,129.99472221523428,2025-03-12 16h37.51.328369 +0700,
1,2,41,word/wordth0412.png,113,113,0,x,0.46877479999966454,None,0,113,113,113,214.94530590000068,,,,,,,214.94530590000068,214.94530590000068,215.93343359999926,215.93787410000004,215.93787410000004,215.93787410000004,215.93787410000004,216.4115335000006,x,0.46877479999966454,None,,,,,,,,PT_th,001,2025-03-12_16h37.41.996,MainFlow,2024.2.4,129.99472221523428,2025-03-12 16h37.51.328369 +0700,
1,1,9,word/wordth0091.png,114,114,0,z,1.6613190000007307,None,0,114,114,114,216.41782310000053,,,,,,,216.41782310000053,216.41782310000053,217.40561069999967,217.41004509999948,217.41004509999948,217.41004509999948,217.41004509999948,219.07775500000025,z,1.6613190000007307,None,,,,,,,,PT_th,001,2025-03-12_16h37.41.996,MainFlow,2024.2.4,129.99472221523428,2025-03-12 16h37.51.328369 +0700,
1,1,94,word/wordth0941.png,115,115,0,z,0.6777820000006614,None,0,115,115,115,219.0841094999996,,,,,,,219.0841094999996,219.0841094999996,220.07260449999922,220.07688550000057,220.07688550000057,220.07688550000057,220.07688550000057,220.75876160000007,z,0.6777820000006614,None,,,,,,,,PT_th,001,2025-03-12_16h37.41.996,MainFlow,2024.2.4,129.99472221523428,2025-03-12 16h37.51.328369 +0700,
1,1,52,word/wordth0521.png,116,116,0,z,0.6050168999991001,None,0,116,116,116,220.7651721000002,,,,,,,220.7651721000002,220.7651721000002,221.7549995999998,221.75920729999962,221.75920729999962,221.75920729999962,221.75920729999962,222.3649781999993,z,0.6050168999991001,None,,,,,,,,PT_th,001,2025-03-12_16h37.41.996,MainFlow,2024.2.4,129.99472221523428,2025-03-12 16h37.51.328369 +0700,
1,2,88,word/wordth0882.png,117,117,0,x,0.7006670999999187,None,0,117,117,117,222.3709285999994,,,,,,,222.3709285999994,222.3709285999994,223.35883400000057,223.36297809999996,223.36297809999996,223.36297809999996,223.36297809999996,224.06592699999965,x,0.7006670999999187,None,,,,,,,,PT_th,001,2025-03-12_16h37.41.996,MainFlow,2024.2.4,129.99472221523428,2025-03-12 16h37.51.328369 +0700,
1,1,41,word/wordth0411.png,118,118,0,z,0.6583453000002919,None,0,118,118,118,224.07244320000063,,,,,,,224.07244320000063,224.07244320000063,225.06113229999937,225.0652769999997,225.0652769999997,225.0652769999997,225.0652769999997,225.72621190000064,z,0.6583453000002919,None,,,,,,,,PT_th,001,2025-03-12_16h37.41.996,MainFlow,2024.2.4,129.99472221523428,2025-03-12 16h37.51.328369 +0700,
1,3,30,word/wordth0303.png,119,119,0,x,0.9386818999992101,None,0,119,119,119,225.73269079999955,,,,,,,225.73269079999955,225.73269079999955,226.7203482999994,226.72431759999927,226.72431759999927,226.72431759999927,226.72431759999927,227.6639610000002,x,0.9386818999992101,None,,,,,,,,PT_th,001,2025-03-12_16h37.41.996,MainFlow,2024.2.4,129.99472221523428,2025-03-12 16h37.51.328369 +0700,
,,,,,,,,,,,,,,,,,,,,,,,,,,,,,,,,227.66404859999966,227.67021360000035,227.67021360000035,229.6706649000007,space,1.997236499999417,None,PT_th,001,2025-03-12_16h37.41.996,MainFlow,2024.2.4,129.99472221523428,2025-03-12 16h37.51.328369 +0700,
