lang,stimuli,imageid,worddir,thisN,thisTrialN,thisRepN,key_resp.keys,key_resp.rt,key_resp.duration,trials.thisRepN,trials.thisTrialN,trials.thisN,trials.thisIndex,thisRow.t,notes,tutorial.started,tutorial.stopped,key_instruct.keys,key_instruct.rt,key_instruct.duration,instructblank.started,cross1.started,letterselect.started,imageword.started,text_2.started,cross2.started,key_resp.started,letterselect.stopped,trials.key_resp.keys,trials.key_resp.rt,trials.key_resp.duration,ending.started,text_3.started,ending_key.started,ending.stopped,ending_key.keys,ending_key.rt,ending_key.duration,participant,session,date,expName,psychopyVersion,frameRate,expStart,
,,,,,,,,,,,,,,,,0.002815700019709766,6.870417200028896,space,6.8451809999533,None,,,,,,,,,,,,,,,,,,,SC_th,001,2025-03-07_12h26.04.223,MainFlow,2024.2.4,129.95856921037378,2025-03-07 12h26.16.672166 +0700,
1,3,89,word/wordth0893.png,0,0,0,x,5.528039800003171,None,0,0,0,0,6.8956594000337645,,,,,,,6.8956594000337645,6.8956594000337645,7.868596900021657,7.873368100030348,7.873368100030348,7.873368100030348,7.873368100030348,13.40777499997057,x,5.528039800003171,None,,,,,,,,SC_th,001,2025-03-07_12h26.04.223,MainFlow,2024.2.4,129.95856921037378,2025-03-07 12h26.16.672166 +0700,
1,3,28,word/wordth0283.png,1,1,0,x,1.718136899988167,None,0,1,1,1,13.414194599958137,,,,,,,13.414194599958137,13.414194599958137,14.402667699963786,14.406773600028828,14.406773600028828,14.406773600028828,14.406773600028828,16.130477100028656,x,1.718136899988167,None,,,,,,,,SC_th,001,2025-03-07_12h26.04.223,MainFlow,2024.2.4,129.95856921037378,2025-03-07 12h26.16.672166 +0700,
1,2,87,word/wordth0872.png,2,2,0,x,1.0208866000175476,None,0,2,2,2,16.136435399996117,,,,,,,16.136435399996117,16.136435399996117,17.123878399957903,17.12783130002208,17.12783130002208,17.12783130002208,17.12783130002208,18.15078949998133,x,1.0208866000175476,None,,,,,,,,SC_th,001,2025-03-07_12h26.04.223,MainFlow,2024.2.4,129.95856921037378,2025-03-07 12h26.16.672166 +0700,
1,2,68,word/wordth0682.png,3,3,0,x,0.8876325000310317,None,0,3,3,3,18.15724810003303,,,,,,,18.15724810003303,18.15724810003303,19.144561500055715,19.14902420004364,19.14902420004364,19.14902420004364,19.14902420004364,20.04006410005968,x,0.8876325000310317,None,,,,,,,,SC_th,001,2025-03-07_12h26.04.223,MainFlow,2024.2.4,129.95856921037378,2025-03-07 12h26.16.672166 +0700,
1,2,11,word/wordth0112.png,4,4,0,x,0.46272330009378493,None,0,4,4,4,20.046486200066283,,,,,,,20.046486200066283,20.046486200066283,21.033674100064673,21.038322799955495,21.038322799955495,21.038322799955495,21.038322799955495,21.505194299970753,x,0.46272330009378493,None,,,,,,,,SC_th,001,2025-03-07_12h26.04.223,MainFlow,2024.2.4,129.95856921037378,2025-03-07 12h26.16.672166 +0700,
1,3,11,word/wordth0113.png,5,5,0,x,0.7462278999155387,None,0,5,5,5,21.511578100034967,,,,,,,21.511578100034967,21.511578100034967,22.498567300033756,22.50286969996523,22.50286969996523,22.50286969996523,22.50286969996523,23.255301699973643,x,0.7462278999155387,None,,,,,,,,SC_th,001,2025-03-07_12h26.04.223,MainFlow,2024.2.4,129.95856921037378,2025-03-07 12h26.16.672166 +0700,
1,2,71,word/wordth0712.png,6,6,0,x,0.8001374000450596,None,0,6,6,6,23.26172199996654,,,,,,,23.26172199996654,23.26172199996654,24.248721300042234,24.253022099961527,24.253022099961527,24.253022099961527,24.253022099961527,25.054010599968024,x,0.8001374000450596,None,,,,,,,,SC_th,001,2025-03-07_12h26.04.223,MainFlow,2024.2.4,129.95856921037378,2025-03-07 12h26.16.672166 +0700,
1,3,44,word/wordth0443.png,7,7,0,x,1.5048512999201193,None,0,7,7,7,25.06021659995895,,,,,,,25.06021659995895,25.06021659995895,26.047076100017875,26.051261799992062,26.051261799992062,26.051261799992062,26.051261799992062,27.560585499973968,x,1.5048512999201193,None,,,,,,,,SC_th,001,2025-03-07_12h26.04.223,MainFlow,2024.2.4,129.95856921037378,2025-03-07 12h26.16.672166 +0700,
1,2,82,word/wordth0822.png,8,8,0,x,0.6158886000048369,None,0,8,8,8,27.56701390002854,,,,,,,27.56701390002854,27.56701390002854,28.55433409998659,28.558398699969985,28.558398699969985,28.558398699969985,28.558398699969985,29.17871180002112,x,0.6158886000048369,None,,,,,,,,SC_th,001,2025-03-07_12h26.04.223,MainFlow,2024.2.4,129.95856921037378,2025-03-07 12h26.16.672166 +0700,
1,2,28,word/wordth0282.png,9,9,0,x,0.7420366000151262,None,0,9,9,9,29.18505750002805,,,,,,,29.18505750002805,29.18505750002805,30.172240099986084,30.17647169996053,30.17647169996053,30.17647169996053,30.17647169996053,30.921768100000918,x,0.7420366000151262,None,,,,,,,,SC_th,001,2025-03-07_12h26.04.223,MainFlow,2024.2.4,129.95856921037378,2025-03-07 12h26.16.672166 +0700,
1,1,23,word/wordth0231.png,10,10,0,z,1.7320375998970121,None,0,10,10,10,30.92782590002753,,,,,,,30.92782590002753,30.92782590002753,31.915514299995266,31.91968970000744,31.91968970000744,31.91968970000744,31.91968970000744,33.65749040001538,z,1.7320375998970121,None,,,,,,,,SC_th,001,2025-03-07_12h26.04.223,MainFlow,2024.2.4,129.95856921037378,2025-03-07 12h26.16.672166 +0700,
1,2,63,word/wordth0632.png,11,11,0,x,0.7403284000465646,None,0,11,11,11,33.663958500023,,,,,,,33.663958500023,33.663958500023,34.65106169995852,34.655094400048256,34.655094400048256,34.655094400048256,34.655094400048256,35.400630000047386,x,0.7403284000465646,None,,,,,,,,SC_th,001,2025-03-07_12h26.04.223,MainFlow,2024.2.4,129.95856921037378,2025-03-07 12h26.16.672166 +0700,
1,3,71,word/wordth0713.png,12,12,0,x,0.9318405999802053,None,0,12,12,12,35.40713399997912,,,,,,,35.40713399997912,35.40713399997912,36.39412039995659,36.39847839996219,36.39847839996219,36.39847839996219,36.39847839996219,37.331288299988955,x,0.9318405999802053,None,,,,,,,,SC_th,001,2025-03-07_12h26.04.223,MainFlow,2024.2.4,129.95856921037378,2025-03-07 12h26.16.672166 +0700,
1,1,1,word/wordth0011.png,13,13,0,z,1.032946899998933,None,0,13,13,13,37.33771870005876,,,,,,,37.33771870005876,37.33771870005876,38.324397500022314,38.329165900009684,38.329165900009684,38.329165900009684,38.329165900009684,39.3660416000057,z,1.032946899998933,None,,,,,,,,SC_th,001,2025-03-07_12h26.04.223,MainFlow,2024.2.4,129.95856921037378,2025-03-07 12h26.16.672166 +0700,
1,3,41,word/wordth0413.png,14,14,0,x,0.8668849000241607,None,0,14,14,14,39.37249510001857,,,,,,,39.37249510001857,39.37249510001857,40.35938519996125,40.363615500042215,40.363615500042215,40.363615500042215,40.363615500042215,41.23383409995586,x,0.8668849000241607,None,,,,,,,,SC_th,001,2025-03-07_12h26.04.223,MainFlow,2024.2.4,129.95856921037378,2025-03-07 12h26.16.672166 +0700,
1,2,64,word/wordth0642.png,15,15,0,x,0.7827178000006825,None,0,15,15,15,41.24026470002718,,,,,,,41.24026470002718,41.24026470002718,42.22714580001775,42.23154419998173,42.23154419998173,42.23154419998173,42.23154419998173,43.018356499960646,x,0.7827178000006825,None,,,,,,,,SC_th,001,2025-03-07_12h26.04.223,MainFlow,2024.2.4,129.95856921037378,2025-03-07 12h26.16.672166 +0700,
1,3,6,word/wordth0063.png,16,16,0,x,1.2362700999947265,None,0,16,16,16,43.0247997000115,,,,,,,43.0247997000115,43.0247997000115,44.012060299981385,44.01622049999423,44.01622049999423,44.01622049999423,44.01622049999423,45.25446660001762,x,1.2362700999947265,None,,,,,,,,SC_th,001,2025-03-07_12h26.04.223,MainFlow,2024.2.4,129.95856921037378,2025-03-07 12h26.16.672166 +0700,
1,2,31,word/wordth0312.png,17,17,0,x,0.649199299979955,None,0,17,17,17,45.261000300059095,,,,,,,45.261000300059095,45.261000300059095,46.2480174000375,46.25214950006921,46.25214950006921,46.25214950006921,46.25214950006921,46.90755130001344,x,0.649199299979955,None,,,,,,,,SC_th,001,2025-03-07_12h26.04.223,MainFlow,2024.2.4,129.95856921037378,2025-03-07 12h26.16.672166 +0700,
1,1,46,word/wordth0461.png,18,18,0,z,0.619891699985601,None,0,18,18,18,46.91394780005794,,,,,,,46.91394780005794,46.91394780005794,47.90095939999446,47.90526370005682,47.90526370005682,47.90526370005682,47.90526370005682,48.525896599981934,z,0.619891699985601,None,,,,,,,,SC_th,001,2025-03-07_12h26.04.223,MainFlow,2024.2.4,129.95856921037378,2025-03-07 12h26.16.672166 +0700,
1,3,51,word/wordth0513.png,19,19,0,x,0.540181600023061,None,0,19,19,19,48.532012199983,,,,,,,48.532012199983,48.532012199983,49.51887310005259,49.5235696999589,49.5235696999589,49.5235696999589,49.5235696999589,50.06686190003529,x,0.540181600023061,None,,,,,,,,SC_th,001,2025-03-07_12h26.04.223,MainFlow,2024.2.4,129.95856921037378,2025-03-07 12h26.16.672166 +0700,
1,2,26,word/wordth0262.png,20,20,0,x,0.5334028999786824,None,0,20,20,20,50.07333779998589,,,,,,,50.07333779998589,50.07333779998589,51.05974589998368,51.06413259997498,51.06413259997498,51.06413259997498,51.06413259997498,51.60166849999223,x,0.5334028999786824,None,,,,,,,,SC_th,001,2025-03-07_12h26.04.223,MainFlow,2024.2.4,129.95856921037378,2025-03-07 12h26.16.672166 +0700,
1,2,96,word/wordth0962.png,21,21,0,x,0.5374517999589443,None,0,21,21,21,51.60809730004985,,,,,,,51.60809730004985,51.60809730004985,52.59476210002322,52.59882189997006,52.59882189997006,52.59882189997006,52.59882189997006,53.14344620006159,x,0.5374517999589443,None,,,,,,,,SC_th,001,2025-03-07_12h26.04.223,MainFlow,2024.2.4,129.95856921037378,2025-03-07 12h26.16.672166 +0700,
1,1,31,word/wordth0311.png,22,22,0,z,0.44946230005007237,None,0,22,22,22,53.14987590000965,,,,,,,53.14987590000965,53.14987590000965,54.136839500046335,54.140821999986656,54.140821999986656,54.140821999986656,54.140821999986656,54.59455959999468,z,0.44946230005007237,None,,,,,,,,SC_th,001,2025-03-07_12h26.04.223,MainFlow,2024.2.4,129.95856921037378,2025-03-07 12h26.16.672166 +0700,
1,2,94,word/wordth0942.png,23,23,0,x,0.5972856000298634,None,0,23,23,23,54.600983200012706,,,,,,,54.600983200012706,54.600983200012706,55.58773829997517,55.591982200043276,55.591982200043276,55.591982200043276,55.591982200043276,56.191782300011255,x,0.5972856000298634,None,,,,,,,,SC_th,001,2025-03-07_12h26.04.223,MainFlow,2024.2.4,129.95856921037378,2025-03-07 12h26.16.672166 +0700,
1,3,48,word/wordth0483.png,24,24,0,x,0.3984249000204727,None,0,24,24,24,56.198049500002526,,,,,,,56.198049500002526,56.198049500002526,57.18534680001903,57.18951020005625,57.18951020005625,57.18951020005625,57.18951020005625,57.594401599955745,x,0.3984249000204727,None,,,,,,,,SC_th,001,2025-03-07_12h26.04.223,MainFlow,2024.2.4,129.95856921037378,2025-03-07 12h26.16.672166 +0700,
1,3,24,word/wordth0243.png,25,25,0,x,0.4491297999629751,None,0,25,25,25,57.60077919997275,,,,,,,57.60077919997275,57.60077919997275,58.58857610006817,58.59281529998407,58.59281529998407,58.59281529998407,58.59281529998407,59.045885500032455,x,0.4491297999629751,None,,,,,,,,SC_th,001,2025-03-07_12h26.04.223,MainFlow,2024.2.4,129.95856921037378,2025-03-07 12h26.16.672166 +0700,
1,1,87,word/wordth0871.png,26,26,0,z,0.39759070007130504,None,0,26,26,26,59.05238530004863,,,,,,,59.05238530004863,59.05238530004863,60.03922519995831,60.04350500006694,60.04350500006694,60.04350500006694,60.04350500006694,60.441966200014576,z,0.39759070007130504,None,,,,,,,,SC_th,001,2025-03-07_12h26.04.223,MainFlow,2024.2.4,129.95856921037378,2025-03-07 12h26.16.672166 +0700,
1,2,51,word/wordth0512.png,27,27,0,z,0.5012803000863642,None,0,27,27,27,60.44808080000803,,,,,,,60.44808080000803,60.44808080000803,61.43508560000919,61.439456499996595,61.439456499996595,61.439456499996595,61.439456499996595,61.94173530000262,z,0.5012803000863642,None,,,,,,,,SC_th,001,2025-03-07_12h26.04.223,MainFlow,2024.2.4,129.95856921037378,2025-03-07 12h26.16.672166 +0700,
1,3,27,word/wordth0273.png,28,28,0,x,0.6287048999220133,None,0,28,28,28,61.94807949999813,,,,,,,61.94807949999813,61.94807949999813,62.935483400011435,62.940128199988976,62.940128199988976,62.940128199988976,62.940128199988976,63.57376509997994,x,0.6287048999220133,None,,,,,,,,SC_th,001,2025-03-07_12h26.04.223,MainFlow,2024.2.4,129.95856921037378,2025-03-07 12h26.16.672166 +0700,
1,2,22,word/wordth0222.png,29,29,0,x,0.4920161999762058,None,0,29,29,29,63.580109899980016,,,,,,,63.580109899980016,63.580109899980016,64.56685369997285,64.57117680006195,64.57117680006195,64.57117680006195,64.57117680006195,65.06653039995581,x,0.4920161999762058,None,,,,,,,,SC_th,001,2025-03-07_12h26.04.223,MainFlow,2024.2.4,129.95856921037378,2025-03-07 12h26.16.672166 +0700,
1,3,23,word/wordth0233.png,30,30,0,x,0.6794511000625789,None,0,30,30,30,65.07297249999829,,,,,,,65.07297249999829,65.07297249999829,66.05962900002487,66.06362280005123,66.06362280005123,66.06362280005123,66.06362280005123,66.74744539998937,x,0.6794511000625789,None,,,,,,,,SC_th,001,2025-03-07_12h26.04.223,MainFlow,2024.2.4,129.95856921037378,2025-03-07 12h26.16.672166 +0700,
1,1,48,word/wordth0481.png,31,31,0,z,0.5259328000247478,None,0,31,31,31,66.7532544999849,,,,,,,66.7532544999849,66.7532544999849,67.74033559998497,67.74452129995916,67.74452129995916,67.74452129995916,67.74452129995916,68.27483340003528,z,0.5259328000247478,None,,,,,,,,SC_th,001,2025-03-07_12h26.04.223,MainFlow,2024.2.4,129.95856921037378,2025-03-07 12h26.16.672166 +0700,
1,2,10,word/wordth0102.png,32,32,0,x,0.5778416000539437,None,0,32,32,32,68.28119160002097,,,,,,,68.28119160002097,68.28119160002097,69.26756339997519,69.27159370004665,69.27159370004665,69.27159370004665,69.27159370004665,69.85153710003942,x,0.5778416000539437,None,,,,,,,,SC_th,001,2025-03-07_12h26.04.223,MainFlow,2024.2.4,129.95856921037378,2025-03-07 12h26.16.672166 +0700,
1,3,64,word/wordth0643.png,33,33,0,x,0.8300839000148699,None,0,33,33,33,69.85786320001353,,,,,,,69.85786320001353,69.85786320001353,70.84436780004762,70.84860120003577,70.84860120003577,70.84860120003577,70.84860120003577,71.68437320005614,x,0.8300839000148699,None,,,,,,,,SC_th,001,2025-03-07_12h26.04.223,MainFlow,2024.2.4,129.95856921037378,2025-03-07 12h26.16.672166 +0700,
1,3,22,word/wordth0223.png,34,34,0,x,0.5646927000489086,None,0,34,34,34,71.6907310000388,,,,,,,71.6907310000388,71.6907310000388,72.67803339997772,72.6822590000229,72.6822590000229,72.6822590000229,72.6822590000229,73.25400309998076,x,0.5646927000489086,None,,,,,,,,SC_th,001,2025-03-07_12h26.04.223,MainFlow,2024.2.4,129.95856921037378,2025-03-07 12h26.16.672166 +0700,
1,1,42,word/wordth0421.png,35,35,0,z,0.43468169996049255,None,0,35,35,35,73.26045189995784,,,,,,,73.26045189995784,73.26045189995784,74.24733779998496,74.25129389995709,74.25129389995709,74.25129389995709,74.25129389995709,74.69159020006191,z,0.43468169996049255,None,,,,,,,,SC_th,001,2025-03-07_12h26.04.223,MainFlow,2024.2.4,129.95856921037378,2025-03-07 12h26.16.672166 +0700,
1,2,1,word/wordth0012.png,36,36,0,x,0.6512105000438169,None,0,36,36,36,74.69754760002252,,,,,,,74.69754760002252,74.69754760002252,75.68500469997525,75.6890335000353,75.6890335000353,75.6890335000353,75.6890335000353,76.3441442999756,x,0.6512105000438169,None,,,,,,,,SC_th,001,2025-03-07_12h26.04.223,MainFlow,2024.2.4,129.95856921037378,2025-03-07 12h26.16.672166 +0700,
1,1,82,word/wordth0821.png,37,37,0,z,0.4931904000695795,None,0,37,37,37,76.35051030002069,,,,,,,76.35051030002069,76.35051030002069,77.33702720003203,77.34118180000223,77.34118180000223,77.34118180000223,77.34118180000223,77.83703359996434,z,0.4931904000695795,None,,,,,,,,SC_th,001,2025-03-07_12h26.04.223,MainFlow,2024.2.4,129.95856921037378,2025-03-07 12h26.16.672166 +0700,
1,2,3,word/wordth0032.png,38,38,0,x,0.5744595999130979,None,0,38,38,38,77.84348439995665,,,,,,,77.84348439995665,77.84348439995665,78.83001430006698,78.83404069999233,78.83404069999233,78.83404069999233,78.83404069999233,79.41369580000173,x,0.5744595999130979,None,,,,,,,,SC_th,001,2025-03-07_12h26.04.223,MainFlow,2024.2.4,129.95856921037378,2025-03-07 12h26.16.672166 +0700,
1,1,68,word/wordth0681.png,39,39,0,z,0.4409628000576049,None,0,39,39,39,79.4201558000641,,,,,,,79.4201558000641,79.4201558000641,80.40704890002962,80.41126510000322,80.41126510000322,80.41126510000322,80.41126510000322,80.85774780006614,z,0.4409628000576049,None,,,,,,,,SC_th,001,2025-03-07_12h26.04.223,MainFlow,2024.2.4,129.95856921037378,2025-03-07 12h26.16.672166 +0700,
1,1,66,word/wordth0661.png,40,40,0,z,0.4510127999819815,None,0,40,40,40,80.86425039998721,,,,,,,80.86425039998721,80.86425039998721,81.8506844000658,81.85476540005766,81.85476540005766,81.85476540005766,81.85476540005766,82.30934030003846,z,0.4510127999819815,None,,,,,,,,SC_th,001,2025-03-07_12h26.04.223,MainFlow,2024.2.4,129.95856921037378,2025-03-07 12h26.16.672166 +0700,
1,2,42,word/wordth0422.png,41,41,0,x,0.6433408000739291,None,0,41,41,41,82.3157976999646,,,,,,,82.3157976999646,82.3157976999646,83.30259099998511,83.30666480003856,83.30666480003856,83.30666480003856,83.30666480003856,83.9553833999671,x,0.6433408000739291,None,,,,,,,,SC_th,001,2025-03-07_12h26.04.223,MainFlow,2024.2.4,129.95856921037378,2025-03-07 12h26.16.672166 +0700,
1,3,93,word/wordth0933.png,42,42,0,x,0.7315808000275865,None,0,42,42,42,83.9612904000096,,,,,,,83.9612904000096,83.9612904000096,84.9486545000691,84.95250150002539,84.95250150002539,84.95250150002539,84.95250150002539,85.69110190006904,x,0.7315808000275865,None,,,,,,,,SC_th,001,2025-03-07_12h26.04.223,MainFlow,2024.2.4,129.95856921037378,2025-03-07 12h26.16.672166 +0700,
1,1,71,word/wordth0711.png,43,43,0,z,0.8543861000798643,None,0,43,43,43,85.6975426999852,,,,,,,85.6975426999852,85.6975426999852,86.68430049996823,86.68849820003379,86.68849820003379,86.68849820003379,86.68849820003379,87.5455061000539,z,0.8543861000798643,None,,,,,,,,SC_th,001,2025-03-07_12h26.04.223,MainFlow,2024.2.4,129.95856921037378,2025-03-07 12h26.16.672166 +0700,
1,1,64,word/wordth0641.png,44,44,0,x,0.7684618000639603,None,0,44,44,44,87.55182719998993,,,,,,,87.55182719998993,87.55182719998993,88.53858349996153,88.54257409996353,88.54257409996353,88.54257409996353,88.54257409996353,89.3159910000395,x,0.7684618000639603,None,,,,,,,,SC_th,001,2025-03-07_12h26.04.223,MainFlow,2024.2.4,129.95856921037378,2025-03-07 12h26.16.672166 +0700,
1,1,88,word/wordth0881.png,45,45,0,z,0.7320048999972641,None,0,45,45,45,89.32239770004526,,,,,,,89.32239770004526,89.32239770004526,90.30915059999097,90.31349650002085,90.31349650002085,90.31349650002085,90.31349650002085,91.05210069997702,z,0.7320048999972641,None,,,,,,,,SC_th,001,2025-03-07_12h26.04.223,MainFlow,2024.2.4,129.95856921037378,2025-03-07 12h26.16.672166 +0700,
1,3,87,word/wordth0873.png,46,46,0,x,0.6859429000178352,None,0,46,46,46,91.05865370004904,,,,,,,91.05865370004904,91.05865370004904,92.04523599997628,92.04936389997602,92.04936389997602,92.04936389997602,92.04936389997602,92.73951730004046,x,0.6859429000178352,None,,,,,,,,SC_th,001,2025-03-07_12h26.04.223,MainFlow,2024.2.4,129.95856921037378,2025-03-07 12h26.16.672166 +0700,
1,3,3,word/wordth0033.png,47,47,0,x,0.7956877000397071,None,0,47,47,47,92.74657740001567,,,,,,,92.74657740001567,92.74657740001567,93.73333970003296,93.7375294000376,93.7375294000376,93.7375294000376,93.7375294000376,94.53810280002654,x,0.7956877000397071,None,,,,,,,,SC_th,001,2025-03-07_12h26.04.223,MainFlow,2024.2.4,129.95856921037378,2025-03-07 12h26.16.672166 +0700,
1,2,95,word/wordth0952.png,48,48,0,x,0.5350740000139922,None,0,48,48,48,94.54442879999988,,,,,,,94.54442879999988,94.54442879999988,95.53291109995916,95.53752879996318,95.53752879996318,95.53752879996318,95.53752879996318,96.07373790000565,x,0.5350740000139922,None,,,,,,,,SC_th,001,2025-03-07_12h26.04.223,MainFlow,2024.2.4,129.95856921037378,2025-03-07 12h26.16.672166 +0700,
1,1,11,word/wordth0111.png,49,49,0,z,0.764108500094153,None,0,49,49,49,96.08006449998356,,,,,,,96.08006449998356,96.08006449998356,97.06731009995565,97.0715844000224,97.0715844000224,97.0715844000224,97.0715844000224,97.83746700000484,z,0.764108500094153,None,,,,,,,,SC_th,001,2025-03-07_12h26.04.223,MainFlow,2024.2.4,129.95856921037378,2025-03-07 12h26.16.672166 +0700,
1,1,10,word/wordth0101.png,50,50,0,z,0.7144293000455946,None,0,50,50,50,97.84370620001573,,,,,,,97.84370620001573,97.84370620001573,98.83049880003091,98.83479180000722,98.83479180000722,98.83479180000722,98.83479180000722,99.55247070000041,z,0.7144293000455946,None,,,,,,,,SC_th,001,2025-03-07_12h26.04.223,MainFlow,2024.2.4,129.95856921037378,2025-03-07 12h26.16.672166 +0700,
1,1,44,word/wordth0441.png,51,51,0,z,0.982241400051862,None,0,51,51,51,99.55894210003316,,,,,,,99.55894210003316,99.55894210003316,100.54577299999073,100.55084549996536,100.55084549996536,100.55084549996536,100.55084549996536,101.53857650002465,z,0.982241400051862,None,,,,,,,,SC_th,001,2025-03-07_12h26.04.223,MainFlow,2024.2.4,129.95856921037378,2025-03-07 12h26.16.672166 +0700,
1,1,96,word/wordth0961.png,52,52,0,z,0.6715240998892114,None,0,52,52,52,101.54488239996135,,,,,,,101.54488239996135,101.54488239996135,102.53174840006977,102.53606439998839,102.53606439998839,102.53606439998839,102.53606439998839,103.21255669998936,z,0.6715240998892114,None,,,,,,,,SC_th,001,2025-03-07_12h26.04.223,MainFlow,2024.2.4,129.95856921037378,2025-03-07 12h26.16.672166 +0700,
1,2,27,word/wordth0272.png,53,53,0,x,0.7162865999853238,None,0,53,53,53,103.21872060000896,,,,,,,103.21872060000896,103.21872060000896,104.20594190002885,104.21024909999687,104.21024909999687,104.21024909999687,104.21024909999687,104.92765490000602,x,0.7162865999853238,None,,,,,,,,SC_th,001,2025-03-07_12h26.04.223,MainFlow,2024.2.4,129.95856921037378,2025-03-07 12h26.16.672166 +0700,
1,1,63,word/wordth0631.png,54,54,0,z,0.8750985000515357,None,0,54,54,54,104.9339860000182,,,,,,,104.9339860000182,104.9339860000182,105.92096060002223,105.92513180000242,105.92513180000242,105.92513180000242,105.92513180000242,106.802300499985,z,0.8750985000515357,None,,,,,,,,SC_th,001,2025-03-07_12h26.04.223,MainFlow,2024.2.4,129.95856921037378,2025-03-07 12h26.16.672166 +0700,
1,3,66,word/wordth0663.png,55,55,0,x,0.8385471999645233,None,0,55,55,55,106.80877380003221,,,,,,,106.80877380003221,106.80877380003221,107.79618619999383,107.80029919999652,107.80029919999652,107.80029919999652,107.80029919999652,108.64281960006338,x,0.8385471999645233,None,,,,,,,,SC_th,001,2025-03-07_12h26.04.223,MainFlow,2024.2.4,129.95856921037378,2025-03-07 12h26.16.672166 +0700,
1,3,88,word/wordth0883.png,56,56,0,x,0.6607415000908077,None,0,56,56,56,108.64918960002251,,,,,,,108.64918960002251,108.64918960002251,109.63691820006352,109.6410695000086,109.6410695000086,109.6410695000086,109.6410695000086,110.30951950000599,x,0.6607415000908077,None,,,,,,,,SC_th,001,2025-03-07_12h26.04.223,MainFlow,2024.2.4,129.95856921037378,2025-03-07 12h26.16.672166 +0700,
1,3,96,word/wordth0963.png,57,57,0,x,0.8637924999929965,None,0,57,57,57,110.31560880003963,,,,,,,110.31560880003963,110.31560880003963,111.3033592000138,111.30762610002421,111.30762610002421,111.30762610002421,111.30762610002421,112.1774533999851,x,0.8637924999929965,None,,,,,,,,SC_th,001,2025-03-07_12h26.04.223,MainFlow,2024.2.4,129.95856921037378,2025-03-07 12h26.16.672166 +0700,
1,2,52,word/wordth0522.png,58,58,0,x,0.8154503999976441,None,0,58,58,58,112.18385500006843,,,,,,,112.18385500006843,112.18385500006843,113.17076999996789,113.17473530001007,113.17473530001007,113.17473530001007,113.17473530001007,113.9969900000142,x,0.8154503999976441,None,,,,,,,,SC_th,001,2025-03-07_12h26.04.223,MainFlow,2024.2.4,129.95856921037378,2025-03-07 12h26.16.672166 +0700,
1,3,50,word/wordth0503.png,59,59,0,x,0.5936171000357717,None,0,59,59,59,114.00285309995525,,,,,,,114.00285309995525,114.00285309995525,114.9910494000651,114.99537570006214,114.99537570006214,114.99537570006214,114.99537570006214,115.59397449996322,x,0.5936171000357717,None,,,,,,,,SC_th,001,2025-03-07_12h26.04.223,MainFlow,2024.2.4,129.95856921037378,2025-03-07 12h26.16.672166 +0700,
1,3,61,word/wordth0613.png,60,60,0,x,0.4609744999324903,None,0,60,60,60,115.60046029998921,,,,,,,115.60046029998921,115.60046029998921,116.58791000000201,116.59232920000795,116.59232920000795,116.59232920000795,116.59232920000795,117.05919950001407,x,0.4609744999324903,None,,,,,,,,SC_th,001,2025-03-07_12h26.04.223,MainFlow,2024.2.4,129.95856921037378,2025-03-07 12h26.16.672166 +0700,
1,2,46,word/wordth0462.png,61,61,0,x,0.435270500020124,None,0,61,61,61,117.06551570002921,,,,,,,117.06551570002921,117.06551570002921,118.05288980004843,118.05696580000222,118.05696580000222,118.05696580000222,118.05696580000222,118.49662790005095,x,0.435270500020124,None,,,,,,,,SC_th,001,2025-03-07_12h26.04.223,MainFlow,2024.2.4,129.95856921037378,2025-03-07 12h26.16.672166 +0700,
1,1,61,word/wordth0611.png,62,62,0,z,0.5160346999764442,None,0,62,62,62,118.503101099981,,,,,,,118.503101099981,118.503101099981,119.49075360002462,119.49471510003787,119.49471510003787,119.49471510003787,119.49471510003787,120.01754699996673,z,0.5160346999764442,None,,,,,,,,SC_th,001,2025-03-07_12h26.04.223,MainFlow,2024.2.4,129.95856921037378,2025-03-07 12h26.16.672166 +0700,
1,1,24,word/wordth0241.png,63,63,0,z,0.49966959992889315,None,0,63,63,63,120.02396789996419,,,,,,,120.02396789996419,120.02396789996419,121.01091349998023,121.01530239998829,121.01530239998829,121.01530239998829,121.01530239998829,121.51752210000996,z,0.49966959992889315,None,,,,,,,,SC_th,001,2025-03-07_12h26.04.223,MainFlow,2024.2.4,129.95856921037378,2025-03-07 12h26.16.672166 +0700,
1,2,89,word/wordth0892.png,64,64,0,x,0.5533426000038162,None,0,64,64,64,121.5239264999982,,,,,,,121.5239264999982,121.5239264999982,122.5110748000443,122.51593970006797,122.51593970006797,122.51593970006797,122.51593970006797,123.07286970003042,x,0.5533426000038162,None,,,,,,,,SC_th,001,2025-03-07_12h26.04.223,MainFlow,2024.2.4,129.95856921037378,2025-03-07 12h26.16.672166 +0700,
1,1,30,word/wordth0301.png,65,65,0,z,0.5070183000061661,None,0,65,65,65,123.0791268000612,,,,,,,123.0791268000612,123.0791268000612,124.06648050004151,124.07066009996925,124.07066009996925,124.07066009996925,124.07066009996925,124.57985179999378,z,0.5070183000061661,None,,,,,,,,SC_th,001,2025-03-07_12h26.04.223,MainFlow,2024.2.4,129.95856921037378,2025-03-07 12h26.16.672166 +0700,
1,1,93,word/wordth0931.png,66,66,0,z,0.5045532999793068,None,0,66,66,66,124.58609110000543,,,,,,,124.58609110000543,124.58609110000543,125.5729827999603,125.57708059996367,125.57708059996367,125.57708059996367,125.57708059996367,126.08646909997333,z,0.5045532999793068,None,,,,,,,,SC_th,001,2025-03-07_12h26.04.223,MainFlow,2024.2.4,129.95856921037378,2025-03-07 12h26.16.672166 +0700,
1,1,50,word/wordth0501.png,67,67,0,z,0.8159900999162346,None,0,67,67,67,126.09289249998983,,,,,,,126.09289249998983,126.09289249998983,127.08056599996053,127.08450440003071,127.08450440003071,127.08450440003071,127.08450440003071,127.90585149999242,z,0.8159900999162346,None,,,,,,,,SC_th,001,2025-03-07_12h26.04.223,MainFlow,2024.2.4,129.95856921037378,2025-03-07 12h26.16.672166 +0700,
1,3,82,word/wordth0823.png,68,68,0,x,0.761783599969931,None,0,68,68,68,127.91234879998956,,,,,,,127.91234879998956,127.91234879998956,128.8995591000421,128.90367510006763,128.90367510006763,128.90367510006763,128.90367510006763,129.6700056999689,x,0.761783599969931,None,,,,,,,,SC_th,001,2025-03-07_12h26.04.223,MainFlow,2024.2.4,129.95856921037378,2025-03-07 12h26.16.672166 +0700,
1,1,27,word/wordth0271.png,69,69,0,z,0.7466281999368221,None,0,69,69,69,129.6764933000086,,,,,,,129.6764933000086,129.6764933000086,130.66324949997943,130.66736479999963,130.66736479999963,130.66736479999963,130.66736479999963,131.4197024999885,z,0.7466281999368221,None,,,,,,,,SC_th,001,2025-03-07_12h26.04.223,MainFlow,2024.2.4,129.95856921037378,2025-03-07 12h26.16.672166 +0700,
1,3,52,word/wordth0523.png,70,70,0,x,0.5299875000491738,None,0,70,70,70,131.42610969999805,,,,,,,131.42610969999805,131.42610969999805,132.4134914999595,132.41754689998925,132.41754689998925,132.41754689998925,132.41754689998925,132.95462360000238,x,0.5299875000491738,None,,,,,,,,SC_th,001,2025-03-07_12h26.04.223,MainFlow,2024.2.4,129.95856921037378,2025-03-07 12h26.16.672166 +0700,
1,1,22,word/wordth0221.png,71,71,0,z,0.5448815999552608,None,0,71,71,71,132.96101970004383,,,,,,,132.96101970004383,132.96101970004383,133.94778160005808,133.95162379997782,133.95162379997782,133.95162379997782,133.95162379997782,134.5032760000322,z,0.5448815999552608,None,,,,,,,,SC_th,001,2025-03-07_12h26.04.223,MainFlow,2024.2.4,129.95856921037378,2025-03-07 12h26.16.672166 +0700,
1,1,6,word/wordth0061.png,72,72,0,z,0.5347949999850243,None,0,72,72,72,134.50971270003356,,,,,,,134.50971270003356,134.50971270003356,135.4961291999789,135.500245800009,135.500245800009,135.500245800009,135.500245800009,136.0381087999558,z,0.5347949999850243,None,,,,,,,,SC_th,001,2025-03-07_12h26.04.223,MainFlow,2024.2.4,129.95856921037378,2025-03-07 12h26.16.672166 +0700,
1,2,30,word/wordth0302.png,73,73,0,x,0.5374817000702024,None,0,73,73,73,136.0440223000478,,,,,,,136.0440223000478,136.0440223000478,137.03182380006183,137.0362401000457,137.0362401000457,137.0362401000457,137.0362401000457,137.57944070000667,x,0.5374817000702024,None,,,,,,,,SC_th,001,2025-03-07_12h26.04.223,MainFlow,2024.2.4,129.95856921037378,2025-03-07 12h26.16.672166 +0700,
1,1,51,word/wordth0511.png,74,74,0,z,0.48200770001858473,None,0,74,74,74,137.58582919999026,,,,,,,137.58582919999026,137.58582919999026,138.57251149998046,138.5767204000149,138.5767204000149,138.5767204000149,138.5767204000149,139.0652694000164,z,0.48200770001858473,None,,,,,,,,SC_th,001,2025-03-07_12h26.04.223,MainFlow,2024.2.4,129.95856921037378,2025-03-07 12h26.16.672166 +0700,
1,2,50,word/wordth0502.png,75,75,0,x,0.5719042000127956,None,0,75,75,75,139.07172290002927,,,,,,,139.07172290002927,139.07172290002927,140.0605637000408,140.06495719996747,140.06495719996747,140.06495719996747,140.06495719996747,140.64287960005458,x,0.5719042000127956,None,,,,,,,,SC_th,001,2025-03-07_12h26.04.223,MainFlow,2024.2.4,129.95856921037378,2025-03-07 12h26.16.672166 +0700,
1,3,95,word/wordth0953.png,76,76,0,x,0.630976099986583,None,0,76,76,76,140.64936489996035,,,,,,,140.64936489996035,140.64936489996035,141.63604360003956,141.6401149999583,141.6401149999583,141.6401149999583,141.6401149999583,142.27443069999572,x,0.630976099986583,None,,,,,,,,SC_th,001,2025-03-07_12h26.04.223,MainFlow,2024.2.4,129.95856921037378,2025-03-07 12h26.16.672166 +0700,
1,1,75,word/wordth0751.png,77,77,0,z,1.0129801000002772,None,0,77,77,77,142.28088940004818,,,,,,,142.28088940004818,142.28088940004818,143.26790650002658,143.2721123000374,143.2721123000374,143.2721123000374,143.2721123000374,144.28831159998663,z,1.0129801000002772,None,,,,,,,,SC_th,001,2025-03-07_12h26.04.223,MainFlow,2024.2.4,129.95856921037378,2025-03-07 12h26.16.672166 +0700,
1,1,95,word/wordth0951.png,78,78,0,z,0.4976120999781415,None,0,78,78,78,144.29474230005872,,,,,,,144.29474230005872,144.29474230005872,145.28196160006337,145.28612970001996,145.28612970001996,145.28612970001996,145.28612970001996,145.78813920007087,z,0.4976120999781415,None,,,,,,,,SC_th,001,2025-03-07_12h26.04.223,MainFlow,2024.2.4,129.95856921037378,2025-03-07 12h26.16.672166 +0700,
1,2,8,word/wordth0082.png,79,79,0,x,0.43153009994421154,None,0,79,79,79,145.79460919997655,,,,,,,145.79460919997655,145.79460919997655,146.78218860004563,146.7860759999603,146.7860759999603,146.7860759999603,146.7860759999603,147.21902309998404,x,0.43153009994421154,None,,,,,,,,SC_th,001,2025-03-07_12h26.04.223,MainFlow,2024.2.4,129.95856921037378,2025-03-07 12h26.16.672166 +0700,
1,3,75,word/wordth0753.png,80,80,0,x,1.06013790005818,None,0,80,80,80,147.225271500065,,,,,,,147.225271500065,147.225271500065,148.21186240005773,148.21591809997335,148.21591809997335,148.21591809997335,148.21591809997335,149.28152179997414,x,1.06013790005818,None,,,,,,,,SC_th,001,2025-03-07_12h26.04.223,MainFlow,2024.2.4,129.95856921037378,2025-03-07 12h26.16.672166 +0700,
1,1,28,word/wordth0281.png,81,81,0,z,0.7557832000311464,None,0,81,81,81,149.2879676000448,,,,,,,149.2879676000448,149.2879676000448,150.2748486000346,150.27884559996892,150.27884559996892,150.27884559996892,150.27884559996892,151.03824270004407,z,0.7557832000311464,None,,,,,,,,SC_th,001,2025-03-07_12h26.04.223,MainFlow,2024.2.4,129.95856921037378,2025-03-07 12h26.16.672166 +0700,
1,3,42,word/wordth0423.png,82,82,0,z,0.5793277999619022,None,0,82,82,82,151.0446729999967,,,,,,,151.0446729999967,151.0446729999967,152.0313266000012,152.03531549999025,152.03531549999025,152.03531549999025,152.03531549999025,152.62193929997738,z,0.5793277999619022,None,,,,,,,,SC_th,001,2025-03-07_12h26.04.223,MainFlow,2024.2.4,129.95856921037378,2025-03-07 12h26.16.672166 +0700,
1,3,46,word/wordth0463.png,83,83,0,x,0.78863409999758,None,0,83,83,83,152.6277460999554,,,,,,,152.6277460999554,152.6277460999554,153.61475710000377,153.61893580004107,153.61893580004107,153.61893580004107,153.61893580004107,154.41340399999171,x,0.78863409999758,None,,,,,,,,SC_th,001,2025-03-07_12h26.04.223,MainFlow,2024.2.4,129.95856921037378,2025-03-07 12h26.16.672166 +0700,
1,3,1,word/wordth0013.png,84,84,0,x,0.6162641999544576,None,0,84,84,84,154.4197784999851,,,,,,,154.4197784999851,154.4197784999851,155.40664709999692,155.41061400005128,155.41061400005128,155.41061400005128,155.41061400005128,156.03139709995594,x,0.6162641999544576,None,,,,,,,,SC_th,001,2025-03-07_12h26.04.223,MainFlow,2024.2.4,129.95856921037378,2025-03-07 12h26.16.672166 +0700,
1,2,70,word/wordth0702.png,85,85,0,x,0.6433318000053987,None,0,85,85,85,156.03777359996457,,,,,,,156.03777359996457,156.03777359996457,157.02462130005006,157.0286642999854,157.0286642999854,157.0286642999854,157.0286642999854,157.67697430006228,x,0.6433318000053987,None,,,,,,,,SC_th,001,2025-03-07_12h26.04.223,MainFlow,2024.2.4,129.95856921037378,2025-03-07 12h26.16.672166 +0700,
1,1,7,word/wordth0071.png,86,86,0,z,0.7356198000488803,None,0,86,86,86,157.68337109999266,,,,,,,157.68337109999266,157.68337109999266,158.66971609997563,158.67390429996885,158.67390429996885,158.67390429996885,158.67390429996885,159.4131429999834,z,0.7356198000488803,None,,,,,,,,SC_th,001,2025-03-07_12h26.04.223,MainFlow,2024.2.4,129.95856921037378,2025-03-07 12h26.16.672166 +0700,
1,2,7,word/wordth0072.png,87,87,0,x,0.7980814999900758,None,0,87,87,87,159.41951499995776,,,,,,,159.41951499995776,159.41951499995776,160.40614770003594,160.41010340000503,160.41010340000503,160.41010340000503,160.41010340000503,161.21170089999214,x,0.7980814999900758,None,,,,,,,,SC_th,001,2025-03-07_12h26.04.223,MainFlow,2024.2.4,129.95856921037378,2025-03-07 12h26.16.672166 +0700,
1,2,24,word/wordth0242.png,88,88,0,x,0.5193317999364808,None,0,88,88,88,161.21807960001752,,,,,,,161.21807960001752,161.21807960001752,162.20462440000847,162.2090210999595,162.2090210999595,162.2090210999595,162.2090210999595,162.73241279996,x,0.5193317999364808,None,,,,,,,,SC_th,001,2025-03-07_12h26.04.223,MainFlow,2024.2.4,129.95856921037378,2025-03-07 12h26.16.672166 +0700,
1,3,26,word/wordth0263.png,89,89,0,x,0.7416265000356361,None,0,89,89,89,162.73888730001636,,,,,,,162.73888730001636,162.73888730001636,163.72577719995752,163.73000910005067,163.73000910005067,163.73000910005067,163.73000910005067,164.47562599997036,x,0.7416265000356361,None,,,,,,,,SC_th,001,2025-03-07_12h26.04.223,MainFlow,2024.2.4,129.95856921037378,2025-03-07 12h26.16.672166 +0700,
1,2,23,word/wordth0232.png,90,90,0,x,1.651170999975875,None,0,90,90,90,164.48203890002333,,,,,,,164.48203890002333,164.48203890002333,165.46904140000697,165.47330029995646,165.47330029995646,165.47330029995646,165.47330029995646,167.1280071999645,x,1.651170999975875,None,,,,,,,,SC_th,001,2025-03-07_12h26.04.223,MainFlow,2024.2.4,129.95856921037378,2025-03-07 12h26.16.672166 +0700,
1,2,75,word/wordth0752.png,91,91,0,x,0.902236899943091,None,0,91,91,91,167.13442640006542,,,,,,,167.13442640006542,167.13442640006542,168.12180409999564,168.12591080006678,168.12591080006678,168.12591080006678,168.12591080006678,169.03063150006346,x,0.902236899943091,None,,,,,,,,SC_th,001,2025-03-07_12h26.04.223,MainFlow,2024.2.4,129.95856921037378,2025-03-07 12h26.16.672166 +0700,
1,2,6,word/wordth0062.png,92,92,0,x,0.5389292000327259,None,0,92,92,92,169.0371107000392,,,,,,,169.0371107000392,169.0371107000392,170.02427659998648,170.02838120004162,170.02838120004162,170.02838120004162,170.02838120004162,170.57259200001135,x,0.5389292000327259,None,,,,,,,,SC_th,001,2025-03-07_12h26.04.223,MainFlow,2024.2.4,129.95856921037378,2025-03-07 12h26.16.672166 +0700,
1,2,93,word/wordth0932.png,93,93,0,x,1.5314886000705883,None,0,93,93,93,170.57897020003293,,,,,,,170.57897020003293,170.57897020003293,171.56584830000065,171.5696300000418,171.5696300000418,171.5696300000418,171.5696300000418,173.10718950000592,x,1.5314886000705883,None,,,,,,,,SC_th,001,2025-03-07_12h26.04.223,MainFlow,2024.2.4,129.95856921037378,2025-03-07 12h26.16.672166 +0700,
1,2,48,word/wordth0482.png,94,94,0,x,0.8683970000129193,None,0,94,94,94,173.11368940002285,,,,,,,173.11368940002285,173.11368940002285,174.10206020006444,174.10637489997316,174.10637489997316,174.10637489997316,174.10637489997316,174.9758616000181,x,0.8683970000129193,None,,,,,,,,SC_th,001,2025-03-07_12h26.04.223,MainFlow,2024.2.4,129.95856921037378,2025-03-07 12h26.16.672166 +0700,
1,1,70,word/wordth0701.png,95,95,0,z,0.8053752999985591,None,0,95,95,95,174.98219280003104,,,,,,,174.98219280003104,174.98219280003104,175.96923579997383,175.9734803000465,175.9734803000465,175.9734803000465,175.9734803000465,176.7813521999633,z,0.8053752999985591,None,,,,,,,,SC_th,001,2025-03-07_12h26.04.223,MainFlow,2024.2.4,129.95856921037378,2025-03-07 12h26.16.672166 +0700,
1,2,66,word/wordth0662.png,96,96,0,x,0.5793938999995589,None,0,96,96,96,176.78775600006338,,,,,,,176.78775600006338,176.78775600006338,177.77458089997526,177.77866259997245,177.77866259997245,177.77866259997245,177.77866259997245,178.36437419999857,x,0.5793938999995589,None,,,,,,,,SC_th,001,2025-03-07_12h26.04.223,MainFlow,2024.2.4,129.95856921037378,2025-03-07 12h26.16.672166 +0700,
1,1,26,word/wordth0261.png,97,97,0,z,0.8491599999833852,None,0,97,97,97,178.37083829997573,,,,,,,178.37083829997573,178.37083829997573,179.35733050003182,179.36194430000614,179.36194430000614,179.36194430000614,179.36194430000614,180.21201969997492,z,0.8491599999833852,None,,,,,,,,SC_th,001,2025-03-07_12h26.04.223,MainFlow,2024.2.4,129.95856921037378,2025-03-07 12h26.16.672166 +0700,
1,3,9,word/wordth0093.png,98,98,0,x,0.6011526000220329,None,0,98,98,98,180.21821530000307,,,,,,,180.21821530000307,180.21821530000307,181.20491039997432,181.20906570006628,181.20906570006628,181.20906570006628,181.20906570006628,181.81610599998385,x,0.6011526000220329,None,,,,,,,,SC_th,001,2025-03-07_12h26.04.223,MainFlow,2024.2.4,129.95856921037378,2025-03-07 12h26.16.672166 +0700,
1,2,61,word/wordth0612.png,99,99,0,x,0.8860963999759406,None,0,99,99,99,181.82218170003034,,,,,,,181.82218170003034,181.82218170003034,182.80939750000834,182.81380550004542,182.81380550004542,182.81380550004542,182.81380550004542,183.70452589995693,x,0.8860963999759406,None,,,,,,,,SC_th,001,2025-03-07_12h26.04.223,MainFlow,2024.2.4,129.95856921037378,2025-03-07 12h26.16.672166 +0700,
1,3,8,word/wordth0083.png,100,100,0,x,0.38580479996744543,None,0,100,100,100,183.71110790001694,,,,,,,183.71110790001694,183.71110790001694,184.69833399995696,184.7027391999727,184.7027391999727,184.7027391999727,184.7027391999727,185.09332039998844,x,0.38580479996744543,None,,,,,,,,SC_th,001,2025-03-07_12h26.04.223,MainFlow,2024.2.4,129.95856921037378,2025-03-07 12h26.16.672166 +0700,
1,1,8,word/wordth0081.png,101,101,0,z,0.5623122000833973,None,0,101,101,101,185.09991460002493,,,,,,,185.09991460002493,185.09991460002493,186.08693069999572,186.09108160005417,186.09108160005417,186.09108160005417,186.09108160005417,186.656156299985,z,0.5623122000833973,None,,,,,,,,SC_th,001,2025-03-07_12h26.04.223,MainFlow,2024.2.4,129.95856921037378,2025-03-07 12h26.16.672166 +0700,
1,2,44,word/wordth0442.png,102,102,0,x,0.5681457000318915,None,0,102,102,102,186.66253229998983,,,,,,,186.66253229998983,186.66253229998983,187.6492062000325,187.65332939999644,187.65332939999644,187.65332939999644,187.65332939999644,188.22534450003877,x,0.5681457000318915,None,,,,,,,,SC_th,001,2025-03-07_12h26.04.223,MainFlow,2024.2.4,129.95856921037378,2025-03-07 12h26.16.672166 +0700,
1,3,31,word/wordth0313.png,103,103,0,x,0.7767526999814436,None,0,103,103,103,188.2317289999919,,,,,,,188.2317289999919,188.2317289999919,189.21894839999732,189.2233343999833,189.2233343999833,189.2233343999833,189.2233343999833,190.00292160001118,x,0.7767526999814436,None,,,,,,,,SC_th,001,2025-03-07_12h26.04.223,MainFlow,2024.2.4,129.95856921037378,2025-03-07 12h26.16.672166 +0700,
1,1,89,word/wordth0891.png,104,104,0,z,1.303392600035295,None,0,104,104,104,190.009247399983,,,,,,,190.009247399983,190.009247399983,190.99673889996484,191.0008506999584,191.0008506999584,191.0008506999584,191.0008506999584,192.3089076000033,z,1.303392600035295,None,,,,,,,,SC_th,001,2025-03-07_12h26.04.223,MainFlow,2024.2.4,129.95856921037378,2025-03-07 12h26.16.672166 +0700,
1,3,70,word/wordth0703.png,105,105,0,x,1.9702889999607578,None,0,105,105,105,192.31469719996676,,,,,,,192.31469719996676,192.31469719996676,193.30231479997747,193.30626460001804,193.30626460001804,193.30626460001804,193.30626460001804,195.28082630003337,x,1.9702889999607578,None,,,,,,,,SC_th,001,2025-03-07_12h26.04.223,MainFlow,2024.2.4,129.95856921037378,2025-03-07 12h26.16.672166 +0700,
1,3,68,word/wordth0683.png,106,106,0,x,0.6377144999569282,None,0,106,106,106,195.2871318999678,,,,,,,195.2871318999678,195.2871318999678,196.2737433000002,196.27790580003057,196.27790580003057,196.27790580003057,196.27790580003057,196.91977070004214,x,0.6377144999569282,None,,,,,,,,SC_th,001,2025-03-07_12h26.04.223,MainFlow,2024.2.4,129.95856921037378,2025-03-07 12h26.16.672166 +0700,
1,3,10,word/wordth0103.png,107,107,0,x,1.0277656000107527,None,0,107,107,107,196.9261858999962,,,,,,,196.9261858999962,196.9261858999962,197.9128963999683,197.9169508999912,197.9169508999912,197.9169508999912,197.9169508999912,198.94750500004739,x,1.0277656000107527,None,,,,,,,,SC_th,001,2025-03-07_12h26.04.223,MainFlow,2024.2.4,129.95856921037378,2025-03-07 12h26.16.672166 +0700,
1,3,94,word/wordth0943.png,108,108,0,x,0.6077345999656245,None,0,108,108,108,198.95340180001222,,,,,,,198.95340180001222,198.95340180001222,199.940753199975,199.9455648000585,199.9455648000585,199.9455648000585,199.9455648000585,200.55859030003194,x,0.6077345999656245,None,,,,,,,,SC_th,001,2025-03-07_12h26.04.223,MainFlow,2024.2.4,129.95856921037378,2025-03-07 12h26.16.672166 +0700,
1,1,3,word/wordth0031.png,109,109,0,z,0.9219319000840187,None,0,109,109,109,200.5645251000533,,,,,,,200.5645251000533,200.5645251000533,201.55153100006282,201.55559480004013,201.55559480004013,201.55559480004013,201.55559480004013,202.48181380005553,z,0.9219319000840187,None,,,,,,,,SC_th,001,2025-03-07_12h26.04.223,MainFlow,2024.2.4,129.95856921037378,2025-03-07 12h26.16.672166 +0700,
1,3,63,word/wordth0633.png,110,110,0,x,0.6021396000869572,None,0,110,110,110,202.48818730004132,,,,,,,202.48818730004132,202.48818730004132,203.47523650003131,203.47927610005718,203.47927610005718,203.47927610005718,203.47927610005718,204.0858353000367,x,0.6021396000869572,None,,,,,,,,SC_th,001,2025-03-07_12h26.04.223,MainFlow,2024.2.4,129.95856921037378,2025-03-07 12h26.16.672166 +0700,
1,2,9,word/wordth0092.png,111,111,0,x,0.5729260999942198,None,0,111,111,111,204.09227230004035,,,,,,,204.09227230004035,204.09227230004035,205.07965319999494,205.08364239998627,205.08364239998627,205.08364239998627,205.08364239998627,205.6626844999846,x,0.5729260999942198,None,,,,,,,,SC_th,001,2025-03-07_12h26.04.223,MainFlow,2024.2.4,129.95856921037378,2025-03-07 12h26.16.672166 +0700,
1,3,7,word/wordth0073.png,112,112,0,x,0.49983580003026873,None,0,112,112,112,205.66895279998425,,,,,,,205.66895279998425,205.66895279998425,206.65561520005576,206.65988629998174,206.65988629998174,206.65988629998174,206.65988629998174,207.16245359997265,x,0.49983580003026873,None,,,,,,,,SC_th,001,2025-03-07_12h26.04.223,MainFlow,2024.2.4,129.95856921037378,2025-03-07 12h26.16.672166 +0700,
1,2,41,word/wordth0412.png,113,113,0,x,0.3843917000340298,None,0,113,113,113,207.1689187999582,,,,,,,207.1689187999582,207.1689187999582,208.15552550007124,208.1595202999888,208.1595202999888,208.1595202999888,208.1595202999888,208.55108360003214,x,0.3843917000340298,None,,,,,,,,SC_th,001,2025-03-07_12h26.04.223,MainFlow,2024.2.4,129.95856921037378,2025-03-07 12h26.16.672166 +0700,
1,1,9,word/wordth0091.png,114,114,0,z,0.6941512000048533,None,0,114,114,114,208.55761510005686,,,,,,,208.55761510005686,208.55761510005686,209.54462890001014,209.54900160001125,209.54900160001125,209.54900160001125,209.54900160001125,210.24546320002992,z,0.6941512000048533,None,,,,,,,,SC_th,001,2025-03-07_12h26.04.223,MainFlow,2024.2.4,129.95856921037378,2025-03-07 12h26.16.672166 +0700,
1,1,94,word/wordth0941.png,115,115,0,z,0.4845659000566229,None,0,115,115,115,210.25202390004415,,,,,,,210.25202390004415,210.25202390004415,211.2387858000584,211.24303610005882,211.24303610005882,211.24303610005882,211.24303610005882,211.73157910001464,z,0.4845659000566229,None,,,,,,,,SC_th,001,2025-03-07_12h26.04.223,MainFlow,2024.2.4,129.95856921037378,2025-03-07 12h26.16.672166 +0700,
1,1,52,word/wordth0521.png,116,116,0,z,0.5153726999415085,None,0,116,116,116,211.73795179999433,,,,,,,211.73795179999433,211.73795179999433,212.72527629998513,212.72992810001597,212.72992810001597,212.72992810001597,212.72992810001597,213.25237190001644,z,0.5153726999415085,None,,,,,,,,SC_th,001,2025-03-07_12h26.04.223,MainFlow,2024.2.4,129.95856921037378,2025-03-07 12h26.16.672166 +0700,
1,2,88,word/wordth0882.png,117,117,0,x,0.6397805999731645,None,0,117,117,117,213.25879770005122,,,,,,,213.25879770005122,213.25879770005122,214.2466451000655,214.2509114999557,214.2509114999557,214.2509114999557,214.2509114999557,214.8915095999837,x,0.6397805999731645,None,,,,,,,,SC_th,001,2025-03-07_12h26.04.223,MainFlow,2024.2.4,129.95856921037378,2025-03-07 12h26.16.672166 +0700,
1,1,41,word/wordth0411.png,118,118,0,z,1.0392872000811622,None,0,118,118,118,214.89779720001388,,,,,,,214.89779720001388,214.89779720001388,215.88447709998582,215.88865490001626,215.88865490001626,215.88865490001626,215.88865490001626,216.9330359000014,z,1.0392872000811622,None,,,,,,,,SC_th,001,2025-03-07_12h26.04.223,MainFlow,2024.2.4,129.95856921037378,2025-03-07 12h26.16.672166 +0700,
1,3,30,word/wordth0303.png,119,119,0,x,1.341270299977623,None,0,119,119,119,216.93951970001217,,,,,,,216.93951970001217,216.93951970001217,217.92645050003193,217.9305004000198,217.9305004000198,217.9305004000198,217.9305004000198,219.27353290002793,x,1.341270299977623,None,,,,,,,,SC_th,001,2025-03-07_12h26.04.223,MainFlow,2024.2.4,129.95856921037378,2025-03-07 12h26.16.672166 +0700,
,,,,,,,,,,,,,,,,,,,,,,,,,,,,,,,,219.27362079999875,219.27992580004502,219.27992580004502,221.34264930000063,space,2.0609349000733346,None,SC_th,001,2025-03-07_12h26.04.223,MainFlow,2024.2.4,129.95856921037378,2025-03-07 12h26.16.672166 +0700,
