lang,langpair,sequence,pairid,firstdir,seconddir,trials.thisRepN,trials.thisTrialN,trials.thisN,trials.thisIndex,thisRow.t,notes,tutorial.started,tutorial.stopped,key_instruct.keys,key_instruct.rt,key_instruct.duration,image_first.started,letterselect.started,instruct.started,key_resp.started,letterselect.stopped,key_resp.keys,key_resp.rt,key_resp.duration,blanknext.started,instruct_2.started,blanknext.stopped,image_first.stopped,instruct_2.stopped,ending.started,text_3.started,ending_key.started,ending.stopped,ending_key.keys,ending_key.rt,ending_key.duration,participant,session,date,expName,psychopyVersion,frameRate,expStart,
,,,,,,,,,,,,0.004634582999642589,7.475742541000727,space,7.420884375000242,None,,,,,,,,,,,,,,,,,,,,,ypth,001,2025-05-29_13h13.12.820,MainFlow,2024.1.5,None,2025-05-29 13h13.23.453647 +0700,
1,1,2,1,letter/letten092.png,letter/lettth022.png,0,0,0,0,7.526010083000074,,,,,,,7.526010083000074,8.4763662080004,8.490279999999984,8.490279999999984,9.389839583000139,x,0.8915522080005758,None,9.390464125001017,9.40169033300117,9.576291290999507,,,,,,,,,,ypth,001,2025-05-29_13h13.12.820,MainFlow,2024.1.5,None,2025-05-29 13h13.23.453647 +0700,
1,3,2,8,letter/lettgr153.png,letter/lettth013.png,0,1,1,1,9.59099362500092,,,,,,,9.59099362500092,10.576565125000343,10.588599665999936,10.588599665999936,11.056258208000145,x,0.45614525000019057,None,11.0565417910002,11.060957125000641,11.242947415999879,,,,,,,,,,ypth,001,2025-05-29_13h13.12.820,MainFlow,2024.1.5,None,2025-05-29 13h13.23.453647 +0700,
1,1,2,1,letter/letten092.png,letter/lettth022.png,0,2,2,2,11.257903833000455,,,,,,,11.257903833000455,12.24318087500069,12.255280625000523,12.255280625000523,12.689823333001186,x,0.42951949999951466,None,12.690158749999682,12.697570958000142,12.877035249999608,12.255280625000523,,,,,,,,,ypth,001,2025-05-29_13h13.12.820,MainFlow,2024.1.5,None,2025-05-29 13h13.23.453647 +0700,
1,2,2,4,letter/lettkh034.png,letter/lettth153.png,0,3,3,3,12.895882582999548,,,,,,,12.895882582999548,13.888555040999563,13.892688291000013,13.892688291000013,14.339661791000253,x,0.4392105000006268,None,14.339998790999744,14.34716358300102,14.52693708300103,,,,,,,,,,ypth,001,2025-05-29_13h13.12.820,MainFlow,2024.1.5,None,2025-05-29 13h13.23.453647 +0700,
1,2,2,4,letter/lettkh034.png,letter/lettth153.png,0,4,4,4,14.544089625000197,,,,,,,14.544089625000197,15.527236875001108,15.538618208000116,15.538618208000116,16.022920749999685,x,0.4736222909996286,None,16.023200625000754,16.03011695799978,16.21020212500116,15.538618208000116,,,,,,,,,ypth,001,2025-05-29_13h13.12.820,MainFlow,2024.1.5,None,2025-05-29 13h13.23.453647 +0700,
1,2,1,7,letter/lettth072.png,letter/lettkh033.png,0,5,5,5,16.22646591600096,,,,,,,16.22646591600096,17.21000045800065,17.22183983300056,17.22183983300056,17.726972250000472,z,0.5026639589996194,None,17.727255375000823,17.738160416000028,17.910043666001002,17.22183983300056,,,,,,,,,ypth,001,2025-05-29_13h13.12.820,MainFlow,2024.1.5,None,2025-05-29 13h13.23.453647 +0700,
1,2,1,2,letter/lettth032.png,letter/lettkh032.png,0,6,6,6,17.926052083001196,,,,,,,17.926052083001196,18.910047958001087,18.921874957999535,18.921874957999535,21.87302187500063,z,2.9389787079999223,None,21.87331308300054,21.877637040999616,22.059709832999943,18.921874957999535,,,,,,,,,ypth,001,2025-05-29_13h13.12.820,MainFlow,2024.1.5,None,2025-05-29 13h13.23.453647 +0700,
1,3,1,4,letter/lettth024.png,letter/lettgr064.png,0,7,7,7,22.07477687500068,,,,,,,22.07477687500068,23.05979975000082,23.0719095000004,23.0719095000004,23.760365665999416,z,0.6849967079997441,None,23.760647041000993,23.771827708000274,23.95565420800085,,23.971590582999852,,,,,,,,ypth,001,2025-05-29_13h13.12.820,MainFlow,2024.1.5,None,2025-05-29 13h13.23.453647 +0700,
1,2,1,5,letter/lettth024.png,letter/lettkh023.png,0,8,8,8,23.971590582999852,,,,,,,23.971590582999852,24.95559137500095,24.960288791000494,24.960288791000494,26.039377790999424,z,1.0765301669998735,None,26.03966125000079,26.046913457999835,26.22673974999998,24.960288791000494,,,,,,,,,ypth,001,2025-05-29_13h13.12.820,MainFlow,2024.1.5,None,2025-05-29 13h13.23.453647 +0700,
1,1,2,5,letter/letten041.png,letter/lettth152.png,0,9,9,9,26.242934290999983,,,,,,,26.242934290999983,27.226612915999794,27.238471750000826,27.238471750000826,27.7797759999994,x,0.5341846659994189,None,27.78003166599956,27.788483958000143,27.97223054099959,27.238471750000826,27.98942954099948,,,,,,,,ypth,001,2025-05-29_13h13.12.820,MainFlow,2024.1.5,None,2025-05-29 13h13.23.453647 +0700,
1,2,2,6,letter/lettkh033.png,letter/lettth161.png,0,10,10,10,27.98942954099948,,,,,,,27.98942954099948,28.97211199999947,28.976220208000086,28.976220208000086,29.43994025000029,x,0.46172766699964995,None,29.44025537500056,29.44727891600087,29.62628258299992,28.976220208000086,,,,,,,,,ypth,001,2025-05-29_13h13.12.820,MainFlow,2024.1.5,None,2025-05-29 13h13.23.453647 +0700,
1,3,2,7,letter/lettgr072.png,letter/lettth025.png,0,11,11,11,29.641455458000564,,,,,,,29.641455458000564,30.6268692499998,30.63851975000034,30.63851975000034,31.089492958000847,x,0.446958167000048,None,31.089769665999484,31.09659866599941,31.27685662499971,,,,,,,,,,ypth,001,2025-05-29_13h13.12.820,MainFlow,2024.1.5,None,2025-05-29 13h13.23.453647 +0700,
1,1,2,2,letter/letten062.png,letter/lettth061.png,0,12,12,12,31.29288508299942,,,,,,,31.29288508299942,32.27672537500075,32.28852404099962,32.28852404099962,32.797029040999405,x,0.5005498340015038,None,32.797319041001174,32.805106833000536,32.98881783300021,32.28852404099962,33.005297875000906,,,,,,,,ypth,001,2025-05-29_13h13.12.820,MainFlow,2024.1.5,None,2025-05-29 13h13.23.453647 +0700,
1,2,2,8,letter/lettkh031.png,letter/lettth153.png,0,13,13,13,33.005297875000906,,,,,,,33.005297875000906,33.98887425000066,33.99311708300047,33.99311708300047,34.58983862500099,x,0.5953832920004061,None,34.59012954100035,34.59714954099945,34.77671533300054,33.99311708300047,,,,,,,,,ypth,001,2025-05-29_13h13.12.820,MainFlow,2024.1.5,None,2025-05-29 13h13.23.453647 +0700,
1,2,2,2,letter/lettkh032.png,letter/lettth032.png,0,14,14,14,34.7920457500004,,,,,,,34.7920457500004,35.776655666000806,35.78829816600046,35.78829816600046,36.16055020800013,x,0.3687213339999289,None,36.16082741600076,36.17179479100014,36.35556804100088,35.78829816600046,36.37129170800108,,,,,,,,ypth,001,2025-05-29_13h13.12.820,MainFlow,2024.1.5,None,2025-05-29 13h13.23.453647 +0700,
1,3,2,1,letter/lettgr143.png,letter/lettth132.png,0,15,15,15,36.37129170800108,,,,,,,36.37129170800108,37.35558741600107,37.359873332999996,37.359873332999996,37.79651929099964,x,0.4291091659997619,None,37.796806874999675,37.80518820799989,37.988816332999704,37.359873332999996,38.004476375001104,,,,,,,,ypth,001,2025-05-29_13h13.12.820,MainFlow,2024.1.5,None,2025-05-29 13h13.23.453647 +0700,
1,3,2,6,letter/lettgr061.png,letter/lettth082.png,0,16,16,16,38.004476375001104,,,,,,,38.004476375001104,38.98885583300034,38.99320799999987,38.99320799999987,39.40621850000025,x,0.40381437500036554,None,39.40655754100044,39.41375212499952,39.59268179100036,38.99320799999987,,,,,,,,,ypth,001,2025-05-29_13h13.12.820,MainFlow,2024.1.5,None,2025-05-29 13h13.23.453647 +0700,
1,2,2,6,letter/lettkh033.png,letter/lettth161.png,0,17,17,17,39.607382833000884,,,,,,,39.607382833000884,40.5930338750004,40.60492916600015,40.60492916600015,40.96284608300084,x,0.35139512500063574,None,40.96312779100117,40.971696750000774,41.15540629099996,40.60492916600015,41.171801541000605,,,,,,,,ypth,001,2025-05-29_13h13.12.820,MainFlow,2024.1.5,None,2025-05-29 13h13.23.453647 +0700,
1,3,1,3,letter/lettth155.png,letter/lettgr153.png,0,18,18,18,41.171801541000605,,,,,,,41.171801541000605,42.155131875000734,42.159428332999596,42.159428332999596,42.6727617079996,z,0.50939820900021,None,42.67303708300096,42.67984466599955,42.859883125000124,42.159428332999596,,,,,,,,,ypth,001,2025-05-29_13h13.12.820,MainFlow,2024.1.5,None,2025-05-29 13h13.23.453647 +0700,
1,3,2,1,letter/lettgr143.png,letter/lettth132.png,0,19,19,19,42.87408891599989,,,,,,,42.87408891599989,43.8597099159997,43.87182637499973,43.87182637499973,44.42947062500025,x,0.5509085409994441,None,44.4297531659995,44.43843991600079,44.62211104100061,43.87182637499973,44.63794383300046,,,,,,,,ypth,001,2025-05-29_13h13.12.820,MainFlow,2024.1.5,None,2025-05-29 13h13.23.453647 +0700,
1,3,1,1,letter/lettth132.png,letter/lettgr143.png,0,20,20,20,44.63794383300046,,,,,,,44.63794383300046,45.622030291000556,45.626322041000094,45.626322041000094,46.196804416000305,z,0.5626046659999702,None,46.197091,46.204990750000434,46.38878450000084,45.626322041000094,46.404141166000045,,,,,,,,ypth,001,2025-05-29_13h13.12.820,MainFlow,2024.1.5,None,2025-05-29 13h13.23.453647 +0700,
1,1,2,8,letter/letten031.png,letter/lettth161.png,0,21,21,21,46.404141166000045,,,,,,,46.404141166000045,47.388750041000094,47.39296266600104,47.39296266600104,47.972649499999534,x,0.5713872920005088,None,47.97293270800037,47.97962283299967,48.16007016600088,47.39296266600104,,,,,,,,,ypth,001,2025-05-29_13h13.12.820,MainFlow,2024.1.5,None,2025-05-29 13h13.23.453647 +0700,
1,1,1,5,letter/lettth152.png,letter/letten041.png,0,22,22,22,48.17592112500097,,,,,,,48.17592112500097,49.15976329099976,49.17181566600084,49.17181566600084,49.78928833300051,z,0.6091327079993789,None,49.78956908300097,49.79620737500045,49.97650316600084,49.17181566600084,,,,,,,,,ypth,001,2025-05-29_13h13.12.820,MainFlow,2024.1.5,None,2025-05-29 13h13.23.453647 +0700,
1,1,2,6,letter/letten153.png,letter/lettth024.png,0,23,23,23,49.991506791000575,,,,,,,49.991506791000575,50.97649108299993,50.988336000000345,50.988336000000345,51.422628083000745,x,0.42358208400037256,None,51.42290037500061,51.42978137499995,51.609942000000956,50.988336000000345,,,,,,,,,ypth,001,2025-05-29_13h13.12.820,MainFlow,2024.1.5,None,2025-05-29 13h13.23.453647 +0700,
1,1,1,8,letter/lettth161.png,letter/letten031.png,0,24,24,24,51.6259229999996,,,,,,,51.6259229999996,52.60972541599949,52.62161179100076,52.62161179100076,53.196541625000464,z,0.5673200000001088,None,53.196827375000794,53.20498820800094,53.388776375000816,52.62161179100076,53.40495316600027,,,,,,,,ypth,001,2025-05-29_13h13.12.820,MainFlow,2024.1.5,None,2025-05-29 13h13.23.453647 +0700,
1,3,1,1,letter/lettth132.png,letter/lettgr143.png,0,25,25,25,53.40495316600027,,,,,,,53.40495316600027,54.38866224999947,54.39285866600039,54.39285866600039,54.88921141600076,z,0.4927504589995806,None,54.889500041001156,54.89637979100007,55.07622541599994,54.39285866600039,,,,,,,,,ypth,001,2025-05-29_13h13.12.820,MainFlow,2024.1.5,None,2025-05-29 13h13.23.453647 +0700,
1,3,2,4,letter/lettgr064.png,letter/lettth024.png,0,26,26,26,55.09242408300088,,,,,,,55.09242408300088,56.076523040999746,56.08838404100061,56.08838404100061,56.41268404100083,x,0.31705945800058544,None,56.41296620799949,56.42169666600057,56.60538104099942,56.08838404100061,56.620879375001095,,,,,,,,ypth,001,2025-05-29_13h13.12.820,MainFlow,2024.1.5,None,2025-05-29 13h13.23.453647 +0700,
1,2,1,6,letter/lettth161.png,letter/lettkh033.png,0,27,27,27,56.620879375001095,,,,,,,56.620879375001095,57.605319415999475,57.60952449999968,57.60952449999968,58.10593358299957,z,0.4922709170004964,None,58.10621158300091,58.11339891600073,58.293416041000455,57.60952449999968,,,,,,,,,ypth,001,2025-05-29_13h13.12.820,MainFlow,2024.1.5,None,2025-05-29 13h13.23.453647 +0700,
1,2,1,1,letter/lettth061.png,letter/lettkh034.png,0,28,28,28,58.30968658300117,,,,,,,58.30968658300117,59.293017375001,59.304940416001045,59.304940416001045,59.77994475000014,z,0.46755799999846204,None,59.7802265829996,59.78811320800014,59.97198370800106,59.304940416001045,59.988766000000396,,,,,,,,ypth,001,2025-05-29_13h13.12.820,MainFlow,2024.1.5,None,2025-05-29 13h13.23.453647 +0700,
1,1,2,7,letter/letten051.png,letter/lettth025.png,0,29,29,29,59.988766000000396,,,,,,,59.988766000000396,60.97211820800112,60.97675912500017,60.97675912500017,61.34336695800084,x,0.3633737919990381,None,61.34365558299942,61.35481937500117,61.53867841600004,60.97675912500017,61.55510383299952,,,,,,,,ypth,001,2025-05-29_13h13.12.820,MainFlow,2024.1.5,None,2025-05-29 13h13.23.453647 +0700,
1,2,2,7,letter/lettkh033.png,letter/lettth072.png,0,30,30,30,61.55510383299952,,,,,,,61.55510383299952,62.53869137500078,62.54338550000102,62.54338550000102,63.03916754100101,x,0.4944033749998198,None,63.03945037499943,63.04618895800013,63.22610225000062,62.54338550000102,,,,,,,,,ypth,001,2025-05-29_13h13.12.820,MainFlow,2024.1.5,None,2025-05-29 13h13.23.453647 +0700,
1,2,1,8,letter/lettth153.png,letter/lettkh031.png,0,31,31,31,63.24120183299965,,,,,,,63.24120183299965,64.22619433299951,64.23823670800084,64.23823670800084,64.67275800000061,z,0.4224912919999042,None,64.67305558299995,64.67739816600078,64.85985429100037,,,,,,,,,,ypth,001,2025-05-29_13h13.12.820,MainFlow,2024.1.5,None,2025-05-29 13h13.23.453647 +0700,
1,1,1,2,letter/lettth061.png,letter/letten062.png,0,32,32,32,64.8751580829994,,,,,,,64.8751580829994,65.85960387500018,65.87163320800028,65.87163320800028,66.3434442910002,z,0.4691611250000278,None,66.3437210000011,66.35495850000007,66.53853400000116,65.87163320800028,66.55427983300069,,,,,,,,ypth,001,2025-05-29_13h13.12.820,MainFlow,2024.1.5,None,2025-05-29 13h13.23.453647 +0700,
1,3,1,7,letter/lettth025.png,letter/lettgr072.png,0,33,33,33,66.55427983300069,,,,,,,66.55427983300069,67.5385714160002,67.54277662499953,67.54277662499953,68.03937879099976,z,0.48566487500102085,None,68.03966208299971,68.04657933300041,68.22619045800093,67.54277662499953,,,,,,,,,ypth,001,2025-05-29_13h13.12.820,MainFlow,2024.1.5,None,2025-05-29 13h13.23.453647 +0700,
1,1,1,3,letter/lettth092.png,letter/letten041.png,0,34,34,34,68.24117991599996,,,,,,,68.24117991599996,69.22631583300063,69.23815883300085,69.23815883300085,69.65615500000058,z,0.4157536250004341,None,69.65648670799965,69.66363691600054,69.84276350000073,69.23815883300085,,,,,,,,,ypth,001,2025-05-29_13h13.12.820,MainFlow,2024.1.5,None,2025-05-29 13h13.23.453647 +0700,
1,3,1,5,letter/lettth052.png,letter/lettgr141.png,0,35,35,35,69.85852095799964,,,,,,,69.85852095799964,70.84305295800004,70.85488654100118,70.85488654100118,71.12702854100098,z,0.27039404200149875,None,71.12730200000078,71.13824399999976,71.32189450000078,70.85488654100118,71.33697470799962,,,,,,,,ypth,001,2025-05-29_13h13.12.820,MainFlow,2024.1.5,None,2025-05-29 13h13.23.453647 +0700,
1,1,1,6,letter/lettth024.png,letter/letten153.png,0,36,36,36,71.33697470799962,,,,,,,71.33697470799962,72.32189545800065,72.3260839579998,72.3260839579998,72.76024241599953,z,0.4306568329993752,None,72.76051924999956,72.77158529100052,72.94316579100087,72.3260839579998,,,,,,,,,ypth,001,2025-05-29_13h13.12.820,MainFlow,2024.1.5,None,2025-05-29 13h13.23.453647 +0700,
1,1,1,3,letter/lettth092.png,letter/letten041.png,0,37,37,37,72.95849791600085,,,,,,,72.95849791600085,73.94318625000051,73.95485316600025,73.95485316600025,74.40588808299981,z,0.4416092909996223,None,74.40617141599978,74.41294645800008,74.59259941600067,73.95485316600025,,,,,,,,,ypth,001,2025-05-29_13h13.12.820,MainFlow,2024.1.5,None,2025-05-29 13h13.23.453647 +0700,
1,1,1,7,letter/lettth025.png,letter/letten051.png,0,38,38,38,74.60639016599998,,,,,,,74.60639016599998,75.59326145799969,75.60486466600014,75.60486466600014,76.0724650000011,z,0.46437683400108654,None,76.0727378749998,76.07979270800024,76.25997091600038,,,,,,,,,,ypth,001,2025-05-29_13h13.12.820,MainFlow,2024.1.5,None,2025-05-29 13h13.23.453647 +0700,
1,3,1,6,letter/lettth082.png,letter/lettgr061.png,0,39,39,39,76.27783554100097,,,,,,,76.27783554100097,77.27160716599974,77.27579045799939,77.27579045799939,77.77925733300071,z,0.4962203340000997,None,77.77954004099956,77.7882606660005,77.97186741599944,,77.98776949999956,,,,,,,,ypth,001,2025-05-29_13h13.12.820,MainFlow,2024.1.5,None,2025-05-29 13h13.23.453647 +0700,
1,2,1,4,letter/lettth153.png,letter/lettkh034.png,0,40,40,40,77.98776949999956,,,,,,,77.98776949999956,78.97193745799996,78.97674800000095,78.97674800000095,79.92702654099958,z,0.9475002500003029,None,79.92731329100025,79.9382704159998,80.1222077500006,78.97674800000095,80.13789700000052,,,,,,,,ypth,001,2025-05-29_13h13.12.820,MainFlow,2024.1.5,None,2025-05-29 13h13.23.453647 +0700,
1,3,2,8,letter/lettgr153.png,letter/lettth013.png,0,41,41,41,80.13789700000052,,,,,,,80.13789700000052,81.12181662500006,81.12603016600042,81.12603016600042,81.54334062499947,x,0.4144121659992379,None,81.54362104100073,81.5546987079997,81.7385991659994,81.12603016600042,81.75451491599961,,,,,,,,ypth,001,2025-05-29_13h13.12.820,MainFlow,2024.1.5,None,2025-05-29 13h13.23.453647 +0700,
1,1,1,4,letter/lettth041.png,letter/letten091.png,0,42,42,42,81.75451491599961,,,,,,,81.75451491599961,82.73854558300081,82.74279229100102,82.74279229100102,83.27241266599958,z,0.5180372909999278,None,83.27268829100103,83.2796007500001,83.45971895799994,82.74279229100102,,,,,,,,,ypth,001,2025-05-29_13h13.12.820,MainFlow,2024.1.5,None,2025-05-29 13h13.23.453647 +0700,
1,3,1,8,letter/lettth013.png,letter/lettgr153.png,0,43,43,43,83.47661449999941,,,,,,,83.47661449999941,84.45952812500036,84.47154070800025,84.47154070800025,84.85577637499955,z,0.37225662499986356,None,84.85606433300018,84.860445833001,85.04364462500052,84.47154070800025,85.06012908299999,,,,,,,,ypth,001,2025-05-29_13h13.12.820,MainFlow,2024.1.5,None,2025-05-29 13h13.23.453647 +0700,
1,2,1,3,letter/lettth112.png,letter/lettkh031.png,0,44,44,44,85.06012908299999,,,,,,,85.06012908299999,86.04304145800052,86.05476929100041,86.05476929100041,86.47270862500045,z,0.4058180000010907,None,86.47304341600102,86.47996029100068,86.65966195799956,86.05476929100041,,,,,,,,,ypth,001,2025-05-29_13h13.12.820,MainFlow,2024.1.5,None,2025-05-29 13h13.23.453647 +0700,
1,1,2,2,letter/letten062.png,letter/lettth061.png,0,45,45,45,86.67628487500042,,,,,,,86.67628487500042,87.65980004099947,87.67146137500094,87.67146137500094,88.12742933300069,x,0.4528021659989463,None,88.12770900000032,88.1382357500006,88.32179929099948,,88.33636237500104,,,,,,,,ypth,001,2025-05-29_13h13.12.820,MainFlow,2024.1.5,None,2025-05-29 13h13.23.453647 +0700,
1,3,1,7,letter/lettth025.png,letter/lettgr072.png,0,46,46,46,88.33636237500104,,,,,,,88.33636237500104,89.32186766599989,89.3262324160005,89.3262324160005,89.78937816600046,z,0.4543260830014333,None,89.78967808299967,89.79665320800086,89.97731704100079,89.3262324160005,,,,,,,,,ypth,001,2025-05-29_13h13.12.820,MainFlow,2024.1.5,None,2025-05-29 13h13.23.453647 +0700,
1,1,1,7,letter/lettth025.png,letter/letten051.png,0,47,47,47,89.99197787500088,,,,,,,89.99197787500088,90.97627104099956,90.98808033299974,90.98808033299974,91.42940166600056,z,0.4337432499996794,None,91.429685041001,91.43817337499968,91.62182879099964,90.98808033299974,91.63922562500011,,,,,,,,ypth,001,2025-05-29_13h13.12.820,MainFlow,2024.1.5,None,2025-05-29 13h13.23.453647 +0700,
1,2,2,5,letter/lettkh023.png,letter/lettth024.png,0,48,48,48,91.63922562500011,,,,,,,91.63922562500011,92.62613812500058,92.63809258299989,92.63809258299989,93.05552358299974,x,0.4150109160000284,None,93.05580620799992,93.06266116600091,93.23866904100032,,,,,,,,,,ypth,001,2025-05-29_13h13.12.820,MainFlow,2024.1.5,None,2025-05-29 13h13.23.453647 +0700,
1,2,1,5,letter/lettth024.png,letter/lettkh023.png,0,49,49,49,93.25448499999948,,,,,,,93.25448499999948,94.2384513750003,94.24257379099981,94.24257379099981,94.7225831249998,z,0.47404091699900164,None,94.722911750001,94.72996870799943,94.90981124999962,94.24257379099981,,,,,,,,,ypth,001,2025-05-29_13h13.12.820,MainFlow,2024.1.5,None,2025-05-29 13h13.23.453647 +0700,
1,3,2,5,letter/lettgr141.png,letter/lettth052.png,0,50,50,50,94.92699012500088,,,,,,,94.92699012500088,95.92164229099944,95.92587070800073,95.92587070800073,96.28906162500061,x,0.35914283400052227,None,96.2893382910006,96.29622208299952,96.47637874999964,,,,,,,,,,ypth,001,2025-05-29_13h13.12.820,MainFlow,2024.1.5,None,2025-05-29 13h13.23.453647 +0700,
1,2,2,8,letter/lettkh031.png,letter/lettth153.png,0,51,51,51,96.4909525410003,,,,,,,96.4909525410003,97.47636466599943,97.4880434580009,97.4880434580009,97.85591108300105,x,0.3558716250008729,None,97.85620037499939,97.86049420800009,98.04260791600063,97.4880434580009,,,,,,,,,ypth,001,2025-05-29_13h13.12.820,MainFlow,2024.1.5,None,2025-05-29 13h13.23.453647 +0700,
1,1,2,5,letter/letten041.png,letter/lettth152.png,0,52,52,52,98.05640308300099,,,,,,,98.05640308300099,99.04302758300037,99.05471783299981,99.05471783299981,99.40580387500086,x,0.34279766700092296,None,99.40608883300047,99.41292833300031,99.5929891249998,99.05471783299981,,,,,,,,,ypth,001,2025-05-29_13h13.12.820,MainFlow,2024.1.5,None,2025-05-29 13h13.23.453647 +0700,
1,1,1,1,letter/lettth022.png,letter/letten092.png,0,53,53,53,99.60980399999971,,,,,,,99.60980399999971,100.59273379099977,100.60477629100023,100.60477629100023,101.05570708300002,z,0.4393855420003092,None,101.05598408300102,101.06286737499977,101.24251995800114,100.60477629100023,,,,,,,,,ypth,001,2025-05-29_13h13.12.820,MainFlow,2024.1.5,None,2025-05-29 13h13.23.453647 +0700,
1,2,1,1,letter/lettth061.png,letter/lettkh034.png,0,54,54,54,101.25792300000103,,,,,,,101.25792300000103,102.24275237500115,102.25466112499998,102.25466112499998,102.90569829100059,z,0.6382855420015403,None,102.90598454100109,102.91035566600112,103.09418591600115,102.25466112499998,103.1102713750006,,,,,,,,ypth,001,2025-05-29_13h13.12.820,MainFlow,2024.1.5,None,2025-05-29 13h13.23.453647 +0700,
1,3,2,4,letter/lettgr064.png,letter/lettth024.png,0,55,55,55,103.1102713750006,,,,,,,103.1102713750006,104.1047463750001,104.10891804099992,104.10891804099992,104.52731337499972,x,0.41635241600124573,None,104.52759024999978,104.53822349999973,104.72181233300034,,104.73764808300075,,,,,,,,ypth,001,2025-05-29_13h13.12.820,MainFlow,2024.1.5,None,2025-05-29 13h13.23.453647 +0700,
1,3,1,5,letter/lettth052.png,letter/lettgr141.png,0,56,56,56,104.73764808300075,,,,,,,104.73764808300075,105.7217892080007,105.72640820800007,105.72640820800007,106.1725103330009,z,0.43886808400020527,None,106.17284074999952,106.17990599999939,106.35909983300007,105.72640820800007,,,,,,,,,ypth,001,2025-05-29_13h13.12.820,MainFlow,2024.1.5,None,2025-05-29 13h13.23.453647 +0700,
1,1,1,8,letter/lettth161.png,letter/letten031.png,0,57,57,57,106.37548020800023,,,,,,,106.37548020800023,107.35943362500075,107.37137904100018,107.37137904100018,108.33902762500111,z,0.9616922919994977,None,108.33930541600057,108.34581254099976,108.52693616600118,107.37137904100018,,,,,,,,,ypth,001,2025-05-29_13h13.12.820,MainFlow,2024.1.5,None,2025-05-29 13h13.23.453647 +0700,
1,1,1,4,letter/lettth041.png,letter/letten091.png,0,58,58,58,108.54339358300058,,,,,,,108.54339358300058,109.52619195800071,109.53801191599996,109.53801191599996,109.9559812080006,z,0.410483124998791,None,109.95631654099998,109.963474958,110.14301783300107,109.53801191599996,,,,,,,,,ypth,001,2025-05-29_13h13.12.820,MainFlow,2024.1.5,None,2025-05-29 13h13.23.453647 +0700,
1,2,1,4,letter/lettth153.png,letter/lettkh034.png,0,59,59,59,110.1599350409997,,,,,,,110.1599350409997,111.14337850000084,111.15480566599945,111.15480566599945,111.77225729100064,z,0.6091058750007505,None,111.77253366600053,111.77938025000003,111.95919225000034,111.15480566599945,,,,,,,,,ypth,001,2025-05-29_13h13.12.820,MainFlow,2024.1.5,None,2025-05-29 13h13.23.453647 +0700,
1,1,2,3,letter/letten041.png,letter/lettth092.png,0,60,60,60,111.97563016599997,,,,,,,111.97563016599997,112.95949341599953,112.97137679099978,112.97137679099978,113.37245295799949,x,0.3931601669992233,None,113.37272587500047,113.37961374999941,113.55960304099972,112.97137679099978,,,,,,,,,ypth,001,2025-05-29_13h13.12.820,MainFlow,2024.1.5,None,2025-05-29 13h13.23.453647 +0700,
1,3,2,2,letter/lettgr072.png,letter/lettth052.png,0,61,61,61,113.57489241599978,,,,,,,113.57489241599978,114.55940187499982,114.57132620800076,114.57132620800076,114.90564720800103,x,0.32936187500126834,None,114.90597737499957,114.91291241600084,115.09291183300047,114.57132620800076,,,,,,,,,ypth,001,2025-05-29_13h13.12.820,MainFlow,2024.1.5,None,2025-05-29 13h13.23.453647 +0700,
1,1,2,8,letter/letten031.png,letter/lettth161.png,0,62,62,62,115.10929575000046,,,,,,,115.10929575000046,116.09313754100003,116.10458358300093,116.10458358300093,116.72658229099943,x,0.6200729169995611,None,116.72686075000092,116.73774849999973,116.91010354100035,116.10458358300093,,,,,,,,,ypth,001,2025-05-29_13h13.12.820,MainFlow,2024.1.5,None,2025-05-29 13h13.23.453647 +0700,
1,1,1,5,letter/lettth152.png,letter/letten041.png,0,63,63,63,116.92476791599984,,,,,,,116.92476791599984,117.90928275000078,117.92117937500007,117.92117937500007,118.39590654099993,z,0.46821533299953444,None,118.3961857079994,118.40467691599952,118.58865612500085,117.92117937500007,118.60349541600044,,,,,,,,ypth,001,2025-05-29_13h13.12.820,MainFlow,2024.1.5,None,2025-05-29 13h13.23.453647 +0700,
1,2,2,2,letter/lettkh032.png,letter/lettth032.png,0,64,64,64,118.60349541600044,,,,,,,118.60349541600044,119.58836829100073,119.59278220800115,119.59278220800115,120.08835137499955,x,0.48322458300026483,None,120.0886407500002,120.09291420800037,120.27164416599953,119.59278220800115,,,,,,,,,ypth,001,2025-05-29_13h13.12.820,MainFlow,2024.1.5,None,2025-05-29 13h13.23.453647 +0700,
1,3,1,2,letter/lettth052.png,letter/lettgr072.png,0,65,65,65,120.28783166600078,,,,,,,120.28783166600078,121.27158849999978,121.27590279099968,121.27590279099968,121.75556166600109,z,0.4726970840001741,None,121.75583570799972,121.7626575409995,121.94279350000033,121.27590279099968,,,,,,,,,ypth,001,2025-05-29_13h13.12.820,MainFlow,2024.1.5,None,2025-05-29 13h13.23.453647 +0700,
1,1,2,4,letter/letten091.png,letter/lettth041.png,0,66,66,66,121.95874200000071,,,,,,,121.95874200000071,122.94274395799948,122.95465608300037,122.95465608300037,123.30556679100118,x,0.3465444169996772,None,123.30585416600115,123.31258558300033,123.4934385409997,122.95465608300037,,,,,,,,,ypth,001,2025-05-29_13h13.12.820,MainFlow,2024.1.5,None,2025-05-29 13h13.23.453647 +0700,
1,3,2,5,letter/lettgr141.png,letter/lettth052.png,0,67,67,67,123.50836100000015,,,,,,,123.50836100000015,124.49270554100076,124.50458329100002,124.50458329100002,124.87225116599984,x,0.3557925419991079,None,124.87250879100066,124.87664362500072,125.06031479100056,124.50458329100002,125.07541095800116,,,,,,,,ypth,001,2025-05-29_13h13.12.820,MainFlow,2024.1.5,None,2025-05-29 13h13.23.453647 +0700,
1,2,2,3,letter/lettkh031.png,letter/lettth112.png,0,68,68,68,125.07541095800116,,,,,,,125.07541095800116,126.05946604100063,126.0711336660006,126.0711336660006,126.42248816600113,x,0.3411413750000065,None,126.4228296250003,126.43009191599958,126.60927083299975,126.0711336660006,,,,,,,,,ypth,001,2025-05-29_13h13.12.820,MainFlow,2024.1.5,None,2025-05-29 13h13.23.453647 +0700,
1,3,2,7,letter/lettgr072.png,letter/lettth025.png,0,69,69,69,126.62499399999979,,,,,,,126.62499399999979,127.60937987500074,127.62120683300054,127.62120683300054,127.83889366599942,x,0.2060882080004376,None,127.83916620800119,127.84614833300111,128.02642408300017,127.62120683300054,,,,,,,,,ypth,001,2025-05-29_13h13.12.820,MainFlow,2024.1.5,None,2025-05-29 13h13.23.453647 +0700,
1,3,2,2,letter/lettgr072.png,letter/lettth052.png,0,70,70,70,128.0405120409996,,,,,,,128.0405120409996,129.02601637500084,129.03794679100065,129.03794679100065,129.25558487499984,x,0.21501899999930174,None,129.25585995800066,129.2627629159997,129.4428769160004,129.03794679100065,,,,,,,,,ypth,001,2025-05-29_13h13.12.820,MainFlow,2024.1.5,None,2025-05-29 13h13.23.453647 +0700,
1,1,1,1,letter/lettth022.png,letter/letten092.png,0,71,71,71,129.4598620830002,,,,,,,129.4598620830002,130.4425463330008,130.45466779100025,130.45466779100025,130.87229916599972,z,0.4141016249996028,None,130.87257783300083,130.8788029999996,131.05937454100058,130.45466779100025,,,,,,,,,ypth,001,2025-05-29_13h13.12.820,MainFlow,2024.1.5,None,2025-05-29 13h13.23.453647 +0700,
1,3,1,6,letter/lettth082.png,letter/lettgr061.png,0,72,72,72,131.07513679099975,,,,,,,131.07513679099975,132.0593940409999,132.0711686249997,132.0711686249997,132.55553529099961,z,0.4767145830010122,None,132.55581183300092,132.56278550000025,132.7428327079997,132.0711686249997,,,,,,,,,ypth,001,2025-05-29_13h13.12.820,MainFlow,2024.1.5,None,2025-05-29 13h13.23.453647 +0700,
1,2,1,7,letter/lettth072.png,letter/lettkh033.png,0,73,73,73,132.7568097910007,,,,,,,132.7568097910007,133.74261545800073,133.7545084579997,133.7545084579997,134.45567737500096,z,0.6897192500000529,None,134.45595758300078,134.46033245800027,134.64365279100093,133.7545084579997,134.65906433300006,,,,,,,,ypth,001,2025-05-29_13h13.12.820,MainFlow,2024.1.5,None,2025-05-29 13h13.23.453647 +0700,
1,3,2,6,letter/lettgr061.png,letter/lettth082.png,0,74,74,74,134.65906433300006,,,,,,,134.65906433300006,135.6452452909998,135.65449808300036,135.65449808300036,138.6722438329998,x,3.015215500001432,None,138.67254633300035,138.67990641600045,138.85900208299972,,,,,,,,,,ypth,001,2025-05-29_13h13.12.820,MainFlow,2024.1.5,None,2025-05-29 13h13.23.453647 +0700,
1,1,2,6,letter/letten153.png,letter/lettth024.png,0,75,75,75,138.87504887500108,,,,,,,138.87504887500108,139.85931216599965,139.8711682080011,139.8711682080011,140.67234870799984,x,0.7900834579995717,None,140.67262845799996,140.67964108300112,140.85899883300044,139.8711682080011,,,,,,,,,ypth,001,2025-05-29_13h13.12.820,MainFlow,2024.1.5,None,2025-05-29 13h13.23.453647 +0700,
1,2,2,1,letter/lettkh034.png,letter/lettth061.png,0,76,76,76,140.8745635409996,,,,,,,140.8745635409996,141.8594765830003,141.87117704100092,141.87117704100092,142.2720643749999,x,0.3983963750015391,None,142.27234558300006,142.2791771659995,142.45967870800087,,,,,,,,,,ypth,001,2025-05-29_13h13.12.820,MainFlow,2024.1.5,None,2025-05-29 13h13.23.453647 +0700,
1,2,1,6,letter/lettth161.png,letter/lettkh033.png,0,77,77,77,142.47560441600035,,,,,,,142.47560441600035,143.4592801660001,143.47114962500018,143.47114962500018,144.07237075000012,z,0.5984781660008593,None,144.07271866600058,144.08006275000116,144.25954704099968,143.47114962500018,,,,,,,,,ypth,001,2025-05-29_13h13.12.820,MainFlow,2024.1.5,None,2025-05-29 13h13.23.453647 +0700,
1,2,2,7,letter/lettkh033.png,letter/lettth072.png,0,78,78,78,144.27577550000024,,,,,,,144.27577550000024,145.25914066599944,145.27107608299957,145.27107608299957,145.60592845800056,x,0.33347566699922027,None,145.6062707910005,145.61322441599987,145.792232916001,145.27107608299957,,,,,,,,,ypth,001,2025-05-29_13h13.12.820,MainFlow,2024.1.5,None,2025-05-29 13h13.23.453647 +0700,
1,2,1,8,letter/lettth153.png,letter/lettkh031.png,0,79,79,79,145.80866937500105,,,,,,,145.80866937500105,146.79251216600096,146.80448441599947,146.80448441599947,147.27228795799965,z,0.455715207999674,None,147.27257787500093,147.27686354100115,147.45998220799993,146.80448441599947,147.47617970800093,,,,,,,,ypth,001,2025-05-29_13h13.12.820,MainFlow,2024.1.5,None,2025-05-29 13h13.23.453647 +0700,
1,3,1,2,letter/lettth052.png,letter/lettgr072.png,0,80,80,80,147.47617970800093,,,,,,,147.47617970800093,148.45931500000006,148.47111525000037,148.47111525000037,149.17234375000044,z,0.6933365839995531,None,149.17268833300113,149.1801513749997,149.3599919999997,148.47111525000037,,,,,,,,,ypth,001,2025-05-29_13h13.12.820,MainFlow,2024.1.5,None,2025-05-29 13h13.23.453647 +0700,
1,2,1,2,letter/lettth032.png,letter/lettkh032.png,0,81,81,81,149.3757897079995,,,,,,,149.3757897079995,150.35918712500097,150.37106049999966,150.37106049999966,152.50996666600076,z,2.1374036249999335,None,152.51025458299955,152.52084829100022,152.7052109159995,150.37106049999966,152.72158325000055,,,,,,,,ypth,001,2025-05-29_13h13.12.820,MainFlow,2024.1.5,None,2025-05-29 13h13.23.453647 +0700,
1,1,2,7,letter/letten051.png,letter/lettth025.png,0,82,82,82,152.72158325000055,,,,,,,152.72158325000055,153.7047798750009,153.7089526660002,153.7089526660002,155.54298879099952,x,1.8315615840001556,None,155.5432663749998,155.55443887500041,155.73816824999994,153.7089526660002,155.75510866600052,,,,,,,,ypth,001,2025-05-29_13h13.12.820,MainFlow,2024.1.5,None,2025-05-29 13h13.23.453647 +0700,
1,3,1,4,letter/lettth024.png,letter/lettgr064.png,0,83,83,83,155.75510866600052,,,,,,,155.75510866600052,156.73808825000015,156.7422722499996,156.7422722499996,157.27206362499965,z,0.5182957500001066,None,157.27234712500103,157.27657845800059,157.46052216600037,156.7422722499996,157.4760815410009,,,,,,,,ypth,001,2025-05-29_13h13.12.820,MainFlow,2024.1.5,None,2025-05-29 13h13.23.453647 +0700,
1,3,2,3,letter/lettgr153.png,letter/lettth155.png,0,84,84,84,157.4760815410009,,,,,,,157.4760815410009,158.4591730000011,158.47107491600036,158.47107491600036,158.9387327910008,x,0.4619164159994398,None,158.93900583300092,158.9459914580002,159.125344166001,158.47107491600036,,,,,,,,,ypth,001,2025-05-29_13h13.12.820,MainFlow,2024.1.5,None,2025-05-29 13h13.23.453647 +0700,
1,1,1,6,letter/lettth024.png,letter/letten153.png,0,85,85,85,159.14112208299957,,,,,,,159.14112208299957,160.12622187499983,160.13765570800024,160.13765570800024,160.74308862500038,z,0.6028606670006411,None,160.74337158300114,160.7543874160001,160.93807233299958,,160.95355570799984,,,,,,,,ypth,001,2025-05-29_13h13.12.820,MainFlow,2024.1.5,None,2025-05-29 13h13.23.453647 +0700,
1,1,2,3,letter/letten041.png,letter/lettth092.png,0,86,86,86,160.95355570799984,,,,,,,160.95355570799984,161.9380304999995,161.94215358300062,161.94215358300062,162.772003166001,x,0.822174291999545,None,162.77228154099976,162.77889800000048,162.95881616599945,161.94215358300062,,,,,,,,,ypth,001,2025-05-29_13h13.12.820,MainFlow,2024.1.5,None,2025-05-29 13h13.23.453647 +0700,
1,2,2,1,letter/lettkh034.png,letter/lettth061.png,0,87,87,87,162.97321966600066,,,,,,,162.97321966600066,163.9591121249996,163.971064708001,163.971064708001,164.37203662499996,x,0.39261229199837544,None,164.37231779099966,164.3792596660005,164.55877170799977,163.971064708001,,,,,,,,,ypth,001,2025-05-29_13h13.12.820,MainFlow,2024.1.5,None,2025-05-29 13h13.23.453647 +0700,
1,3,1,3,letter/lettth155.png,letter/lettgr153.png,0,88,88,88,164.57376479100094,,,,,,,164.57376479100094,165.55933841600017,165.57086316599998,165.57086316599998,166.1097152500006,z,0.5375535000002856,None,166.11000012499971,166.12089504100004,166.30471833299998,,166.32046437499957,,,,,,,,ypth,001,2025-05-29_13h13.12.820,MainFlow,2024.1.5,None,2025-05-29 13h13.23.453647 +0700,
1,2,1,3,letter/lettth112.png,letter/lettkh031.png,0,89,89,89,166.32046437499957,,,,,,,166.32046437499957,167.30486137499975,167.30948783300119,167.30948783300119,167.75560075000067,z,0.4385941250002361,None,167.75588333300038,167.7630294160008,167.94228550000116,167.30948783300119,,,,,,,,,ypth,001,2025-05-29_13h13.12.820,MainFlow,2024.1.5,None,2025-05-29 13h13.23.453647 +0700,
1,2,2,5,letter/lettkh023.png,letter/lettth024.png,0,90,90,90,167.95777895799984,,,,,,,167.95777895799984,168.9428577079998,168.95434108300105,168.95434108300105,169.37896345800073,x,0.41761987500103714,None,169.3792146249998,169.38753350000115,169.5714308330007,,169.58841004100032,,,,,,,,ypth,001,2025-05-29_13h13.12.820,MainFlow,2024.1.5,None,2025-05-29 13h13.23.453647 +0700,
1,1,2,4,letter/letten091.png,letter/lettth041.png,0,91,91,91,169.58841004100032,,,,,,,169.58841004100032,170.5713205410011,170.5755893330006,170.5755893330006,171.01268762499967,x,0.42963166600020486,None,171.01296770800036,171.02094408300036,171.2045285410004,170.5755893330006,171.2209769580004,,,,,,,,ypth,001,2025-05-29_13h13.12.820,MainFlow,2024.1.5,None,2025-05-29 13h13.23.453647 +0700,
1,2,2,3,letter/lettkh031.png,letter/lettth112.png,0,92,92,92,171.2209769580004,,,,,,,171.2209769580004,172.20463870800086,172.20878529100082,172.20878529100082,172.49323845800063,x,0.28315145899978234,None,172.4935204579997,172.5042770830005,172.6883275,172.20878529100082,172.7039166659997,,,,,,,,ypth,001,2025-05-29_13h13.12.820,MainFlow,2024.1.5,None,2025-05-29 13h13.23.453647 +0700,
1,3,1,8,letter/lettth013.png,letter/lettgr153.png,0,93,93,93,172.7039166659997,,,,,,,172.7039166659997,173.68786533300045,173.69245437500103,173.69245437500103,174.14324662500076,z,0.4486799169990263,None,174.14351529099986,174.15414033300112,174.33790475000023,173.69245437500103,174.35389754100106,,,,,,,,ypth,001,2025-05-29_13h13.12.820,MainFlow,2024.1.5,None,2025-05-29 13h13.23.453647 +0700,
1,1,1,2,letter/lettth061.png,letter/letten062.png,0,94,94,94,174.35389754100106,,,,,,,174.35389754100106,175.33806787499998,175.34224308299963,175.34224308299963,175.821893833001,z,0.47020337499998277,None,175.82217941599993,175.82905458300047,176.00859200000014,175.34224308299963,,,,,,,,,ypth,001,2025-05-29_13h13.12.820,MainFlow,2024.1.5,None,2025-05-29 13h13.23.453647 +0700,
1,3,2,3,letter/lettgr153.png,letter/lettth155.png,0,95,95,95,176.02276204100053,,,,,,,176.02276204100053,177.0094533749998,177.02096037500087,177.02096037500087,177.4054233750012,x,0.37533245800113946,None,177.40569812499962,177.41283225000006,177.5935689580001,,,,,,,,,,ypth,001,2025-05-29_13h13.12.820,MainFlow,2024.1.5,None,2025-05-29 13h13.23.453647 +0700,
,,,,,,,,,,,,,,,,,,,,,,,,,,,,,,177.59363579099954,177.6042232079999,177.6042232079999,182.45527683299952,space,4.839650709000125,None,ypth,001,2025-05-29_13h13.12.820,MainFlow,2024.1.5,None,2025-05-29 13h13.23.453647 +0700,
