lang,stimuli,imageid,worddir,thisN,thisTrialN,thisRepN,key_resp.keys,key_resp.rt,key_resp.duration,trials.thisRepN,trials.thisTrialN,trials.thisN,trials.thisIndex,thisRow.t,notes,tutorial.started,tutorial.stopped,key_instruct.keys,key_instruct.rt,key_instruct.duration,instructblank.started,cross1.started,letterselect.started,imageword.started,text_2.started,cross2.started,key_resp.started,letterselect.stopped,trials.key_resp.keys,trials.key_resp.rt,trials.key_resp.duration,instructblank.stopped,cross1.stopped,ending.started,text_3.started,ending_key.started,ending.stopped,ending_key.keys,ending_key.rt,ending_key.duration,participant,session,date,expName,psychopyVersion,frameRate,expStart,
,,,,,,,,,,,,,,,,0.003015399999867441,0.6735481000000618,space,0.6255258999999569,None,,,,,,,,,,,,,,,,,,,,,GSR_th,001,2025-03-07_11h16.34.458,MainFlow,2024.2.4,135.4171321631981,2025-03-07 11h16.47.730487 +0700,
1,3,89,word/wordth0893.png,0,0,0,x,0.9781130999999732,None,0,0,0,0,0.7418351999999686,,,,,,,0.7418351999999686,0.7418351999999686,1.7477023999999801,1.78961419999996,1.78961419999996,1.78961419999996,1.78961419999996,2.7727520000000823,x,0.9781130999999732,None,,,,,,,,,,GSR_th,001,2025-03-07_11h16.34.458,MainFlow,2024.2.4,135.4171321631981,2025-03-07 11h16.47.730487 +0700,
1,3,28,word/wordth0283.png,1,1,0,x,0.7314159999998537,None,0,1,1,1,2.7787828999998965,,,,,,,2.7787828999998965,2.7787828999998965,3.798467800000026,3.8045422000000144,3.8045422000000144,3.8045422000000144,3.8045422000000144,4.543018899999879,x,0.7314159999998537,None,,,,,,,,,,GSR_th,001,2025-03-07_11h16.34.458,MainFlow,2024.2.4,135.4171321631981,2025-03-07 11h16.47.730487 +0700,
1,2,87,word/wordth0872.png,2,2,0,x,1.237485099999958,None,0,2,2,2,4.5484065000000555,,,,,,,4.5484065000000555,4.5484065000000555,5.5650278999999045,5.570373699999891,5.570373699999891,5.570373699999891,5.570373699999891,6.814705999999887,x,1.237485099999958,None,,,,,,,,,,GSR_th,001,2025-03-07_11h16.34.458,MainFlow,2024.2.4,135.4171321631981,2025-03-07 11h16.47.730487 +0700,
1,2,68,word/wordth0682.png,3,3,0,x,0.7631258999999773,None,0,3,3,3,6.8239315000000715,,,,,,,6.8239315000000715,6.8239315000000715,7.862386199999946,7.87023309999995,7.87023309999995,7.87023309999995,7.87023309999995,8.642800500000021,x,0.7631258999999773,None,,,,,,,,,,GSR_th,001,2025-03-07_11h16.34.458,MainFlow,2024.2.4,135.4171321631981,2025-03-07 11h16.47.730487 +0700,
1,2,11,word/wordth0112.png,4,4,0,x,0.7270745000000716,None,0,4,4,4,8.649138100000073,,,,,,,8.649138100000073,8.649138100000073,9.691529899999978,9.699194099999886,9.699194099999886,9.699194099999886,9.699194099999886,10.429420499999878,x,0.7270745000000716,None,,,,,,,,,,GSR_th,001,2025-03-07_11h16.34.458,MainFlow,2024.2.4,135.4171321631981,2025-03-07 11h16.47.730487 +0700,
1,3,11,word/wordth0113.png,5,5,0,x,0.6654857000000902,None,0,5,5,5,10.437139699999989,,,,,,,10.437139699999989,10.437139699999989,11.478905899999972,11.486566699999912,11.486566699999912,11.486566699999912,11.486566699999912,12.155234300000075,x,0.6654857000000902,None,,,,,,,,,,GSR_th,001,2025-03-07_11h16.34.458,MainFlow,2024.2.4,135.4171321631981,2025-03-07 11h16.47.730487 +0700,
1,2,71,word/wordth0712.png,6,6,0,x,0.86493930000006,None,0,6,6,6,12.162765199999967,,,,,,,12.162765199999967,12.162765199999967,13.204698000000008,13.211956299999883,13.211956299999883,13.211956299999883,13.211956299999883,14.087219300000015,x,0.86493930000006,None,,,,,,,,,,GSR_th,001,2025-03-07_11h16.34.458,MainFlow,2024.2.4,135.4171321631981,2025-03-07 11h16.47.730487 +0700,
1,3,44,word/wordth0443.png,7,7,0,x,0.6168812000000798,None,0,7,7,7,14.095011299999896,,,,,,,14.095011299999896,14.095011299999896,15.136913999999933,15.144344499999988,15.144344499999988,15.144344499999988,15.144344499999988,15.76561300000003,x,0.6168812000000798,None,,,,,,,,,,GSR_th,001,2025-03-07_11h16.34.458,MainFlow,2024.2.4,135.4171321631981,2025-03-07 11h16.47.730487 +0700,
1,2,82,word/wordth0822.png,8,8,0,x,0.5332177999998748,None,0,8,8,8,15.773255600000084,,,,,,,15.773255600000084,15.773255600000084,16.816884200000004,16.824199200000066,16.824199200000066,16.824199200000066,16.824199200000066,17.359823300000016,x,0.5332177999998748,None,,,,,,,,,,GSR_th,001,2025-03-07_11h16.34.458,MainFlow,2024.2.4,135.4171321631981,2025-03-07 11h16.47.730487 +0700,
1,2,28,word/wordth0282.png,9,9,0,x,0.9413328000000547,None,0,9,9,9,17.365272100000084,,,,,,,17.365272100000084,17.365272100000084,18.38614039999993,18.392050400000016,18.392050400000016,18.392050400000016,18.392050400000016,19.34230690000004,x,0.9413328000000547,None,,,,,,,,,,GSR_th,001,2025-03-07_11h16.34.458,MainFlow,2024.2.4,135.4171321631981,2025-03-07 11h16.47.730487 +0700,
1,1,23,word/wordth0231.png,10,10,0,z,0.7709054000001743,None,0,10,10,10,19.347766800000045,,,,,,,19.347766800000045,19.347766800000045,20.376928700000008,20.38295449999987,20.38295449999987,20.38295449999987,20.38295449999987,21.16269629999988,z,0.7709054000001743,None,,,,,,,,,,GSR_th,001,2025-03-07_11h16.34.458,MainFlow,2024.2.4,135.4171321631981,2025-03-07 11h16.47.730487 +0700,
1,2,63,word/wordth0632.png,11,11,0,x,0.6970627000000604,None,0,11,11,11,21.170073400000092,,,,,,,21.170073400000092,21.170073400000092,22.188484100000096,22.194411399999808,22.194411399999808,22.194411399999808,22.194411399999808,22.89343259999987,x,0.6970627000000604,None,,,,,,,,,,GSR_th,001,2025-03-07_11h16.34.458,MainFlow,2024.2.4,135.4171321631981,2025-03-07 11h16.47.730487 +0700,
1,3,71,word/wordth0713.png,12,12,0,x,0.7122998999998345,None,0,12,12,12,22.89938459999985,,,,,,,22.89938459999985,22.89938459999985,23.91824439999982,23.92572569999993,23.92572569999993,23.92572569999993,23.92572569999993,24.641781700000138,x,0.7122998999998345,None,,,,,,,,,,GSR_th,001,2025-03-07_11h16.34.458,MainFlow,2024.2.4,135.4171321631981,2025-03-07 11h16.47.730487 +0700,
1,1,1,word/wordth0011.png,13,13,0,z,0.6681173000001763,None,0,13,13,13,24.649097900000015,,,,,,,24.649097900000015,24.649097900000015,25.691278499999953,25.698577900000146,25.698577900000146,25.698577900000146,25.698577900000146,26.371204000000034,z,0.6681173000001763,None,,,,,,,,,,GSR_th,001,2025-03-07_11h16.34.458,MainFlow,2024.2.4,135.4171321631981,2025-03-07 11h16.47.730487 +0700,
1,3,41,word/wordth0413.png,14,14,0,x,0.5199949000002562,None,0,14,14,14,26.376852999999755,,,,,,,26.376852999999755,26.376852999999755,27.393828100000064,27.39972829999988,27.39972829999988,27.39972829999988,27.39972829999988,27.926210699999956,x,0.5199949000002562,None,,,,,,,,,,GSR_th,001,2025-03-07_11h16.34.458,MainFlow,2024.2.4,135.4171321631981,2025-03-07 11h16.47.730487 +0700,
1,2,64,word/wordth0642.png,15,15,0,x,0.673497899999802,None,0,15,15,15,27.934152299999823,,,,,,,27.934152299999823,27.934152299999823,28.974295999999867,28.981760499999837,28.981760499999837,28.981760499999837,28.981760499999837,29.665993499999786,x,0.673497899999802,None,,,,,,,,,,GSR_th,001,2025-03-07_11h16.34.458,MainFlow,2024.2.4,135.4171321631981,2025-03-07 11h16.47.730487 +0700,
1,3,6,word/wordth0063.png,16,16,0,x,0.5904596000000311,None,0,16,16,16,29.672679700000117,,,,,,,29.672679700000117,29.672679700000117,30.71823480000012,30.725873599999886,30.725873599999886,30.725873599999886,30.725873599999886,31.321193299999777,x,0.5904596000000311,None,,,,,,,,,,GSR_th,001,2025-03-07_11h16.34.458,MainFlow,2024.2.4,135.4171321631981,2025-03-07 11h16.47.730487 +0700,
1,2,31,word/wordth0312.png,17,17,0,x,0.5308727000001454,None,0,17,17,17,31.32977239999991,,,,,,,31.32977239999991,31.32977239999991,32.36821060000011,32.37577670000019,32.37577670000019,32.37577670000019,32.37577670000019,32.91477880000002,x,0.5308727000001454,None,,,,,,,,,,GSR_th,001,2025-03-07_11h16.34.458,MainFlow,2024.2.4,135.4171321631981,2025-03-07 11h16.47.730487 +0700,
1,1,46,word/wordth0461.png,18,18,0,z,0.5680612999999539,None,0,18,18,18,32.92153180000014,,,,,,,32.92153180000014,32.92153180000014,33.9627602999999,33.97009359999993,33.97009359999993,33.97009359999993,33.97009359999993,34.54982519999976,z,0.5680612999999539,None,,,,,,,,,,GSR_th,001,2025-03-07_11h16.34.458,MainFlow,2024.2.4,135.4171321631981,2025-03-07 11h16.47.730487 +0700,
1,3,51,word/wordth0513.png,19,19,0,x,0.6609197000002496,None,0,19,19,19,34.5571017000002,,,,,,,34.5571017000002,34.5571017000002,35.598967999999786,35.60668040000019,35.60668040000019,35.60668040000019,35.60668040000019,36.27358479999975,x,0.6609197000002496,None,,,,,,,,,,GSR_th,001,2025-03-07_11h16.34.458,MainFlow,2024.2.4,135.4171321631981,2025-03-07 11h16.47.730487 +0700,
1,2,26,word/wordth0262.png,20,20,0,x,0.5318144000002576,None,0,20,20,20,36.28096340000002,,,,,,,36.28096340000002,36.28096340000002,37.32137039999998,37.32875409999997,37.32875409999997,37.32875409999997,37.32875409999997,37.8648361999999,x,0.5318144000002576,None,,,,,,,,,,GSR_th,001,2025-03-07_11h16.34.458,MainFlow,2024.2.4,135.4171321631981,2025-03-07 11h16.47.730487 +0700,
1,2,96,word/wordth0962.png,21,21,0,x,0.6649956000001112,None,0,21,21,21,37.87254699999994,,,,,,,37.87254699999994,37.87254699999994,38.90696769999977,38.914145499999904,38.914145499999904,38.914145499999904,38.914145499999904,39.58241859999998,x,0.6649956000001112,None,,,,,,,,,,GSR_th,001,2025-03-07_11h16.34.458,MainFlow,2024.2.4,135.4171321631981,2025-03-07 11h16.47.730487 +0700,
1,1,31,word/wordth0311.png,22,22,0,z,0.6449754999998731,None,0,22,22,22,39.59045819999983,,,,,,,39.59045819999983,39.59045819999983,40.62994759999992,40.63672719999977,40.63672719999977,40.63672719999977,40.63672719999977,41.288517200000115,z,0.6449754999998731,None,,,,,,,,,,GSR_th,001,2025-03-07_11h16.34.458,MainFlow,2024.2.4,135.4171321631981,2025-03-07 11h16.47.730487 +0700,
1,2,94,word/wordth0942.png,23,23,0,x,0.676482599999872,None,0,23,23,23,41.296313199999986,,,,,,,41.296313199999986,41.296313199999986,42.33797270000014,42.345612399999936,42.345612399999936,42.345612399999936,42.345612399999936,43.032456699999784,x,0.676482599999872,None,,,,,,,,,,GSR_th,001,2025-03-07_11h16.34.458,MainFlow,2024.2.4,135.4171321631981,2025-03-07 11h16.47.730487 +0700,
1,3,48,word/wordth0483.png,24,24,0,x,0.5492357000002812,None,0,24,24,24,43.039023499999985,,,,,,,43.039023499999985,43.039023499999985,44.0778107000001,44.08539860000019,44.08539860000019,44.08539860000019,44.08539860000019,44.63904219999995,x,0.5492357000002812,None,,,,,,,,,,GSR_th,001,2025-03-07_11h16.34.458,MainFlow,2024.2.4,135.4171321631981,2025-03-07 11h16.47.730487 +0700,
1,3,24,word/wordth0243.png,25,25,0,x,0.48990980000007767,None,0,25,25,25,44.64434110000002,,,,,,,44.64434110000002,44.64434110000002,45.66344479999998,45.6688208999999,45.6688208999999,45.6688208999999,45.6688208999999,46.1615268999999,x,0.48990980000007767,None,,,,,,,,,,GSR_th,001,2025-03-07_11h16.34.458,MainFlow,2024.2.4,135.4171321631981,2025-03-07 11h16.47.730487 +0700,
1,1,87,word/wordth0871.png,26,26,0,z,0.5099857000000156,None,0,26,26,26,46.16803230000005,,,,,,,46.16803230000005,46.16803230000005,47.19986969999991,47.206442700000025,47.206442700000025,47.206442700000025,47.206442700000025,47.7267667000001,z,0.5099857000000156,None,47.206442700000025,47.206442700000025,,,,,,,,GSR_th,001,2025-03-07_11h16.34.458,MainFlow,2024.2.4,135.4171321631981,2025-03-07 11h16.47.730487 +0700,
1,2,51,word/wordth0512.png,27,27,0,x,0.8279066000000057,None,0,27,27,27,47.73442389999991,,,,,,,47.73442389999991,47.73442389999991,48.80095429999983,48.809109199999966,48.809109199999966,48.809109199999966,48.809109199999966,49.645390300000145,x,0.8279066000000057,None,,,,,,,,,,GSR_th,001,2025-03-07_11h16.34.458,MainFlow,2024.2.4,135.4171321631981,2025-03-07 11h16.47.730487 +0700,
1,3,27,word/wordth0273.png,28,28,0,x,0.7375675999996929,None,0,28,28,28,49.65060760000006,,,,,,,49.65060760000006,49.65060760000006,50.66941739999993,50.67531199999985,50.67531199999985,50.67531199999985,50.67531199999985,51.415324600000076,x,0.7375675999996929,None,,,,,,,,,,GSR_th,001,2025-03-07_11h16.34.458,MainFlow,2024.2.4,135.4171321631981,2025-03-07 11h16.47.730487 +0700,
1,2,22,word/wordth0222.png,29,29,0,x,0.49842350000017177,None,0,29,29,29,51.4260233,,,,,,,51.4260233,51.4260233,52.44612079999979,52.45192339999994,52.45192339999994,52.45192339999994,52.45192339999994,52.952881499999876,x,0.49842350000017177,None,,,,,,,,,,GSR_th,001,2025-03-07_11h16.34.458,MainFlow,2024.2.4,135.4171321631981,2025-03-07 11h16.47.730487 +0700,
1,3,23,word/wordth0233.png,30,30,0,x,0.6216377999999168,None,0,30,30,30,52.95913400000018,,,,,,,52.95913400000018,52.95913400000018,53.976903799999945,53.98214999999982,53.98214999999982,53.98214999999982,53.98214999999982,54.60923670000011,x,0.6216377999999168,None,,,,,,,,,,GSR_th,001,2025-03-07_11h16.34.458,MainFlow,2024.2.4,135.4171321631981,2025-03-07 11h16.47.730487 +0700,
1,1,48,word/wordth0481.png,31,31,0,z,0.8181408000000374,None,0,31,31,31,54.619919299999765,,,,,,,54.619919299999765,54.619919299999765,55.633746299999984,55.63963879999983,55.63963879999983,55.63963879999983,55.63963879999983,56.46542020000015,z,0.8181408000000374,None,,,,,,,,,,GSR_th,001,2025-03-07_11h16.34.458,MainFlow,2024.2.4,135.4171321631981,2025-03-07 11h16.47.730487 +0700,
1,2,10,word/wordth0102.png,32,32,0,x,0.6679347999997844,None,0,32,32,32,56.47113399999989,,,,,,,56.47113399999989,56.47113399999989,57.499789599999986,57.50556370000004,57.50556370000004,57.50556370000004,57.50556370000004,58.177879400000165,x,0.6679347999997844,None,57.50556370000004,57.50556370000004,,,,,,,,GSR_th,001,2025-03-07_11h16.34.458,MainFlow,2024.2.4,135.4171321631981,2025-03-07 11h16.47.730487 +0700,
1,3,64,word/wordth0643.png,33,33,0,x,0.8266951000000518,None,0,33,33,33,58.18364759999986,,,,,,,58.18364759999986,58.18364759999986,59.20138719999977,59.20721219999996,59.20721219999996,59.20721219999996,59.20721219999996,60.03757809999979,x,0.8266951000000518,None,,,,,,,,,,GSR_th,001,2025-03-07_11h16.34.458,MainFlow,2024.2.4,135.4171321631981,2025-03-07 11h16.47.730487 +0700,
1,3,22,word/wordth0223.png,34,34,0,x,0.7084809999996651,None,0,34,34,34,60.04568389999986,,,,,,,60.04568389999986,60.04568389999986,61.085178599999836,61.09289929999977,61.09289929999977,61.09289929999977,61.09289929999977,61.8062559,x,0.7084809999996651,None,,,,,,,,,,GSR_th,001,2025-03-07_11h16.34.458,MainFlow,2024.2.4,135.4171321631981,2025-03-07 11h16.47.730487 +0700,
1,1,42,word/wordth0421.png,35,35,0,z,0.7275276999998823,None,0,35,35,35,61.813150999999834,,,,,,,61.813150999999834,61.813150999999834,62.85884309999983,62.86637410000003,62.86637410000003,62.86637410000003,62.86637410000003,63.60148389999995,z,0.7275276999998823,None,,,,,,,,,,GSR_th,001,2025-03-07_11h16.34.458,MainFlow,2024.2.4,135.4171321631981,2025-03-07 11h16.47.730487 +0700,
1,2,1,word/wordth0012.png,36,36,0,x,0.6782846000000973,None,0,36,36,36,63.60659420000002,,,,,,,63.60659420000002,63.60659420000002,64.62309289999985,64.6284442000001,64.6284442000001,64.6284442000001,64.6284442000001,65.31716479999977,x,0.6782846000000973,None,,,,,,,,,,GSR_th,001,2025-03-07_11h16.34.458,MainFlow,2024.2.4,135.4171321631981,2025-03-07 11h16.47.730487 +0700,
1,1,82,word/wordth0821.png,37,37,0,z,0.6276014000000032,None,0,37,37,37,65.32431959999985,,,,,,,65.32431959999985,65.32431959999985,66.36316639999995,66.3706315999998,66.3706315999998,66.3706315999998,66.3706315999998,67.00675799999999,z,0.6276014000000032,None,,,,,,,,,,GSR_th,001,2025-03-07_11h16.34.458,MainFlow,2024.2.4,135.4171321631981,2025-03-07 11h16.47.730487 +0700,
1,2,3,word/wordth0032.png,38,38,0,x,0.5857725000000755,None,0,38,38,38,67.01362680000011,,,,,,,67.01362680000011,67.01362680000011,68.03364629999987,68.03975730000002,68.03975730000002,68.03975730000002,68.03975730000002,68.62900940000009,x,0.5857725000000755,None,,,,,,,,,,GSR_th,001,2025-03-07_11h16.34.458,MainFlow,2024.2.4,135.4171321631981,2025-03-07 11h16.47.730487 +0700,
1,1,68,word/wordth0681.png,39,39,0,z,0.7188995999999861,None,0,39,39,39,68.63546989999986,,,,,,,68.63546989999986,68.63546989999986,69.66547230000015,69.67135839999992,69.67135839999992,69.67135839999992,69.67135839999992,70.39313369999991,z,0.7188995999999861,None,69.67135839999992,69.67135839999992,,,,,,,,GSR_th,001,2025-03-07_11h16.34.458,MainFlow,2024.2.4,135.4171321631981,2025-03-07 11h16.47.730487 +0700,
1,1,66,word/wordth0661.png,40,40,0,z,0.6348192999998901,None,0,40,40,40,70.40053410000019,,,,,,,70.40053410000019,70.40053410000019,71.43428029999995,71.44095909999987,71.44095909999987,71.44095909999987,71.44095909999987,72.07957320000014,z,0.6348192999998901,None,71.44095909999987,71.44095909999987,,,,,,,,GSR_th,001,2025-03-07_11h16.34.458,MainFlow,2024.2.4,135.4171321631981,2025-03-07 11h16.47.730487 +0700,
1,2,42,word/wordth0422.png,41,41,0,x,0.6021931000000222,None,0,41,41,41,72.08583540000018,,,,,,,72.08583540000018,72.08583540000018,73.10942239999986,73.11548570000014,73.11548570000014,73.11548570000014,73.11548570000014,73.72947179999983,x,0.6021931000000222,None,,,,,,,,,,GSR_th,001,2025-03-07_11h16.34.458,MainFlow,2024.2.4,135.4171321631981,2025-03-07 11h16.47.730487 +0700,
1,3,93,word/wordth0933.png,42,42,0,x,0.6981877000002896,None,0,42,42,42,73.73556460000009,,,,,,,73.73556460000009,73.73556460000009,74.76113119999991,74.76698290000013,74.76698290000013,74.76698290000013,74.76698290000013,75.46805749999976,x,0.6981877000002896,None,,,,,,,,,,GSR_th,001,2025-03-07_11h16.34.458,MainFlow,2024.2.4,135.4171321631981,2025-03-07 11h16.47.730487 +0700,
1,1,71,word/wordth0711.png,43,43,0,z,0.5861583999999311,None,0,43,43,43,75.47457759999998,,,,,,,75.47457759999998,75.47457759999998,76.5010272999998,76.50774779999983,76.50774779999983,76.50774779999983,76.50774779999983,77.0999412000001,z,0.5861583999999311,None,,,,,,,,,,GSR_th,001,2025-03-07_11h16.34.458,MainFlow,2024.2.4,135.4171321631981,2025-03-07 11h16.47.730487 +0700,
1,1,64,word/wordth0641.png,44,44,0,z,0.8556977999996889,None,0,44,44,44,77.10811379999996,,,,,,,77.10811379999996,77.10811379999996,78.15241000000015,78.1606912000002,78.1606912000002,78.1606912000002,78.1606912000002,79.02088529999992,z,0.8556977999996889,None,,,,,,,,,,GSR_th,001,2025-03-07_11h16.34.458,MainFlow,2024.2.4,135.4171321631981,2025-03-07 11h16.47.730487 +0700,
1,1,88,word/wordth0881.png,45,45,0,z,1.752376699999786,None,0,45,45,45,79.02860479999981,,,,,,,79.02860479999981,79.02860479999981,80.07037880000007,80.07811519999996,80.07811519999996,80.07811519999996,80.07811519999996,81.83452450000004,z,1.752376699999786,None,,,,,,,,,,GSR_th,001,2025-03-07_11h16.34.458,MainFlow,2024.2.4,135.4171321631981,2025-03-07 11h16.47.730487 +0700,
1,3,87,word/wordth0873.png,46,46,0,x,0.8354315999999926,None,0,46,46,46,81.8415957000002,,,,,,,81.8415957000002,81.8415957000002,82.88131889999977,82.88883579999992,82.88883579999992,82.88883579999992,82.88883579999992,83.7345150000001,x,0.8354315999999926,None,,,,,,,,,,GSR_th,001,2025-03-07_11h16.34.458,MainFlow,2024.2.4,135.4171321631981,2025-03-07 11h16.47.730487 +0700,
1,3,3,word/wordth0033.png,47,47,0,x,2.2718144000000393,None,0,47,47,47,83.74139909999985,,,,,,,83.74139909999985,83.74139909999985,84.78304530000014,84.79029579999997,84.79029579999997,84.79029579999997,84.79029579999997,87.07292490000009,x,2.2718144000000393,None,,,,,,,,,,GSR_th,001,2025-03-07_11h16.34.458,MainFlow,2024.2.4,135.4171321631981,2025-03-07 11h16.47.730487 +0700,
1,2,95,word/wordth0952.png,48,48,0,x,0.7971803000000364,None,0,48,48,48,87.07942559999992,,,,,,,87.07942559999992,87.07942559999992,88.12334779999992,88.13130820000015,88.13130820000015,88.13130820000015,88.13130820000015,88.93312980000019,x,0.7971803000000364,None,,,,,,,,,,GSR_th,001,2025-03-07_11h16.34.458,MainFlow,2024.2.4,135.4171321631981,2025-03-07 11h16.47.730487 +0700,
1,1,11,word/wordth0111.png,49,49,0,z,0.9241417000002912,None,0,49,49,49,88.94016980000015,,,,,,,88.94016980000015,88.94016980000015,89.97168839999995,89.9773740999999,89.9773740999999,89.9773740999999,89.9773740999999,90.90810370000008,z,0.9241417000002912,None,,,,,,,,,,GSR_th,001,2025-03-07_11h16.34.458,MainFlow,2024.2.4,135.4171321631981,2025-03-07 11h16.47.730487 +0700,
1,1,10,word/wordth0101.png,50,50,0,z,0.6327844000002187,None,0,50,50,50,90.91319340000018,,,,,,,90.91319340000018,90.91319340000018,91.93149679999988,91.9375442999999,91.9375442999999,91.9375442999999,91.9375442999999,92.57538720000002,z,0.6327844000002187,None,,,,,,,,,,GSR_th,001,2025-03-07_11h16.34.458,MainFlow,2024.2.4,135.4171321631981,2025-03-07 11h16.47.730487 +0700,
1,1,44,word/wordth0441.png,51,51,0,z,0.5954902999997103,None,0,51,51,51,92.58165719999988,,,,,,,92.58165719999988,92.58165719999988,93.60522519999995,93.61108869999998,93.61108869999998,93.61108869999998,93.61108869999998,94.21235969999998,z,0.5954902999997103,None,,,,,,,,,,GSR_th,001,2025-03-07_11h16.34.458,MainFlow,2024.2.4,135.4171321631981,2025-03-07 11h16.47.730487 +0700,
1,1,96,word/wordth0961.png,52,52,0,z,1.0214825000002747,None,0,52,52,52,94.21834709999985,,,,,,,94.21834709999985,94.21834709999985,95.23708050000005,95.2430773000001,95.2430773000001,95.2430773000001,95.2430773000001,96.2692035,z,1.0214825000002747,None,,,,,,,,,,GSR_th,001,2025-03-07_11h16.34.458,MainFlow,2024.2.4,135.4171321631981,2025-03-07 11h16.47.730487 +0700,
1,2,27,word/wordth0272.png,53,53,0,x,1.0726857999998174,None,0,53,53,53,96.27713279999989,,,,,,,96.27713279999989,96.27713279999989,97.31558270000005,97.32283819999975,97.32283819999975,97.32283819999975,97.32283819999975,98.39873140000009,x,1.0726857999998174,None,,,,,,,,,,GSR_th,001,2025-03-07_11h16.34.458,MainFlow,2024.2.4,135.4171321631981,2025-03-07 11h16.47.730487 +0700,
1,1,63,word/wordth0631.png,54,54,0,z,0.7373173999999381,None,0,54,54,54,98.4072772999998,,,,,,,98.4072772999998,98.4072772999998,99.42424089999986,99.43009810000012,99.43009810000012,99.43009810000012,99.43009810000012,100.17084239999986,z,0.7373173999999381,None,,,,,,,,,,GSR_th,001,2025-03-07_11h16.34.458,MainFlow,2024.2.4,135.4171321631981,2025-03-07 11h16.47.730487 +0700,
1,3,66,word/wordth0663.png,55,55,0,x,0.7778238999999303,None,0,55,55,55,100.1764589999998,,,,,,,100.1764589999998,100.1764589999998,101.19314290000011,101.19893989999991,101.19893989999991,101.19893989999991,101.19893989999991,101.98033020000003,x,0.7778238999999303,None,,,,,,,,,,GSR_th,001,2025-03-07_11h16.34.458,MainFlow,2024.2.4,135.4171321631981,2025-03-07 11h16.47.730487 +0700,
1,3,88,word/wordth0883.png,56,56,0,x,0.7212632000000667,None,0,56,56,56,101.9873005999998,,,,,,,101.9873005999998,101.9873005999998,103.03519090000009,103.04264759999978,103.04264759999978,103.04264759999978,103.04264759999978,103.76681139999982,x,0.7212632000000667,None,,,,,,,,,,GSR_th,001,2025-03-07_11h16.34.458,MainFlow,2024.2.4,135.4171321631981,2025-03-07 11h16.47.730487 +0700,
1,3,96,word/wordth0963.png,57,57,0,x,0.6016371000000618,None,0,57,57,57,103.77248539999982,,,,,,,103.77248539999982,103.77248539999982,104.79059319999988,104.79587970000011,104.79587970000011,104.79587970000011,104.79587970000011,105.40551969999979,x,0.6016371000000618,None,,,,,,,,,,GSR_th,001,2025-03-07_11h16.34.458,MainFlow,2024.2.4,135.4171321631981,2025-03-07 11h16.47.730487 +0700,
1,2,52,word/wordth0522.png,58,58,0,x,0.8006704999997964,None,0,58,58,58,105.4102111000002,,,,,,,105.4102111000002,105.4102111000002,106.4275404,106.43282090000002,106.43282090000002,106.43282090000002,106.43282090000002,107.23783079999976,x,0.8006704999997964,None,,,,,,,,,,GSR_th,001,2025-03-07_11h16.34.458,MainFlow,2024.2.4,135.4171321631981,2025-03-07 11h16.47.730487 +0700,
1,3,50,word/wordth0503.png,59,59,0,x,1.55113319999964,None,0,59,59,59,107.2434404999999,,,,,,,107.2434404999999,107.2434404999999,108.26854330000015,108.27435419999983,108.27435419999983,108.27435419999983,108.27435419999983,109.83642849999978,x,1.55113319999964,None,,,,,,,,,,GSR_th,001,2025-03-07_11h16.34.458,MainFlow,2024.2.4,135.4171321631981,2025-03-07 11h16.47.730487 +0700,
1,3,61,word/wordth0613.png,60,60,0,x,0.6819969999996829,None,0,60,60,60,109.84260779999977,,,,,,,109.84260779999977,109.84260779999977,110.89310969999997,110.90067739999995,110.90067739999995,110.90067739999995,110.90067739999995,111.59396000000015,x,0.6819969999996829,None,,,,,,,,,,GSR_th,001,2025-03-07_11h16.34.458,MainFlow,2024.2.4,135.4171321631981,2025-03-07 11h16.47.730487 +0700,
1,2,46,word/wordth0462.png,61,61,0,x,0.7445349999998143,None,0,61,61,61,111.60087699999985,,,,,,,111.60087699999985,111.60087699999985,112.64161130000002,112.64942269999983,112.64942269999983,112.64942269999983,112.64942269999983,113.40426979999984,x,0.7445349999998143,None,,,,,,,,,,GSR_th,001,2025-03-07_11h16.34.458,MainFlow,2024.2.4,135.4171321631981,2025-03-07 11h16.47.730487 +0700,
1,1,61,word/wordth0611.png,62,62,0,z,2.3658596999998736,None,0,62,62,62,113.41076310000017,,,,,,,113.41076310000017,113.41076310000017,114.45794070000011,114.46527969999988,114.46527969999988,114.46527969999988,114.46527969999988,116.83479219999981,z,2.3658596999998736,None,114.46527969999988,114.46527969999988,,,,,,,,GSR_th,001,2025-03-07_11h16.34.458,MainFlow,2024.2.4,135.4171321631981,2025-03-07 11h16.47.730487 +0700,
1,1,24,word/wordth0241.png,63,63,0,z,0.7922779000000446,None,0,63,63,63,116.84250819999988,,,,,,,116.84250819999988,116.84250819999988,117.86338969999997,117.86873939999987,117.86873939999987,117.86873939999987,117.86873939999987,118.67094180000004,z,0.7922779000000446,None,,,,,,,,,,GSR_th,001,2025-03-07_11h16.34.458,MainFlow,2024.2.4,135.4171321631981,2025-03-07 11h16.47.730487 +0700,
1,2,89,word/wordth0892.png,64,64,0,x,0.5400919999997313,None,0,64,64,64,118.67620559999978,,,,,,,118.67620559999978,118.67620559999978,119.70605969999997,119.71336059999976,119.71336059999976,119.71336059999976,119.71336059999976,120.25796660000015,x,0.5400919999997313,None,,,,,,,,,,GSR_th,001,2025-03-07_11h16.34.458,MainFlow,2024.2.4,135.4171321631981,2025-03-07 11h16.47.730487 +0700,
1,1,30,word/wordth0301.png,65,65,0,z,0.6058124000001044,None,0,65,65,65,120.26416599999993,,,,,,,120.26416599999993,120.26416599999993,121.29425869999977,121.30017420000013,121.30017420000013,121.30017420000013,121.30017420000013,121.9083042000002,z,0.6058124000001044,None,121.30017420000013,121.30017420000013,,,,,,,,GSR_th,001,2025-03-07_11h16.34.458,MainFlow,2024.2.4,135.4171321631981,2025-03-07 11h16.47.730487 +0700,
1,1,93,word/wordth0931.png,66,66,0,z,0.9756649999999354,None,0,66,66,66,121.91372180000008,,,,,,,121.91372180000008,121.91372180000008,122.93318490000001,122.93898260000014,122.93898260000014,122.93898260000014,122.93898260000014,123.92434790000016,z,0.9756649999999354,None,,,,,,,,,,GSR_th,001,2025-03-07_11h16.34.458,MainFlow,2024.2.4,135.4171321631981,2025-03-07 11h16.47.730487 +0700,
1,1,50,word/wordth0501.png,67,67,0,z,0.5879201000002467,None,0,67,67,67,123.93142829999988,,,,,,,123.93142829999988,123.93142829999988,124.97875930000009,124.98612719999983,124.98612719999983,124.98612719999983,124.98612719999983,125.57729549999976,z,0.5879201000002467,None,,,,,,,,,,GSR_th,001,2025-03-07_11h16.34.458,MainFlow,2024.2.4,135.4171321631981,2025-03-07 11h16.47.730487 +0700,
1,3,82,word/wordth0823.png,68,68,0,x,0.6426372000000811,None,0,68,68,68,125.58494870000004,,,,,,,125.58494870000004,125.58494870000004,126.61080009999978,126.61743230000002,126.61743230000002,126.61743230000002,126.61743230000002,127.26774269999987,x,0.6426372000000811,None,,,,,,,,,,GSR_th,001,2025-03-07_11h16.34.458,MainFlow,2024.2.4,135.4171321631981,2025-03-07 11h16.47.730487 +0700,
1,1,27,word/wordth0271.png,69,69,0,z,0.6082169000001159,None,0,69,69,69,127.27479230000017,,,,,,,127.27479230000017,127.27479230000017,128.3164227000002,128.32513139999992,128.32513139999992,128.32513139999992,128.32513139999992,128.93771449999986,z,0.6082169000001159,None,,,,,,,,,,GSR_th,001,2025-03-07_11h16.34.458,MainFlow,2024.2.4,135.4171321631981,2025-03-07 11h16.47.730487 +0700,
1,3,52,word/wordth0523.png,70,70,0,x,0.6054236999998466,None,0,70,70,70,128.94484980000016,,,,,,,128.94484980000016,128.94484980000016,129.98921419999988,129.99653769999986,129.99653769999986,129.99653769999986,129.99653769999986,130.61230479999995,x,0.6054236999998466,None,,,,,,,,,,GSR_th,001,2025-03-07_11h16.34.458,MainFlow,2024.2.4,135.4171321631981,2025-03-07 11h16.47.730487 +0700,
1,1,22,word/wordth0221.png,71,71,0,z,0.7204744999999093,None,0,71,71,71,130.6196831000002,,,,,,,130.6196831000002,130.6196831000002,131.66123879999986,131.66871739999988,131.66871739999988,131.66871739999988,131.66871739999988,132.39445680000017,z,0.7204744999999093,None,,,,,,,,,,GSR_th,001,2025-03-07_11h16.34.458,MainFlow,2024.2.4,135.4171321631981,2025-03-07 11h16.47.730487 +0700,
1,1,6,word/wordth0061.png,72,72,0,z,0.6346347999997306,None,0,72,72,72,132.40196689999993,,,,,,,132.40196689999993,132.40196689999993,133.4339503000001,133.4412201,133.4412201,133.4412201,133.4412201,134.08402579999984,z,0.6346347999997306,None,,,,,,,,,,GSR_th,001,2025-03-07_11h16.34.458,MainFlow,2024.2.4,135.4171321631981,2025-03-07 11h16.47.730487 +0700,
1,2,30,word/wordth0302.png,73,73,0,x,0.698293399999784,None,0,73,73,73,134.09077119999984,,,,,,,134.09077119999984,134.09077119999984,135.13629290000017,135.1439289,135.1439289,135.1439289,135.1439289,135.84404630000017,x,0.698293399999784,None,,,,,,,,,,GSR_th,001,2025-03-07_11h16.34.458,MainFlow,2024.2.4,135.4171321631981,2025-03-07 11h16.47.730487 +0700,
1,1,51,word/wordth0511.png,74,74,0,z,0.6663867999996,None,0,74,74,74,135.8496650000002,,,,,,,135.8496650000002,135.8496650000002,136.86617339999975,136.87136250000003,136.87136250000003,136.87136250000003,136.87136250000003,137.54643380000016,z,0.6663867999996,None,,,,,,,,,,GSR_th,001,2025-03-07_11h16.34.458,MainFlow,2024.2.4,135.4171321631981,2025-03-07 11h16.47.730487 +0700,
1,2,50,word/wordth0502.png,75,75,0,x,0.5627830999997059,None,0,75,75,75,137.55208249999987,,,,,,,137.55208249999987,137.55208249999987,138.58315219999986,138.58952050000016,138.58952050000016,138.58952050000016,138.58952050000016,139.15627080000013,x,0.5627830999997059,None,138.58952050000016,138.58952050000016,,,,,,,,GSR_th,001,2025-03-07_11h16.34.458,MainFlow,2024.2.4,135.4171321631981,2025-03-07 11h16.47.730487 +0700,
1,3,95,word/wordth0953.png,76,76,0,x,1.1961958000001687,None,0,76,76,76,139.16253199999983,,,,,,,139.16253199999983,139.16253199999983,140.17974390000018,140.1858269999998,140.1858269999998,140.1858269999998,140.1858269999998,141.38465959999985,x,1.1961958000001687,None,,,,,,,,,,GSR_th,001,2025-03-07_11h16.34.458,MainFlow,2024.2.4,135.4171321631981,2025-03-07 11h16.47.730487 +0700,
1,1,75,word/wordth0751.png,77,77,0,z,1.2374449999997523,None,0,77,77,77,141.39032869999983,,,,,,,141.39032869999983,141.39032869999983,142.40747539999984,142.41445049999993,142.41445049999993,142.41445049999993,142.41445049999993,143.66037670000014,z,1.2374449999997523,None,,,,,,,,,,GSR_th,001,2025-03-07_11h16.34.458,MainFlow,2024.2.4,135.4171321631981,2025-03-07 11h16.47.730487 +0700,
1,1,95,word/wordth0951.png,78,78,0,z,0.7240197999999509,None,0,78,78,78,143.66739800000005,,,,,,,143.66739800000005,143.66739800000005,144.6899613999999,144.69559489999983,144.69559489999983,144.69559489999983,144.69559489999983,145.42238719999978,z,0.7240197999999509,None,,,,,,,,,,GSR_th,001,2025-03-07_11h16.34.458,MainFlow,2024.2.4,135.4171321631981,2025-03-07 11h16.47.730487 +0700,
1,2,8,word/wordth0082.png,79,79,0,x,0.584229200000209,None,0,79,79,79,145.4293246000002,,,,,,,145.4293246000002,145.4293246000002,146.47380859999976,146.48120979999976,146.48120979999976,146.48120979999976,146.48120979999976,147.07689130000017,x,0.584229200000209,None,,,,,,,,,,GSR_th,001,2025-03-07_11h16.34.458,MainFlow,2024.2.4,135.4171321631981,2025-03-07 11h16.47.730487 +0700,
1,3,75,word/wordth0753.png,80,80,0,x,0.9732451999998375,None,0,80,80,80,147.08405690000018,,,,,,,147.08405690000018,147.08405690000018,148.12549320000016,148.13318359999994,148.13318359999994,148.13318359999994,148.13318359999994,149.11073440000018,x,0.9732451999998375,None,,,,,,,,,,GSR_th,001,2025-03-07_11h16.34.458,MainFlow,2024.2.4,135.4171321631981,2025-03-07 11h16.47.730487 +0700,
1,1,28,word/wordth0281.png,81,81,0,z,0.7106894000003194,None,0,81,81,81,149.11775829999988,,,,,,,149.11775829999988,149.11775829999988,150.1597654000002,150.16714520000005,150.16714520000005,150.16714520000005,150.16714520000005,150.88230909999993,z,0.7106894000003194,None,,,,,,,,,,GSR_th,001,2025-03-07_11h16.34.458,MainFlow,2024.2.4,135.4171321631981,2025-03-07 11h16.47.730487 +0700,
1,3,42,word/wordth0423.png,82,82,0,x,1.0442392999998447,None,0,82,82,82,150.88987769999994,,,,,,,150.88987769999994,150.88987769999994,151.93208240000013,151.93984330000012,151.93984330000012,151.93984330000012,151.93984330000012,152.99257149999994,x,1.0442392999998447,None,,,,,,,,,,GSR_th,001,2025-03-07_11h16.34.458,MainFlow,2024.2.4,135.4171321631981,2025-03-07 11h16.47.730487 +0700,
1,3,46,word/wordth0463.png,83,83,0,x,0.8225913000001128,None,0,83,83,83,152.99976530000004,,,,,,,152.99976530000004,152.99976530000004,154.02284969999982,154.0288617000001,154.0288617000001,154.0288617000001,154.0288617000001,154.8554850999999,x,0.8225913000001128,None,,,,,,,,,,GSR_th,001,2025-03-07_11h16.34.458,MainFlow,2024.2.4,135.4171321631981,2025-03-07 11h16.47.730487 +0700,
1,3,1,word/wordth0013.png,84,84,0,x,0.598651400000108,None,0,84,84,84,154.8618147000002,,,,,,,154.8618147000002,154.8618147000002,155.89353840000012,155.90029890000005,155.90029890000005,155.90029890000005,155.90029890000005,156.50134769999977,x,0.598651400000108,None,155.90029890000005,155.90029890000005,,,,,,,,GSR_th,001,2025-03-07_11h16.34.458,MainFlow,2024.2.4,135.4171321631981,2025-03-07 11h16.47.730487 +0700,
1,2,70,word/wordth0702.png,85,85,0,x,0.5648775999998179,None,0,85,85,85,156.50827149999986,,,,,,,156.50827149999986,156.50827149999986,157.53753289999986,157.54350849999992,157.54350849999992,157.54350849999992,157.54350849999992,158.1099721999999,x,0.5648775999998179,None,,,,,,,,,,GSR_th,001,2025-03-07_11h16.34.458,MainFlow,2024.2.4,135.4171321631981,2025-03-07 11h16.47.730487 +0700,
1,1,7,word/wordth0071.png,86,86,0,z,0.5240408999998181,None,0,86,86,86,158.1151874000002,,,,,,,158.1151874000002,158.1151874000002,159.1336709000002,159.1393718999998,159.1393718999998,159.1393718999998,159.1393718999998,159.66716580000002,z,0.5240408999998181,None,,,,,,,,,,GSR_th,001,2025-03-07_11h16.34.458,MainFlow,2024.2.4,135.4171321631981,2025-03-07 11h16.47.730487 +0700,
1,2,7,word/wordth0072.png,87,87,0,x,0.5483439999998154,None,0,87,87,87,159.67368110000007,,,,,,,159.67368110000007,159.67368110000007,160.70171579999987,160.70772249999982,160.70772249999982,160.70772249999982,160.70772249999982,161.26438449999978,x,0.5483439999998154,None,160.70772249999982,160.70772249999982,,,,,,,,GSR_th,001,2025-03-07_11h16.34.458,MainFlow,2024.2.4,135.4171321631981,2025-03-07 11h16.47.730487 +0700,
1,2,24,word/wordth0242.png,88,88,0,x,0.5333547000000181,None,0,88,88,88,161.26993379999976,,,,,,,161.26993379999976,161.26993379999976,162.30300390000002,162.31001479999986,162.31001479999986,162.31001479999986,162.31001479999986,162.8453767000001,x,0.5333547000000181,None,162.31001479999986,162.31001479999986,,,,,,,,GSR_th,001,2025-03-07_11h16.34.458,MainFlow,2024.2.4,135.4171321631981,2025-03-07 11h16.47.730487 +0700,
1,3,26,word/wordth0263.png,89,89,0,x,0.4597502000001441,None,0,89,89,89,162.85599180000008,,,,,,,162.85599180000008,162.85599180000008,163.8740699,163.88173300000017,163.88173300000017,163.88173300000017,163.88173300000017,164.34966900000018,x,0.4597502000001441,None,,,,,,,,,,GSR_th,001,2025-03-07_11h16.34.458,MainFlow,2024.2.4,135.4171321631981,2025-03-07 11h16.47.730487 +0700,
1,2,23,word/wordth0232.png,90,90,0,x,0.7333727000000181,None,0,90,90,90,164.35708310000018,,,,,,,164.35708310000018,164.35708310000018,165.40061289999994,165.4079399000002,165.4079399000002,165.4079399000002,165.4079399000002,166.14418100000012,x,0.7333727000000181,None,,,,,,,,,,GSR_th,001,2025-03-07_11h16.34.458,MainFlow,2024.2.4,135.4171321631981,2025-03-07 11h16.47.730487 +0700,
1,2,75,word/wordth0752.png,91,91,0,x,0.9112703000000693,None,0,91,91,91,166.15230740000015,,,,,,,166.15230740000015,166.15230740000015,167.1809373000001,167.18666359999997,167.18666359999997,167.18666359999997,167.18666359999997,168.1054138999998,x,0.9112703000000693,None,,,,,,,,,,GSR_th,001,2025-03-07_11h16.34.458,MainFlow,2024.2.4,135.4171321631981,2025-03-07 11h16.47.730487 +0700,
1,2,6,word/wordth0062.png,92,92,0,x,0.6360107000000426,None,0,92,92,92,168.11117849999982,,,,,,,168.11117849999982,168.11117849999982,169.19572359999984,169.20204150000018,169.20204150000018,169.20204150000018,169.20204150000018,169.8465516000001,x,0.6360107000000426,None,,,,,,,,,,GSR_th,001,2025-03-07_11h16.34.458,MainFlow,2024.2.4,135.4171321631981,2025-03-07 11h16.47.730487 +0700,
1,2,93,word/wordth0932.png,93,93,0,x,0.6781805000000531,None,0,93,93,93,169.8532181999999,,,,,,,169.8532181999999,169.8532181999999,170.9276236999999,170.93503329999976,170.93503329999976,170.93503329999976,170.93503329999976,171.62025640000002,x,0.6781805000000531,None,,,,,,,,,,GSR_th,001,2025-03-07_11h16.34.458,MainFlow,2024.2.4,135.4171321631981,2025-03-07 11h16.47.730487 +0700,
1,2,48,word/wordth0482.png,94,94,0,x,0.5087223999998969,None,0,94,94,94,171.62751509999998,,,,,,,171.62751509999998,171.62751509999998,172.68564340000012,172.69343530000015,172.69343530000015,172.69343530000015,172.69343530000015,173.20646129999977,x,0.5087223999998969,None,,,,,,,,,,GSR_th,001,2025-03-07_11h16.34.458,MainFlow,2024.2.4,135.4171321631981,2025-03-07 11h16.47.730487 +0700,
1,1,70,word/wordth0701.png,95,95,0,z,0.5722876999998334,None,0,95,95,95,173.2137947000001,,,,,,,173.2137947000001,173.2137947000001,174.25631250000015,174.26374870000018,174.26374870000018,174.26374870000018,174.26374870000018,174.8399556999998,z,0.5722876999998334,None,,,,,,,,,,GSR_th,001,2025-03-07_11h16.34.458,MainFlow,2024.2.4,135.4171321631981,2025-03-07 11h16.47.730487 +0700,
1,2,66,word/wordth0662.png,96,96,0,x,0.7339292999999998,None,0,96,96,96,174.8475109000001,,,,,,,174.8475109000001,174.8475109000001,175.8910962,175.8988075000002,175.8988075000002,175.8988075000002,175.8988075000002,176.63739459999988,x,0.7339292999999998,None,,,,,,,,,,GSR_th,001,2025-03-07_11h16.34.458,MainFlow,2024.2.4,135.4171321631981,2025-03-07 11h16.47.730487 +0700,
1,1,26,word/wordth0261.png,97,97,0,z,0.6652400000002672,None,0,97,97,97,176.64470290000008,,,,,,,176.64470290000008,176.64470290000008,177.69020569999975,177.69804620000014,177.69804620000014,177.69804620000014,177.69804620000014,178.3750187999999,z,0.6652400000002672,None,,,,,,,,,,GSR_th,001,2025-03-07_11h16.34.458,MainFlow,2024.2.4,135.4171321631981,2025-03-07 11h16.47.730487 +0700,
1,3,9,word/wordth0093.png,98,98,0,x,0.4389837000003354,None,0,98,98,98,178.38258330000008,,,,,,,178.38258330000008,178.38258330000008,179.42718090000017,179.43505539999978,179.43505539999978,179.43505539999978,179.43505539999978,179.8782709000002,x,0.4389837000003354,None,,,,,,,,,,GSR_th,001,2025-03-07_11h16.34.458,MainFlow,2024.2.4,135.4171321631981,2025-03-07 11h16.47.730487 +0700,
1,2,61,word/wordth0612.png,99,99,0,x,0.5002463000000716,None,0,99,99,99,179.8862865000001,,,,,,,179.8862865000001,179.8862865000001,180.92300299999988,180.93036189999975,180.93036189999975,180.93036189999975,180.93036189999975,181.43463239999983,x,0.5002463000000716,None,,,,,,,,,,GSR_th,001,2025-03-07_11h16.34.458,MainFlow,2024.2.4,135.4171321631981,2025-03-07 11h16.47.730487 +0700,
1,3,8,word/wordth0083.png,100,100,0,x,0.8376428000001397,None,0,100,100,100,181.44247300000006,,,,,,,181.44247300000006,181.44247300000006,182.48503279999977,182.4915132000001,182.4915132000001,182.4915132000001,182.4915132000001,183.33918549999999,x,0.8376428000001397,None,,,,,,,,,,GSR_th,001,2025-03-07_11h16.34.458,MainFlow,2024.2.4,135.4171321631981,2025-03-07 11h16.47.730487 +0700,
1,1,8,word/wordth0081.png,101,101,0,z,0.9215080999997554,None,0,101,101,101,183.34712200000013,,,,,,,183.34712200000013,183.34712200000013,184.38759660000005,184.3947932000001,184.3947932000001,184.3947932000001,184.3947932000001,185.3245035,z,0.9215080999997554,None,,,,,,,,,,GSR_th,001,2025-03-07_11h16.34.458,MainFlow,2024.2.4,135.4171321631981,2025-03-07 11h16.47.730487 +0700,
1,2,44,word/wordth0442.png,102,102,0,x,0.8542625999998563,None,0,102,102,102,185.3322174,,,,,,,185.3322174,185.3322174,186.35132079999994,186.35680469999988,186.35680469999988,186.35680469999988,186.35680469999988,187.21592329999976,x,0.8542625999998563,None,,,,,,,,,,GSR_th,001,2025-03-07_11h16.34.458,MainFlow,2024.2.4,135.4171321631981,2025-03-07 11h16.47.730487 +0700,
1,3,31,word/wordth0313.png,103,103,0,x,0.7215963999997257,None,0,103,103,103,187.22147779999978,,,,,,,187.22147779999978,187.22147779999978,188.24310130000003,188.2490085999998,188.2490085999998,188.2490085999998,188.2490085999998,188.97922729999982,x,0.7215963999997257,None,,,,,,,,,,GSR_th,001,2025-03-07_11h16.34.458,MainFlow,2024.2.4,135.4171321631981,2025-03-07 11h16.47.730487 +0700,
1,1,89,word/wordth0891.png,104,104,0,z,0.5638463999998748,None,0,104,104,104,188.98414580000008,,,,,,,188.98414580000008,188.98414580000008,190.00763069999994,190.0135390999999,190.0135390999999,190.0135390999999,190.0135390999999,190.58279390000007,z,0.5638463999998748,None,,,,,,,,,,GSR_th,001,2025-03-07_11h16.34.458,MainFlow,2024.2.4,135.4171321631981,2025-03-07 11h16.47.730487 +0700,
1,3,70,word/wordth0703.png,105,105,0,x,0.5472740000000158,None,0,105,105,105,190.5883646000002,,,,,,,190.5883646000002,190.5883646000002,191.6055563,191.6113909999999,191.6113909999999,191.6113909999999,191.6113909999999,192.16265209999983,x,0.5472740000000158,None,,,,,,,,,,GSR_th,001,2025-03-07_11h16.34.458,MainFlow,2024.2.4,135.4171321631981,2025-03-07 11h16.47.730487 +0700,
1,3,68,word/wordth0683.png,106,106,0,x,0.580034699999942,None,0,106,106,106,192.16993779999984,,,,,,,192.16993779999984,192.16993779999984,193.2095915,193.21700150000015,193.21700150000015,193.21700150000015,193.21700150000015,193.79968879999979,x,0.580034699999942,None,,,,,,,,,,GSR_th,001,2025-03-07_11h16.34.458,MainFlow,2024.2.4,135.4171321631981,2025-03-07 11h16.47.730487 +0700,
1,3,10,word/wordth0103.png,107,107,0,x,0.416677300000174,None,0,107,107,107,193.80866259999993,,,,,,,193.80866259999993,193.80866259999993,194.83706600000005,194.84319129999994,194.84319129999994,194.84319129999994,194.84319129999994,195.26488549999976,x,0.416677300000174,None,,,,,,,,,,GSR_th,001,2025-03-07_11h16.34.458,MainFlow,2024.2.4,135.4171321631981,2025-03-07 11h16.47.730487 +0700,
1,3,94,word/wordth0943.png,108,108,0,x,0.5528953999996702,None,0,108,108,108,195.27223559999993,,,,,,,195.27223559999993,195.27223559999993,196.3168184000001,196.32462829999986,196.32462829999986,196.32462829999986,196.32462829999986,196.88085279999996,x,0.5528953999996702,None,,,,,,,,,,GSR_th,001,2025-03-07_11h16.34.458,MainFlow,2024.2.4,135.4171321631981,2025-03-07 11h16.47.730487 +0700,
1,1,3,word/wordth0031.png,109,109,0,z,0.5984915999997611,None,0,109,109,109,196.88903170000003,,,,,,,196.88903170000003,196.88903170000003,197.92812120000008,197.9353332999999,197.9353332999999,197.9353332999999,197.9353332999999,198.5373322999999,z,0.5984915999997611,None,,,,,,,,,,GSR_th,001,2025-03-07_11h16.34.458,MainFlow,2024.2.4,135.4171321631981,2025-03-07 11h16.47.730487 +0700,
1,3,63,word/wordth0633.png,110,110,0,x,0.48875950000001467,None,0,110,110,110,198.54430709999997,,,,,,,198.54430709999997,198.54430709999997,199.5853347000002,199.5930088,199.5930088,199.5930088,199.5930088,200.08545980000008,x,0.48875950000001467,None,,,,,,,,,,GSR_th,001,2025-03-07_11h16.34.458,MainFlow,2024.2.4,135.4171321631981,2025-03-07 11h16.47.730487 +0700,
1,2,9,word/wordth0092.png,111,111,0,x,0.6953607999998894,None,0,111,111,111,200.09285330000012,,,,,,,200.09285330000012,200.09285330000012,201.10890010000003,201.11425980000013,201.11425980000013,201.11425980000013,201.11425980000013,201.8171625,x,0.6953607999998894,None,,,,,,,,,,GSR_th,001,2025-03-07_11h16.34.458,MainFlow,2024.2.4,135.4171321631981,2025-03-07 11h16.47.730487 +0700,
1,3,7,word/wordth0073.png,112,112,0,x,0.7582628999998633,None,0,112,112,112,201.82775290000018,,,,,,,201.82775290000018,201.82775290000018,202.84426299999996,202.8500479999998,202.8500479999998,202.8500479999998,202.8500479999998,203.6161422,x,0.7582628999998633,None,,,,,,,,,,GSR_th,001,2025-03-07_11h16.34.458,MainFlow,2024.2.4,135.4171321631981,2025-03-07 11h16.47.730487 +0700,
1,2,41,word/wordth0412.png,113,113,0,x,0.7332820999999967,None,0,113,113,113,203.62137660000008,,,,,,,203.62137660000008,203.62137660000008,204.63856769999984,204.64377079999986,204.64377079999986,204.64377079999986,204.64377079999986,205.37887009999986,x,0.7332820999999967,None,,,,,,,,,,GSR_th,001,2025-03-07_11h16.34.458,MainFlow,2024.2.4,135.4171321631981,2025-03-07 11h16.47.730487 +0700,
1,1,9,word/wordth0091.png,114,114,0,z,0.872437600000012,None,0,114,114,114,205.38426329999993,,,,,,,205.38426329999993,205.38426329999993,206.41032700000005,206.41629710000007,206.41629710000007,206.41629710000007,206.41629710000007,207.29760729999998,z,0.872437600000012,None,,,,,,,,,,GSR_th,001,2025-03-07_11h16.34.458,MainFlow,2024.2.4,135.4171321631981,2025-03-07 11h16.47.730487 +0700,
1,1,94,word/wordth0941.png,115,115,0,z,0.5646980999999869,None,0,115,115,115,207.30340280000019,,,,,,,207.30340280000019,207.30340280000019,208.33860189999996,208.34547810000004,208.34547810000004,208.34547810000004,208.34547810000004,208.91667629999984,z,0.5646980999999869,None,208.34547810000004,208.34547810000004,,,,,,,,GSR_th,001,2025-03-07_11h16.34.458,MainFlow,2024.2.4,135.4171321631981,2025-03-07 11h16.47.730487 +0700,
1,1,52,word/wordth0521.png,116,116,0,z,0.4774674000000232,None,0,116,116,116,208.9239137999998,,,,,,,208.9239137999998,208.9239137999998,209.9646899999998,209.9715943000001,209.9715943000001,209.9715943000001,209.9715943000001,210.45325809999986,z,0.4774674000000232,None,,,,,,,,,,GSR_th,001,2025-03-07_11h16.34.458,MainFlow,2024.2.4,135.4171321631981,2025-03-07 11h16.47.730487 +0700,
1,2,88,word/wordth0882.png,117,117,0,x,0.5566687000000456,None,0,117,117,117,210.46075419999988,,,,,,,210.46075419999988,210.46075419999988,211.50473599999987,211.51310439999997,211.51310439999997,211.51310439999997,211.51310439999997,212.08131390000017,x,0.5566687000000456,None,,,,,,,,,,GSR_th,001,2025-03-07_11h16.34.458,MainFlow,2024.2.4,135.4171321631981,2025-03-07 11h16.47.730487 +0700,
1,1,41,word/wordth0411.png,118,118,0,z,1.1265285000004042,None,0,118,118,118,212.08907809999982,,,,,,,212.08907809999982,212.08907809999982,213.107669,213.1129876,213.1129876,213.1129876,213.1129876,214.24758040000006,z,1.1265285000004042,None,,,,,,,,,,GSR_th,001,2025-03-07_11h16.34.458,MainFlow,2024.2.4,135.4171321631981,2025-03-07 11h16.47.730487 +0700,
1,3,30,word/wordth0303.png,119,119,0,x,0.8259565999996994,None,0,119,119,119,214.25380610000002,,,,,,,214.25380610000002,214.25380610000002,215.2971695000001,215.3047529999999,215.3047529999999,215.3047529999999,215.3047529999999,216.14269539999987,x,0.8259565999996994,None,,,,,,,,,,GSR_th,001,2025-03-07_11h16.34.458,MainFlow,2024.2.4,135.4171321631981,2025-03-07 11h16.47.730487 +0700,
,,,,,,,,,,,,,,,,,,,,,,,,,,,,,,,,,,216.14302980000002,216.15326809999988,216.15326809999988,217.31645029999981,space,1.1544208000000253,None,GSR_th,001,2025-03-07_11h16.34.458,MainFlow,2024.2.4,135.4171321631981,2025-03-07 11h16.47.730487 +0700,
