lang,stimuli,imageid,worddir,thisN,thisTrialN,thisRepN,key_resp.keys,key_resp.rt,key_resp.duration,trials.thisRepN,trials.thisTrialN,trials.thisN,trials.thisIndex,thisRow.t,notes,tutorial.started,tutorial.stopped,key_instruct.keys,key_instruct.rt,key_instruct.duration,instructblank.started,cross1.started,letterselect.started,imageword.started,text_2.started,cross2.started,key_resp.started,letterselect.stopped,trials.key_resp.keys,trials.key_resp.rt,trials.key_resp.duration,ending.started,text_3.started,ending_key.started,ending.stopped,ending_key.keys,ending_key.rt,ending_key.duration,participant,session,date,expName,psychopyVersion,frameRate,expStart,
,,,,,,,,,,,,,,,,0.004119000164791942,5.032585000153631,space,4.998357400065288,None,,,,,,,,,,,,,,,,,,,KH_th,001,2025-03-09_20h54.19.062,MainFlow,2024.2.4,144.85175134959016,2025-03-09 20h54.28.533987 +0700,
1,3,89,word/wordth0893.png,0,0,0,x,1.7491550000850111,None,0,0,0,0,5.064595300005749,,,,,,,5.064595300005749,5.064595300005749,6.045134500134736,6.051017899997532,6.051017899997532,6.051017899997532,6.051017899997532,7.80401000007987,x,1.7491550000850111,None,,,,,,,,KH_th,001,2025-03-09_20h54.19.062,MainFlow,2024.2.4,144.85175134959016,2025-03-09 20h54.28.533987 +0700,
1,3,28,word/wordth0283.png,1,1,0,x,1.100516299949959,None,0,1,1,1,7.810400000074878,,,,,,,7.810400000074878,7.810400000074878,8.79891030001454,8.803653500042856,8.803653500042856,8.803653500042856,8.803653500042856,9.910268100211397,x,1.100516299949959,None,,,,,,,,KH_th,001,2025-03-09_20h54.19.062,MainFlow,2024.2.4,144.85175134959016,2025-03-09 20h54.28.533987 +0700,
1,2,87,word/wordth0872.png,2,2,0,x,1.6262816998641938,None,0,2,2,2,9.916692900005728,,,,,,,9.916692900005728,9.916692900005728,10.904292900115252,10.909893500152975,10.909893500152975,10.909893500152975,10.909893500152975,12.537893600063398,x,1.6262816998641938,None,,,,,,,,KH_th,001,2025-03-09_20h54.19.062,MainFlow,2024.2.4,144.85175134959016,2025-03-09 20h54.28.533987 +0700,
1,2,68,word/wordth0682.png,3,3,0,x,1.647859500022605,None,0,3,3,3,12.544229499995708,,,,,,,12.544229499995708,12.544229499995708,13.53398620011285,13.545315199997276,13.545315199997276,13.545315199997276,13.545315199997276,15.200355000095442,x,1.647859500022605,None,,,,,,,,KH_th,001,2025-03-09_20h54.19.062,MainFlow,2024.2.4,144.85175134959016,2025-03-09 20h54.28.533987 +0700,
1,2,11,word/wordth0112.png,4,4,0,x,1.1454964999575168,None,0,4,4,4,15.206688700011,,,,,,,15.206688700011,15.206688700011,16.197698900010437,16.207691200077534,16.207691200077534,16.207691200077534,16.207691200077534,17.355187300127,x,1.1454964999575168,None,,,,,,,,KH_th,001,2025-03-09_20h54.19.062,MainFlow,2024.2.4,144.85175134959016,2025-03-09 20h54.28.533987 +0700,
1,3,11,word/wordth0113.png,5,5,0,x,0.6303297001868486,None,0,5,5,5,17.361613900167868,,,,,,,17.361613900167868,17.361613900167868,18.35025390004739,18.354849100112915,18.354849100112915,18.354849100112915,18.354849100112915,18.988849400077015,x,0.6303297001868486,None,,,,,,,,KH_th,001,2025-03-09_20h54.19.062,MainFlow,2024.2.4,144.85175134959016,2025-03-09 20h54.28.533987 +0700,
1,2,71,word/wordth0712.png,6,6,0,x,0.7169564000796527,None,0,6,6,6,18.995201900135726,,,,,,,18.995201900135726,18.995201900135726,19.985156600130722,19.996222800109535,19.996222800109535,19.996222800109535,19.996222800109535,20.71988010010682,x,0.7169564000796527,None,,,,,,,,KH_th,001,2025-03-09_20h54.19.062,MainFlow,2024.2.4,144.85175134959016,2025-03-09 20h54.28.533987 +0700,
1,3,44,word/wordth0443.png,7,7,0,x,0.898853899911046,None,0,7,7,7,20.726158700184897,,,,,,,20.726158700184897,20.726158700184897,21.714604300213978,21.719335600035265,21.719335600035265,21.719335600035265,21.719335600035265,22.624380100052804,x,0.898853899911046,None,,,,,,,,KH_th,001,2025-03-09_20h54.19.062,MainFlow,2024.2.4,144.85175134959016,2025-03-09 20h54.28.533987 +0700,
1,2,82,word/wordth0822.png,8,8,0,x,0.7701739999465644,None,0,8,8,8,22.630783000029624,,,,,,,22.630783000029624,22.630783000029624,23.618892800062895,23.624000600073487,23.624000600073487,23.624000600073487,23.624000600073487,24.396973500028253,x,0.7701739999465644,None,,,,,,,,KH_th,001,2025-03-09_20h54.19.062,MainFlow,2024.2.4,144.85175134959016,2025-03-09 20h54.28.533987 +0700,
1,2,28,word/wordth0282.png,9,9,0,x,0.9895963999442756,None,0,9,9,9,24.403374100103974,,,,,,,24.403374100103974,24.403374100103974,25.391738000093028,25.39660990005359,25.39660990005359,25.39660990005359,25.39660990005359,26.392044600099325,x,0.9895963999442756,None,,,,,,,,KH_th,001,2025-03-09_20h54.19.062,MainFlow,2024.2.4,144.85175134959016,2025-03-09 20h54.28.533987 +0700,
1,1,23,word/wordth0231.png,10,10,0,z,1.3307364999782294,None,0,10,10,10,26.398307800060138,,,,,,,26.398307800060138,26.398307800060138,27.388930400134996,27.399460200220346,27.399460200220346,27.399460200220346,27.399460200220346,28.734694700222462,z,1.3307364999782294,None,,,,,,,,KH_th,001,2025-03-09_20h54.19.062,MainFlow,2024.2.4,144.85175134959016,2025-03-09 20h54.28.533987 +0700,
1,2,63,word/wordth0632.png,11,11,0,x,1.0128788000438362,None,0,11,11,11,28.741083700209856,,,,,,,28.741083700209856,28.741083700209856,29.72967470018193,29.734297499991953,29.734297499991953,29.734297499991953,29.734297499991953,30.750705800019205,x,1.0128788000438362,None,,,,,,,,KH_th,001,2025-03-09_20h54.19.062,MainFlow,2024.2.4,144.85175134959016,2025-03-09 20h54.28.533987 +0700,
1,3,71,word/wordth0713.png,12,12,0,x,1.2051571998745203,None,0,12,12,12,30.756844100076705,,,,,,,30.756844100076705,30.756844100076705,31.745952600147575,31.758003200171515,31.758003200171515,31.758003200171515,31.758003200171515,32.96811660006642,x,1.2051571998745203,None,,,,,,,,KH_th,001,2025-03-09_20h54.19.062,MainFlow,2024.2.4,144.85175134959016,2025-03-09 20h54.28.533987 +0700,
1,1,1,word/wordth0011.png,13,13,0,z,0.915476799942553,None,0,13,13,13,32.97445130022243,,,,,,,32.97445130022243,32.97445130022243,33.96308460016735,33.96770540019497,33.96770540019497,33.96770540019497,33.96770540019497,34.88669400010258,z,0.915476799942553,None,,,,,,,,KH_th,001,2025-03-09_20h54.19.062,MainFlow,2024.2.4,144.85175134959016,2025-03-09 20h54.28.533987 +0700,
1,3,41,word/wordth0413.png,14,14,0,x,0.8621372000779957,None,0,14,14,14,34.893079600064084,,,,,,,34.893079600064084,34.893079600064084,35.883296200074255,35.89407979999669,35.89407979999669,35.89407979999669,35.89407979999669,36.756984600098804,x,0.8621372000779957,None,,,,,,,,KH_th,001,2025-03-09_20h54.19.062,MainFlow,2024.2.4,144.85175134959016,2025-03-09 20h54.28.533987 +0700,
1,2,64,word/wordth0642.png,15,15,0,x,1.695970900123939,None,0,15,15,15,36.763004700187594,,,,,,,36.763004700187594,36.763004700187594,37.751363000134006,37.7562131001614,37.7562131001614,37.7562131001614,37.7562131001614,39.45363420015201,x,1.695970900123939,None,,,,,,,,KH_th,001,2025-03-09_20h54.19.062,MainFlow,2024.2.4,144.85175134959016,2025-03-09 20h54.28.533987 +0700,
1,3,6,word/wordth0063.png,16,16,0,x,0.7910150000825524,None,0,16,16,16,39.460114900022745,,,,,,,39.460114900022745,39.460114900022745,40.450005900114775,40.46117680007592,40.46117680007592,40.46117680007592,40.46117680007592,41.25405380013399,x,0.7910150000825524,None,,,,,,,,KH_th,001,2025-03-09_20h54.19.062,MainFlow,2024.2.4,144.85175134959016,2025-03-09 20h54.28.533987 +0700,
1,2,31,word/wordth0312.png,17,17,0,x,0.5586316999979317,None,0,17,17,17,41.2605413000565,,,,,,,41.2605413000565,41.2605413000565,42.25113270012662,42.26153600006364,42.26153600006364,42.26153600006364,42.26153600006364,42.825002500088885,x,0.5586316999979317,None,,,,,,,,KH_th,001,2025-03-09_20h54.19.062,MainFlow,2024.2.4,144.85175134959016,2025-03-09 20h54.28.533987 +0700,
1,1,46,word/wordth0461.png,18,18,0,z,1.2596948000136763,None,0,18,18,18,42.831572300055996,,,,,,,42.831572300055996,42.831572300055996,43.81990380003117,43.82478930009529,43.82478930009529,43.82478930009529,43.82478930009529,45.09128620009869,z,1.2596948000136763,None,,,,,,,,KH_th,001,2025-03-09_20h54.19.062,MainFlow,2024.2.4,144.85175134959016,2025-03-09 20h54.28.533987 +0700,
1,3,51,word/wordth0513.png,19,19,0,x,1.2667610000353307,None,0,19,19,19,45.097702000057325,,,,,,,45.097702000057325,45.097702000057325,46.08660030015744,46.09871520008892,46.09871520008892,46.09871520008892,46.09871520008892,47.3714107000269,x,1.2667610000353307,None,,,,,,,,KH_th,001,2025-03-09_20h54.19.062,MainFlow,2024.2.4,144.85175134959016,2025-03-09 20h54.28.533987 +0700,
1,2,26,word/wordth0262.png,20,20,0,x,1.3300919998437166,None,0,20,20,20,47.37776470021345,,,,,,,47.37776470021345,47.37776470021345,48.36562870000489,48.37139830016531,48.37139830016531,48.37139830016531,48.37139830016531,49.707012300146744,x,1.3300919998437166,None,,,,,,,,KH_th,001,2025-03-09_20h54.19.062,MainFlow,2024.2.4,144.85175134959016,2025-03-09 20h54.28.533987 +0700,
1,2,96,word/wordth0962.png,21,21,0,x,0.8348019998520613,None,0,21,21,21,49.71338430000469,,,,,,,49.71338430000469,49.71338430000469,50.70203340006992,50.70668590022251,50.70668590022251,50.70668590022251,50.70668590022251,51.54235610016622,x,0.8348019998520613,None,,,,,,,,KH_th,001,2025-03-09_20h54.19.062,MainFlow,2024.2.4,144.85175134959016,2025-03-09 20h54.28.533987 +0700,
1,1,31,word/wordth0311.png,22,22,0,z,0.8476285999640822,None,0,22,22,22,51.548613500082865,,,,,,,51.548613500082865,51.548613500082865,52.53703140001744,52.541843000100926,52.541843000100926,52.541843000100926,52.541843000100926,53.39118930022232,z,0.8476285999640822,None,,,,,,,,KH_th,001,2025-03-09_20h54.19.062,MainFlow,2024.2.4,144.85175134959016,2025-03-09 20h54.28.533987 +0700,
1,2,94,word/wordth0942.png,23,23,0,x,1.1919523000251502,None,0,23,23,23,53.39768340019509,,,,,,,53.39768340019509,53.39768340019509,54.38758110022172,54.39857890014537,54.39857890014537,54.39857890014537,54.39857890014537,55.594881100114435,x,1.1919523000251502,None,,,,,,,,KH_th,001,2025-03-09_20h54.19.062,MainFlow,2024.2.4,144.85175134959016,2025-03-09 20h54.28.533987 +0700,
1,3,48,word/wordth0483.png,24,24,0,x,0.9479634000454098,None,0,24,24,24,55.60130460001528,,,,,,,55.60130460001528,55.60130460001528,56.58943160017952,56.59451710013673,56.59451710013673,56.59451710013673,56.59451710013673,57.548236300004646,x,0.9479634000454098,None,,,,,,,,KH_th,001,2025-03-09_20h54.19.062,MainFlow,2024.2.4,144.85175134959016,2025-03-09 20h54.28.533987 +0700,
1,3,24,word/wordth0243.png,25,25,0,x,1.9145623999647796,None,0,25,25,25,57.554617300163954,,,,,,,57.554617300163954,57.554617300163954,58.54348970018327,58.54789560008794,58.54789560008794,58.54789560008794,58.54789560008794,60.46780040021986,x,1.9145623999647796,None,,,,,,,,KH_th,001,2025-03-09_20h54.19.062,MainFlow,2024.2.4,144.85175134959016,2025-03-09 20h54.28.533987 +0700,
1,1,87,word/wordth0871.png,26,26,0,z,0.9802826000377536,None,0,26,26,26,60.47424480016343,,,,,,,60.47424480016343,60.47424480016343,61.464213400147855,61.47522630007006,61.47522630007006,61.47522630007006,61.47522630007006,62.45623010001145,z,0.9802826000377536,None,,,,,,,,KH_th,001,2025-03-09_20h54.19.062,MainFlow,2024.2.4,144.85175134959016,2025-03-09 20h54.28.533987 +0700,
1,2,51,word/wordth0512.png,27,27,0,x,1.5838802000507712,None,0,27,27,27,62.462335700169206,,,,,,,62.462335700169206,62.462335700169206,63.45043640001677,63.45558290020563,63.45558290020563,63.45558290020563,63.45558290020563,65.04198510013521,x,1.5838802000507712,None,,,,,,,,KH_th,001,2025-03-09_20h54.19.062,MainFlow,2024.2.4,144.85175134959016,2025-03-09 20h54.28.533987 +0700,
1,3,27,word/wordth0273.png,28,28,0,x,1.3739561999682337,None,0,28,28,28,65.04824440018274,,,,,,,65.04824440018274,65.04824440018274,66.03724180022255,66.04150320007466,66.04150320007466,66.04150320007466,66.04150320007466,67.41916910000145,x,1.3739561999682337,None,,,,,,,,KH_th,001,2025-03-09_20h54.19.062,MainFlow,2024.2.4,144.85175134959016,2025-03-09 20h54.28.533987 +0700,
1,2,22,word/wordth0222.png,29,29,0,x,0.8218183000572026,None,0,29,29,29,67.42561690020375,,,,,,,67.42561690020375,67.42561690020375,68.41523520019837,68.42665860010311,68.42665860010311,68.42665860010311,68.42665860010311,69.25439900020137,x,0.8218183000572026,None,,,,,,,,KH_th,001,2025-03-09_20h54.19.062,MainFlow,2024.2.4,144.85175134959016,2025-03-09 20h54.28.533987 +0700,
1,3,23,word/wordth0233.png,30,30,0,x,0.6740882999729365,None,0,30,30,30,69.26078800018877,,,,,,,69.26078800018877,69.26078800018877,70.24872460006736,70.25440840004012,70.25440840004012,70.25440840004012,70.25440840004012,70.92958630016074,x,0.6740882999729365,None,,,,,,,,KH_th,001,2025-03-09_20h54.19.062,MainFlow,2024.2.4,144.85175134959016,2025-03-09 20h54.28.533987 +0700,
1,1,48,word/wordth0481.png,31,31,0,z,1.1111940999981016,None,0,31,31,31,70.93608140014112,,,,,,,70.93608140014112,70.93608140014112,71.92448440007865,71.92933860002086,71.92933860002086,71.92933860002086,71.92933860002086,73.0429680000525,z,1.1111940999981016,None,,,,,,,,KH_th,001,2025-03-09_20h54.19.062,MainFlow,2024.2.4,144.85175134959016,2025-03-09 20h54.28.533987 +0700,
1,2,10,word/wordth0102.png,32,32,0,x,1.110399599885568,None,0,32,32,32,73.049269300187,,,,,,,73.049269300187,73.049269300187,74.03792970022187,74.04256690014154,74.04256690014154,74.04256690014154,74.04256690014154,75.15618010004982,x,1.110399599885568,None,,,,,,,,KH_th,001,2025-03-09_20h54.19.062,MainFlow,2024.2.4,144.85175134959016,2025-03-09 20h54.28.533987 +0700,
1,3,64,word/wordth0643.png,33,33,0,x,1.1334961999673396,None,0,33,33,33,75.16251550009474,,,,,,,75.16251550009474,75.16251550009474,76.15141300018877,76.16354400012642,76.16354400012642,76.16354400012642,76.16354400012642,77.3041592000518,x,1.1334961999673396,None,,,,,,,,KH_th,001,2025-03-09_20h54.19.062,MainFlow,2024.2.4,144.85175134959016,2025-03-09 20h54.28.533987 +0700,
1,3,22,word/wordth0223.png,34,34,0,x,0.8574498000089079,None,0,34,34,34,77.31039920006879,,,,,,,77.31039920006879,77.31039920006879,78.30047440016642,78.31153140007518,78.31153140007518,78.31153140007518,78.31153140007518,79.17407920002006,x,0.8574498000089079,None,,,,,,,,KH_th,001,2025-03-09_20h54.19.062,MainFlow,2024.2.4,144.85175134959016,2025-03-09 20h54.28.533987 +0700,
1,1,42,word/wordth0421.png,35,35,0,z,0.748494999948889,None,0,35,35,35,79.18044090014882,,,,,,,79.18044090014882,79.18044090014882,80.17008780012839,80.18148180004209,80.18148180004209,80.18148180004209,80.18148180004209,80.93272340018302,z,0.748494999948889,None,,,,,,,,KH_th,001,2025-03-09_20h54.19.062,MainFlow,2024.2.4,144.85175134959016,2025-03-09 20h54.28.533987 +0700,
1,2,1,word/wordth0012.png,36,36,0,x,1.8456068998202682,None,0,36,36,36,80.9391203999985,,,,,,,80.9391203999985,80.9391203999985,81.92720410018228,81.93237110017799,81.93237110017799,81.93237110017799,81.93237110017799,83.78287280001678,x,1.8456068998202682,None,,,,,,,,KH_th,001,2025-03-09_20h54.19.062,MainFlow,2024.2.4,144.85175134959016,2025-03-09 20h54.28.533987 +0700,
1,1,82,word/wordth0821.png,37,37,0,z,0.9155479001346976,None,0,37,37,37,83.78924610000104,,,,,,,83.78924610000104,83.78924610000104,84.77741950005293,84.78244990017265,84.78244990017265,84.78244990017265,84.78244990017265,85.7015908001922,z,0.9155479001346976,None,,,,,,,,KH_th,001,2025-03-09_20h54.19.062,MainFlow,2024.2.4,144.85175134959016,2025-03-09 20h54.28.533987 +0700,
1,2,3,word/wordth0032.png,38,38,0,x,2.3819293999113142,None,0,38,38,38,85.70785540016368,,,,,,,85.70785540016368,85.70785540016368,86.6958533001598,86.70104730012827,86.70104730012827,86.70104730012827,86.70104730012827,89.08672100002877,x,2.3819293999113142,None,,,,,,,,KH_th,001,2025-03-09_20h54.19.062,MainFlow,2024.2.4,144.85175134959016,2025-03-09 20h54.28.533987 +0700,
1,1,68,word/wordth0681.png,39,39,0,z,0.660816099960357,None,0,39,39,39,89.09321120008826,,,,,,,89.09321120008826,89.09321120008826,90.08248090022244,90.09416580013931,90.09416580013931,90.09416580013931,90.09416580013931,90.76124670007266,z,0.660816099960357,None,,,,,,,,KH_th,001,2025-03-09_20h54.19.062,MainFlow,2024.2.4,144.85175134959016,2025-03-09 20h54.28.533987 +0700,
1,1,66,word/wordth0661.png,40,40,0,z,0.9453052000608295,None,0,40,40,40,90.76760590006597,,,,,,,90.76760590006597,90.76760590006597,91.75675120018423,91.76167660020292,91.76167660020292,91.76167660020292,91.76167660020292,92.70833970000967,z,0.9453052000608295,None,,,,,,,,KH_th,001,2025-03-09_20h54.19.062,MainFlow,2024.2.4,144.85175134959016,2025-03-09 20h54.28.533987 +0700,
1,2,42,word/wordth0422.png,41,41,0,x,1.15964199998416,None,0,41,41,41,92.71491220011376,,,,,,,92.71491220011376,92.71491220011376,93.70396540011279,93.71584100020118,93.71584100020118,93.71584100020118,93.71584100020118,94.87784070009366,x,1.15964199998416,None,,,,,,,,KH_th,001,2025-03-09_20h54.19.062,MainFlow,2024.2.4,144.85175134959016,2025-03-09 20h54.28.533987 +0700,
1,3,93,word/wordth0933.png,42,42,0,x,1.4706171001307666,None,0,42,42,42,94.8836217999924,,,,,,,94.8836217999924,94.8836217999924,95.87232770002447,95.87690740008838,95.87690740008838,95.87690740008838,95.87690740008838,97.35193190001883,x,1.4706171001307666,None,,,,,,,,KH_th,001,2025-03-09_20h54.19.062,MainFlow,2024.2.4,144.85175134959016,2025-03-09 20h54.28.533987 +0700,
1,1,71,word/wordth0711.png,43,43,0,z,0.7331099999137223,None,0,43,43,43,97.35840390017256,,,,,,,97.35840390017256,97.35840390017256,98.34822430019267,98.35938090016134,98.35938090016134,98.35938090016134,98.35938090016134,99.096781300148,z,0.7331099999137223,None,,,,,,,,KH_th,001,2025-03-09_20h54.19.062,MainFlow,2024.2.4,144.85175134959016,2025-03-09 20h54.28.533987 +0700,
1,1,64,word/wordth0641.png,44,44,0,z,1.0763912999536842,None,0,44,44,44,99.1030639000237,,,,,,,99.1030639000237,99.1030639000237,100.09292270010337,100.10417990013957,100.10417990013957,100.10417990013957,100.10417990013957,101.18221860006452,z,1.0763912999536842,None,,,,,,,,KH_th,001,2025-03-09_20h54.19.062,MainFlow,2024.2.4,144.85175134959016,2025-03-09 20h54.28.533987 +0700,
1,1,88,word/wordth0881.png,45,45,0,z,0.9266586999874562,None,0,45,45,45,101.18859630008228,,,,,,,101.18859630008228,101.18859630008228,102.1772255001124,102.18183070002124,102.18183070002124,102.18183070002124,102.18183070002124,103.11474860017188,z,0.9266586999874562,None,,,,,,,,KH_th,001,2025-03-09_20h54.19.062,MainFlow,2024.2.4,144.85175134959016,2025-03-09 20h54.28.533987 +0700,
1,3,87,word/wordth0873.png,46,46,0,x,1.450220299884677,None,0,46,46,46,103.1209595000837,,,,,,,103.1209595000837,103.1209595000837,104.10937180020846,104.11430310015567,104.11430310015567,104.11430310015567,104.11430310015567,105.56849650014192,x,1.450220299884677,None,,,,,,,,KH_th,001,2025-03-09_20h54.19.062,MainFlow,2024.2.4,144.85175134959016,2025-03-09 20h54.28.533987 +0700,
1,3,3,word/wordth0033.png,47,47,0,x,2.3173038999084383,None,0,47,47,47,105.57486320007592,,,,,,,105.57486320007592,105.57486320007592,106.56383420014754,106.56821290007792,106.56821290007792,106.56821290007792,106.56821290007792,108.8912400000263,x,2.3173038999084383,None,,,,,,,,KH_th,001,2025-03-09_20h54.19.062,MainFlow,2024.2.4,144.85175134959016,2025-03-09 20h54.28.533987 +0700,
1,2,95,word/wordth0952.png,48,48,0,x,0.8905535999219865,None,0,48,48,48,108.89769100002013,,,,,,,108.89769100002013,108.89769100002013,109.88634890015237,109.89095430006273,109.89095430006273,109.89095430006273,109.89095430006273,110.78234100015834,x,0.8905535999219865,None,,,,,,,,KH_th,001,2025-03-09_20h54.19.062,MainFlow,2024.2.4,144.85175134959016,2025-03-09 20h54.28.533987 +0700,
1,1,11,word/wordth0111.png,49,49,0,z,0.6957835999783128,None,0,49,49,49,110.78845260012895,,,,,,,110.78845260012895,110.78845260012895,111.77709760004655,111.78173030004837,111.78173030004837,111.78173030004837,111.78173030004837,112.47844000020996,z,0.6957835999783128,None,,,,,,,,KH_th,001,2025-03-09_20h54.19.062,MainFlow,2024.2.4,144.85175134959016,2025-03-09 20h54.28.533987 +0700,
1,1,10,word/wordth0101.png,50,50,0,z,0.9928997999522835,None,0,50,50,50,112.48460930003785,,,,,,,112.48460930003785,112.48460930003785,113.47416380001232,113.48563370015472,113.48563370015472,113.48563370015472,113.48563370015472,114.48004350019619,z,0.9928997999522835,None,,,,,,,,KH_th,001,2025-03-09_20h54.19.062,MainFlow,2024.2.4,144.85175134959016,2025-03-09 20h54.28.533987 +0700,
1,1,44,word/wordth0441.png,51,51,0,z,0.9346617001574486,None,0,51,51,51,114.48661450017244,,,,,,,114.48661450017244,114.48661450017244,115.47496380005032,115.47985630016774,115.47985630016774,115.47985630016774,115.47985630016774,116.41968600009568,z,0.9346617001574486,None,,,,,,,,KH_th,001,2025-03-09_20h54.19.062,MainFlow,2024.2.4,144.85175134959016,2025-03-09 20h54.28.533987 +0700,
1,1,96,word/wordth0961.png,52,52,0,z,1.459246400045231,None,0,52,52,52,116.42604200006463,,,,,,,116.42604200006463,116.42604200006463,117.4144165001344,117.4192914001178,117.4192914001178,117.4192914001178,117.4192914001178,118.88052340014838,z,1.459246400045231,None,,,,,,,,KH_th,001,2025-03-09_20h54.19.062,MainFlow,2024.2.4,144.85175134959016,2025-03-09 20h54.28.533987 +0700,
1,2,27,word/wordth0272.png,53,53,0,x,1.9914351999759674,None,0,53,53,53,118.88685670006089,,,,,,,118.88685670006089,118.88685670006089,119.87518190010451,119.88011870021,119.88011870021,119.88011870021,119.88011870021,121.8765907001216,x,1.9914351999759674,None,,,,,,,,KH_th,001,2025-03-09_20h54.19.062,MainFlow,2024.2.4,144.85175134959016,2025-03-09 20h54.28.533987 +0700,
1,1,63,word/wordth0631.png,54,54,0,z,0.8514207999687642,None,0,54,54,54,121.88291130005382,,,,,,,121.88291130005382,121.88291130005382,122.87116470001638,122.8761648000218,122.8761648000218,122.8761648000218,122.8761648000218,123.73275600001216,z,0.8514207999687642,None,,,,,,,,KH_th,001,2025-03-09_20h54.19.062,MainFlow,2024.2.4,144.85175134959016,2025-03-09 20h54.28.533987 +0700,
1,3,66,word/wordth0663.png,55,55,0,x,1.4275824998039752,None,0,55,55,55,123.738932200009,,,,,,,123.738932200009,123.738932200009,124.72925000009127,124.7399480000604,124.7399480000604,124.7399480000604,124.7399480000604,126.17242790013552,x,1.4275824998039752,None,,,,,,,,KH_th,001,2025-03-09_20h54.19.062,MainFlow,2024.2.4,144.85175134959016,2025-03-09 20h54.28.533987 +0700,
1,3,88,word/wordth0883.png,56,56,0,x,1.0846760000567883,None,0,56,56,56,126.17888500005938,,,,,,,126.17888500005938,126.17888500005938,127.1694456001278,127.17987680016086,127.17987680016086,127.17987680016086,127.17987680016086,128.27162740007043,x,1.0846760000567883,None,,,,,,,,KH_th,001,2025-03-09_20h54.19.062,MainFlow,2024.2.4,144.85175134959016,2025-03-09 20h54.28.533987 +0700,
1,3,96,word/wordth0963.png,57,57,0,x,1.945308200083673,None,0,57,57,57,128.27808429999277,,,,,,,128.27808429999277,128.27808429999277,129.26813710015267,129.279205000028,129.279205000028,129.279205000028,129.279205000028,131.22604770003818,x,1.945308200083673,None,,,,,,,,KH_th,001,2025-03-09_20h54.19.062,MainFlow,2024.2.4,144.85175134959016,2025-03-09 20h54.28.533987 +0700,
1,2,52,word/wordth0522.png,58,58,0,x,1.0866959001868963,None,0,58,58,58,131.23255200008862,,,,,,,131.23255200008862,131.23255200008862,132.2210406002123,132.22580960020423,132.22580960020423,132.22580960020423,132.22580960020423,133.3185397000052,x,1.0866959001868963,None,,,,,,,,KH_th,001,2025-03-09_20h54.19.062,MainFlow,2024.2.4,144.85175134959016,2025-03-09 20h54.28.533987 +0700,
1,3,50,word/wordth0503.png,59,59,0,x,0.7791075001005083,None,0,59,59,59,133.32490940019488,,,,,,,133.32490940019488,133.32490940019488,134.31471950002015,134.32593200006522,134.32593200006522,134.32593200006522,134.32593200006522,135.11196130001917,x,0.7791075001005083,None,,,,,,,,KH_th,001,2025-03-09_20h54.19.062,MainFlow,2024.2.4,144.85175134959016,2025-03-09 20h54.28.533987 +0700,
1,3,61,word/wordth0613.png,60,60,0,x,0.9454440998379141,None,0,60,60,60,135.11836770013906,,,,,,,135.11836770013906,135.11836770013906,136.10688880016096,136.11161000002176,136.11161000002176,136.11161000002176,136.11161000002176,137.05841560009867,x,0.9454440998379141,None,,,,,,,,KH_th,001,2025-03-09_20h54.19.062,MainFlow,2024.2.4,144.85175134959016,2025-03-09 20h54.28.533987 +0700,
1,2,46,word/wordth0462.png,61,61,0,x,0.5272508000489324,None,0,61,61,61,137.06477070017718,,,,,,,137.06477070017718,137.06477070017718,138.0544995001983,138.0657825001981,138.0657825001981,138.0657825001981,138.0657825001981,138.5947267001029,x,0.5272508000489324,None,,,,,,,,KH_th,001,2025-03-09_20h54.19.062,MainFlow,2024.2.4,144.85175134959016,2025-03-09 20h54.28.533987 +0700,
1,1,61,word/wordth0611.png,62,62,0,z,0.9600354998838156,None,0,62,62,62,138.601031600032,,,,,,,138.601031600032,138.601031600032,139.59075820003636,139.6020606001839,139.6020606001839,139.6020606001839,139.6020606001839,140.56886670016684,z,0.9600354998838156,None,,,,,,,,KH_th,001,2025-03-09_20h54.19.062,MainFlow,2024.2.4,144.85175134959016,2025-03-09 20h54.28.533987 +0700,
1,1,24,word/wordth0241.png,63,63,0,z,0.8338015999179333,None,0,63,63,63,140.5752363000065,,,,,,,140.5752363000065,140.5752363000065,141.56617390015163,141.57624840014614,141.57624840014614,141.57624840014614,141.57624840014614,142.41091710003093,z,0.8338015999179333,None,,,,,,,,KH_th,001,2025-03-09_20h54.19.062,MainFlow,2024.2.4,144.85175134959016,2025-03-09 20h54.28.533987 +0700,
1,2,89,word/wordth0892.png,64,64,0,x,1.4954641999211162,None,0,64,64,64,142.41735080000944,,,,,,,142.41735080000944,142.41735080000944,143.4057509000413,143.4106011001859,143.4106011001859,143.4106011001859,143.4106011001859,144.90679450007156,x,1.4954641999211162,None,,,,,,,,KH_th,001,2025-03-09_20h54.19.062,MainFlow,2024.2.4,144.85175134959016,2025-03-09 20h54.28.533987 +0700,
1,1,30,word/wordth0301.png,65,65,0,z,0.7759199000429362,None,0,65,65,65,144.91290670004673,,,,,,,144.91290670004673,144.91290670004673,145.9016491000075,145.90613920008764,145.90613920008764,145.90613920008764,145.90613920008764,146.6862620001193,z,0.7759199000429362,None,,,,,,,,KH_th,001,2025-03-09_20h54.19.062,MainFlow,2024.2.4,144.85175134959016,2025-03-09 20h54.28.533987 +0700,
1,1,93,word/wordth0931.png,66,66,0,z,1.4615695998072624,None,0,66,66,66,146.69248940004036,,,,,,,146.69248940004036,146.69248940004036,147.68314470001496,147.69349930016324,147.69349930016324,147.69349930016324,147.69349930016324,149.1607457001228,z,1.4615695998072624,None,,,,,,,,KH_th,001,2025-03-09_20h54.19.062,MainFlow,2024.2.4,144.85175134959016,2025-03-09 20h54.28.533987 +0700,
1,1,50,word/wordth0501.png,67,67,0,z,1.6266749000642449,None,0,67,67,67,149.1670482000336,,,,,,,149.1670482000336,149.1670482000336,150.15559620014392,150.16039140010253,150.16039140010253,150.16039140010253,150.16039140010253,151.78840030007996,z,1.6266749000642449,None,,,,,,,,KH_th,001,2025-03-09_20h54.19.062,MainFlow,2024.2.4,144.85175134959016,2025-03-09 20h54.28.533987 +0700,
1,3,82,word/wordth0823.png,68,68,0,x,1.2800460001453757,None,0,68,68,68,151.79486050014384,,,,,,,151.79486050014384,151.79486050014384,152.78308930015191,152.78802209999412,152.78802209999412,152.78802209999412,152.78802209999412,154.06881240010262,x,1.2800460001453757,None,,,,,,,,KH_th,001,2025-03-09_20h54.19.062,MainFlow,2024.2.4,144.85175134959016,2025-03-09 20h54.28.533987 +0700,
1,1,27,word/wordth0271.png,69,69,0,z,0.6641500000841916,None,0,69,69,69,154.07476980006322,,,,,,,154.07476980006322,154.07476980006322,155.06514770002104,155.07590530021116,155.07590530021116,155.07590530021116,155.07590530021116,155.74381350004114,z,0.6641500000841916,None,,,,,,,,KH_th,001,2025-03-09_20h54.19.062,MainFlow,2024.2.4,144.85175134959016,2025-03-09 20h54.28.533987 +0700,
1,3,52,word/wordth0523.png,70,70,0,x,0.7806657000910491,None,0,70,70,70,155.7501668999903,,,,,,,155.7501668999903,155.7501668999903,156.73892130004242,156.74341950006783,156.74341950006783,156.74341950006783,156.74341950006783,157.53038730006665,x,0.7806657000910491,None,,,,,,,,KH_th,001,2025-03-09_20h54.19.062,MainFlow,2024.2.4,144.85175134959016,2025-03-09 20h54.28.533987 +0700,
1,1,22,word/wordth0221.png,71,71,0,z,0.8423683000728488,None,0,71,71,71,157.53664470021613,,,,,,,157.53664470021613,157.53664470021613,158.52700990019366,158.53770030010492,158.53770030010492,158.53770030010492,158.53770030010492,159.38656690018252,z,0.8423683000728488,None,,,,,,,,KH_th,001,2025-03-09_20h54.19.062,MainFlow,2024.2.4,144.85175134959016,2025-03-09 20h54.28.533987 +0700,
1,1,6,word/wordth0061.png,72,72,0,z,0.9543514000251889,None,0,72,72,72,159.3926783001516,,,,,,,159.3926783001516,159.3926783001516,160.38267190009356,160.39370250003412,160.39370250003412,160.39370250003412,160.39370250003412,161.35340090002865,z,0.9543514000251889,None,,,,,,,,KH_th,001,2025-03-09_20h54.19.062,MainFlow,2024.2.4,144.85175134959016,2025-03-09 20h54.28.533987 +0700,
1,2,30,word/wordth0302.png,73,73,0,x,1.355910599930212,None,0,73,73,73,161.35979810007848,,,,,,,161.35979810007848,161.35979810007848,162.3484377001878,162.35314940009266,162.35314940009266,162.35314940009266,162.35314940009266,163.7099999000784,x,1.355910599930212,None,,,,,,,,KH_th,001,2025-03-09_20h54.19.062,MainFlow,2024.2.4,144.85175134959016,2025-03-09 20h54.28.533987 +0700,
1,1,51,word/wordth0511.png,74,74,0,z,0.6873823998030275,None,0,74,74,74,163.716502700001,,,,,,,163.716502700001,163.716502700001,164.70473340013996,164.70967970020138,164.70967970020138,164.70967970020138,164.70967970020138,165.3992122001946,z,0.6873823998030275,None,,,,,,,,KH_th,001,2025-03-09_20h54.19.062,MainFlow,2024.2.4,144.85175134959016,2025-03-09 20h54.28.533987 +0700,
1,2,50,word/wordth0502.png,75,75,0,x,1.310530599905178,None,0,75,75,75,165.40562280011363,,,,,,,165.40562280011363,165.40562280011363,166.39675690000877,166.4065261001233,166.4065261001233,166.4065261001233,166.4065261001233,167.7209720001556,x,1.310530599905178,None,,,,,,,,KH_th,001,2025-03-09_20h54.19.062,MainFlow,2024.2.4,144.85175134959016,2025-03-09 20h54.28.533987 +0700,
1,3,95,word/wordth0953.png,76,76,0,x,0.9496207998599857,None,0,76,76,76,167.7274065001402,,,,,,,167.7274065001402,167.7274065001402,168.7184704001993,168.7284352001734,168.7284352001734,168.7284352001734,168.7284352001734,169.68133450020105,x,0.9496207998599857,None,,,,,,,,KH_th,001,2025-03-09_20h54.19.062,MainFlow,2024.2.4,144.85175134959016,2025-03-09 20h54.28.533987 +0700,
1,1,75,word/wordth0751.png,77,77,0,z,1.3173314000014216,None,0,77,77,77,169.68768820003606,,,,,,,169.68768820003606,169.68768820003606,170.67810290004127,170.68872310011648,170.68872310011648,170.68872310011648,170.68872310011648,172.0101760001853,z,1.3173314000014216,None,,,,,,,,KH_th,001,2025-03-09_20h54.19.062,MainFlow,2024.2.4,144.85175134959016,2025-03-09 20h54.28.533987 +0700,
1,1,95,word/wordth0951.png,78,78,0,z,1.1011438998393714,None,0,78,78,78,172.0164079000242,,,,,,,172.0164079000242,172.0164079000242,173.00656540016644,173.01743240002543,173.01743240002543,173.01743240002543,173.01743240002543,174.12322700000368,z,1.1011438998393714,None,,,,,,,,KH_th,001,2025-03-09_20h54.19.062,MainFlow,2024.2.4,144.85175134959016,2025-03-09 20h54.28.533987 +0700,
1,2,8,word/wordth0082.png,79,79,0,x,1.3400028999894857,None,0,79,79,79,174.12964350008406,,,,,,,174.12964350008406,174.12964350008406,175.11982530006208,175.13066650019027,175.13066650019027,175.13066650019027,175.13066650019027,176.47276870021597,x,1.3400028999894857,None,,,,,,,,KH_th,001,2025-03-09_20h54.19.062,MainFlow,2024.2.4,144.85175134959016,2025-03-09 20h54.28.533987 +0700,
1,3,75,word/wordth0753.png,80,80,0,x,1.7423264000099152,None,0,80,80,80,176.4791715000756,,,,,,,176.4791715000756,176.4791715000756,177.46927030012012,177.48024659999646,177.48024659999646,177.48024659999646,177.48024659999646,179.22545280004852,x,1.7423264000099152,None,,,,,,,,KH_th,001,2025-03-09_20h54.19.062,MainFlow,2024.2.4,144.85175134959016,2025-03-09 20h54.28.533987 +0700,
1,1,28,word/wordth0281.png,81,81,0,z,0.8785689999349415,None,0,81,81,81,179.23197290021926,,,,,,,179.23197290021926,179.23197290021926,180.22132480004802,180.23300640005618,180.23300640005618,180.23300640005618,180.23300640005618,181.1163296001032,z,0.8785689999349415,None,,,,,,,,KH_th,001,2025-03-09_20h54.19.062,MainFlow,2024.2.4,144.85175134959016,2025-03-09 20h54.28.533987 +0700,
1,3,42,word/wordth0423.png,82,82,0,x,1.8597885000053793,None,0,82,82,82,181.12267750012688,,,,,,,181.12267750012688,181.12267750012688,182.11227830010466,182.1237879002001,182.1237879002001,182.1237879002001,182.1237879002001,183.9872042001225,x,1.8597885000053793,None,,,,,,,,KH_th,001,2025-03-09_20h54.19.062,MainFlow,2024.2.4,144.85175134959016,2025-03-09 20h54.28.533987 +0700,
1,3,46,word/wordth0463.png,83,83,0,x,0.8293693999294192,None,0,83,83,83,183.99369580019265,,,,,,,183.99369580019265,183.99369580019265,184.98372740019113,184.99471850018017,184.99471850018017,184.99471850018017,184.99471850018017,185.82868140004575,x,0.8293693999294192,None,,,,,,,,KH_th,001,2025-03-09_20h54.19.062,MainFlow,2024.2.4,144.85175134959016,2025-03-09 20h54.28.533987 +0700,
1,3,1,word/wordth0013.png,84,84,0,x,0.6752855000086129,None,0,84,84,84,185.83499830006622,,,,,,,185.83499830006622,185.83499830006622,186.8257111001294,186.8368387001101,186.8368387001101,186.8368387001101,186.8368387001101,187.51865199999884,x,0.6752855000086129,None,,,,,,,,KH_th,001,2025-03-09_20h54.19.062,MainFlow,2024.2.4,144.85175134959016,2025-03-09 20h54.28.533987 +0700,
1,2,70,word/wordth0702.png,85,85,0,x,0.6101930001750588,None,0,85,85,85,187.52502370020375,,,,,,,187.52502370020375,187.52502370020375,188.5149552000221,188.52592700021341,188.52592700021341,188.52592700021341,188.52592700021341,189.13824380002916,x,0.6101930001750588,None,,,,,,,,KH_th,001,2025-03-09_20h54.19.062,MainFlow,2024.2.4,144.85175134959016,2025-03-09 20h54.28.533987 +0700,
1,1,7,word/wordth0071.png,86,86,0,z,0.901435500010848,None,0,86,86,86,189.1446974000428,,,,,,,189.1446974000428,189.1446974000428,190.13221940002404,190.1386543000117,190.1386543000117,190.1386543000117,190.1386543000117,191.04302970017307,z,0.901435500010848,None,,,,,,,,KH_th,001,2025-03-09_20h54.19.062,MainFlow,2024.2.4,144.85175134959016,2025-03-09 20h54.28.533987 +0700,
1,2,7,word/wordth0072.png,87,87,0,x,1.3024675999768078,None,0,87,87,87,191.0493772001937,,,,,,,191.0493772001937,191.0493772001937,192.03760570008308,192.04261620016769,192.04261620016769,192.04261620016769,192.04261620016769,193.35072390013374,x,1.3024675999768078,None,,,,,,,,KH_th,001,2025-03-09_20h54.19.062,MainFlow,2024.2.4,144.85175134959016,2025-03-09 20h54.28.533987 +0700,
1,2,24,word/wordth0242.png,88,88,0,x,1.234629699960351,None,0,88,88,88,193.35724230017513,,,,,,,193.35724230017513,193.35724230017513,194.34553150017746,194.35046460013837,194.35046460013837,194.35046460013837,194.35046460013837,195.5892987002153,x,1.234629699960351,None,,,,,,,,KH_th,001,2025-03-09_20h54.19.062,MainFlow,2024.2.4,144.85175134959016,2025-03-09 20h54.28.533987 +0700,
1,3,26,word/wordth0263.png,89,89,0,x,0.9398969998583198,None,0,89,89,89,195.59560040012002,,,,,,,195.59560040012002,195.59560040012002,196.58344499999657,196.58920260006562,196.58920260006562,196.58920260006562,196.58920260006562,197.53551030019298,x,0.9398969998583198,None,,,,,,,,KH_th,001,2025-03-09_20h54.19.062,MainFlow,2024.2.4,144.85175134959016,2025-03-09 20h54.28.533987 +0700,
1,2,23,word/wordth0232.png,90,90,0,x,0.7619140001479536,None,0,90,90,90,197.54200260015205,,,,,,,197.54200260015205,197.54200260015205,198.53066510008648,198.53521020011976,198.53521020011976,198.53521020011976,198.53521020011976,199.3013287000358,x,0.7619140001479536,None,,,,,,,,KH_th,001,2025-03-09_20h54.19.062,MainFlow,2024.2.4,144.85175134959016,2025-03-09 20h54.28.533987 +0700,
1,2,75,word/wordth0752.png,91,91,0,x,1.021472399821505,None,0,91,91,91,199.30764770018868,,,,,,,199.30764770018868,199.30764770018868,200.29792330018245,200.30863450001925,200.30863450001925,200.30863450001925,200.30863450001925,201.33111460017972,x,1.021472399821505,None,,,,,,,,KH_th,001,2025-03-09_20h54.19.062,MainFlow,2024.2.4,144.85175134959016,2025-03-09 20h54.28.533987 +0700,
1,2,6,word/wordth0062.png,92,92,0,x,0.7276538000442088,None,0,92,92,92,201.3374306000769,,,,,,,201.3374306000769,201.3374306000769,202.32673570001498,202.33844369999133,202.33844369999133,202.33844369999133,202.33844369999133,203.0689227001276,x,0.7276538000442088,None,,,,,,,,KH_th,001,2025-03-09_20h54.19.062,MainFlow,2024.2.4,144.85175134959016,2025-03-09 20h54.28.533987 +0700,
1,2,93,word/wordth0932.png,93,93,0,x,0.5735321000684053,None,0,93,93,93,203.07528880005702,,,,,,,203.07528880005702,203.07528880005702,204.06410630000755,204.06856660009362,204.06856660009362,204.06856660009362,204.06856660009362,204.64680490014143,x,0.5735321000684053,None,,,,,,,,KH_th,001,2025-03-09_20h54.19.062,MainFlow,2024.2.4,144.85175134959016,2025-03-09 20h54.28.533987 +0700,
1,2,48,word/wordth0482.png,94,94,0,x,0.6998081000056118,None,0,94,94,94,204.65326420008205,,,,,,,204.65326420008205,204.65326420008205,205.64366260007955,205.65428830008022,205.65428830008022,205.65428830008022,205.65428830008022,206.35606900020503,x,0.6998081000056118,None,,,,,,,,KH_th,001,2025-03-09_20h54.19.062,MainFlow,2024.2.4,144.85175134959016,2025-03-09 20h54.28.533987 +0700,
1,1,70,word/wordth0701.png,95,95,0,z,1.510757999960333,None,0,95,95,95,206.3624909000937,,,,,,,206.3624909000937,206.3624909000937,207.35369300004095,207.36433230014518,207.36433230014518,207.36433230014518,207.36433230014518,208.88031180016696,z,1.510757999960333,None,,,,,,,,KH_th,001,2025-03-09_20h54.19.062,MainFlow,2024.2.4,144.85175134959016,2025-03-09 20h54.28.533987 +0700,
1,2,66,word/wordth0662.png,96,96,0,x,1.411223700037226,None,0,96,96,96,208.88668090011925,,,,,,,208.88668090011925,208.88668090011925,209.87488270015456,209.879917900078,209.879917900078,209.879917900078,209.879917900078,211.29241940006614,x,1.411223700037226,None,,,,,,,,KH_th,001,2025-03-09_20h54.19.062,MainFlow,2024.2.4,144.85175134959016,2025-03-09 20h54.28.533987 +0700,
1,1,26,word/wordth0261.png,97,97,0,z,0.9513159999623895,None,0,97,97,97,211.29869120009243,,,,,,,211.29869120009243,211.29869120009243,212.28855070006102,212.29982600011863,212.29982600011863,212.29982600011863,212.29982600011863,213.2526791000273,z,0.9513159999623895,None,,,,,,,,KH_th,001,2025-03-09_20h54.19.062,MainFlow,2024.2.4,144.85175134959016,2025-03-09 20h54.28.533987 +0700,
1,3,9,word/wordth0093.png,98,98,0,x,1.3037745000328869,None,0,98,98,98,213.25896590016782,,,,,,,213.25896590016782,213.25896590016782,214.24756270018406,214.25233020004816,214.25233020004816,214.25233020004816,214.25233020004816,215.5604183000978,x,1.3037745000328869,None,,,,,,,,KH_th,001,2025-03-09_20h54.19.062,MainFlow,2024.2.4,144.85175134959016,2025-03-09 20h54.28.533987 +0700,
1,2,61,word/wordth0612.png,99,99,0,x,1.251834699884057,None,0,99,99,99,215.5669646000024,,,,,,,215.5669646000024,215.5669646000024,216.55591610004194,216.5602589000482,216.5602589000482,216.5602589000482,216.5602589000482,217.81307280017063,x,1.251834699884057,None,,,,,,,,KH_th,001,2025-03-09_20h54.19.062,MainFlow,2024.2.4,144.85175134959016,2025-03-09 20h54.28.533987 +0700,
1,3,8,word/wordth0083.png,100,100,0,x,2.6236537999939173,None,0,100,100,100,217.81910330010578,,,,,,,217.81910330010578,217.81910330010578,218.80785700003617,218.81244380003773,218.81244380003773,218.81244380003773,218.81244380003773,221.4413457000628,x,2.6236537999939173,None,,,,,,,,KH_th,001,2025-03-09_20h54.19.062,MainFlow,2024.2.4,144.85175134959016,2025-03-09 20h54.28.533987 +0700,
1,1,8,word/wordth0081.png,101,101,0,z,0.7882310000713915,None,0,101,101,101,221.44787840009667,,,,,,,221.44787840009667,221.44787840009667,222.43828070000745,222.4488969000522,222.4488969000522,222.4488969000522,222.4488969000522,223.24191330000758,z,0.7882310000713915,None,,,,,,,,KH_th,001,2025-03-09_20h54.19.062,MainFlow,2024.2.4,144.85175134959016,2025-03-09 20h54.28.533987 +0700,
1,2,44,word/wordth0442.png,102,102,0,x,0.7315940998960286,None,0,102,102,102,223.24825370009057,,,,,,,223.24825370009057,223.24825370009057,224.23666870011948,224.2414991001133,224.2414991001133,224.2414991001133,224.2414991001133,224.97974270000122,x,0.7315940998960286,None,,,,,,,,KH_th,001,2025-03-09_20h54.19.062,MainFlow,2024.2.4,144.85175134959016,2025-03-09 20h54.28.533987 +0700,
1,3,31,word/wordth0313.png,103,103,0,x,0.7057487000711262,None,0,103,103,103,224.98612500005402,,,,,,,224.98612500005402,224.98612500005402,225.9747755001299,225.97934469999745,225.97934469999745,225.97934469999745,225.97934469999745,226.68989110016264,x,0.7057487000711262,None,,,,,,,,KH_th,001,2025-03-09_20h54.19.062,MainFlow,2024.2.4,144.85175134959016,2025-03-09 20h54.28.533987 +0700,
1,1,89,word/wordth0891.png,104,104,0,z,0.9239793000742793,None,0,104,104,104,226.69613960012794,,,,,,,226.69613960012794,226.69613960012794,227.68554040021263,227.69717320008203,227.69717320008203,227.69717320008203,227.69717320008203,228.6224024000112,z,0.9239793000742793,None,,,,,,,,KH_th,001,2025-03-09_20h54.19.062,MainFlow,2024.2.4,144.85175134959016,2025-03-09 20h54.28.533987 +0700,
1,3,70,word/wordth0703.png,105,105,0,x,0.7524250999558717,None,0,105,105,105,228.6285485001281,,,,,,,228.6285485001281,228.6285485001281,229.61884580017067,229.6296768002212,229.6296768002212,229.6296768002212,229.6296768002212,230.38786270003766,x,0.7524250999558717,None,,,,,,,,KH_th,001,2025-03-09_20h54.19.062,MainFlow,2024.2.4,144.85175134959016,2025-03-09 20h54.28.533987 +0700,
1,3,68,word/wordth0683.png,106,106,0,x,1.3147991998121142,None,0,106,106,106,230.39439490018412,,,,,,,230.39439490018412,230.39439490018412,231.384619000135,231.39532240014523,231.39532240014523,231.39532240014523,231.39532240014523,232.7167929999996,x,1.3147991998121142,None,,,,,,,,KH_th,001,2025-03-09_20h54.19.062,MainFlow,2024.2.4,144.85175134959016,2025-03-09 20h54.28.533987 +0700,
1,3,10,word/wordth0103.png,107,107,0,x,0.9460464001167566,None,0,107,107,107,232.72304430021904,,,,,,,232.72304430021904,232.72304430021904,233.71308050001971,233.7240550001152,233.7240550001152,233.7240550001152,233.7240550001152,234.67694700020365,x,0.9460464001167566,None,,,,,,,,KH_th,001,2025-03-09_20h54.19.062,MainFlow,2024.2.4,144.85175134959016,2025-03-09 20h54.28.533987 +0700,
1,3,94,word/wordth0943.png,108,108,0,x,1.2185849999077618,None,0,108,108,108,234.68333360017277,,,,,,,234.68333360017277,234.68333360017277,235.67174980021082,235.6765575001482,235.6765575001482,235.6765575001482,235.6765575001482,236.90148270013742,x,1.2185849999077618,None,,,,,,,,KH_th,001,2025-03-09_20h54.19.062,MainFlow,2024.2.4,144.85175134959016,2025-03-09 20h54.28.533987 +0700,
1,1,3,word/wordth0031.png,109,109,0,z,0.6420885000843555,None,0,109,109,109,236.9077632999979,,,,,,,236.9077632999979,236.9077632999979,237.89592630020343,237.9010157000739,237.9010157000739,237.9010157000739,237.9010157000739,238.5486996001564,z,0.6420885000843555,None,,,,,,,,KH_th,001,2025-03-09_20h54.19.062,MainFlow,2024.2.4,144.85175134959016,2025-03-09 20h54.28.533987 +0700,
1,3,63,word/wordth0633.png,110,110,0,x,0.8027321000117809,None,0,110,110,110,238.55525000020862,,,,,,,238.55525000020862,238.55525000020862,239.5434691000264,239.5484779002145,239.5484779002145,239.5484779002145,239.5484779002145,240.35620070016012,x,0.8027321000117809,None,,,,,,,,KH_th,001,2025-03-09_20h54.19.062,MainFlow,2024.2.4,144.85175134959016,2025-03-09 20h54.28.533987 +0700,
1,2,9,word/wordth0092.png,111,111,0,x,0.715471499832347,None,0,111,111,111,240.36257110000588,,,,,,,240.36257110000588,240.36257110000588,241.35294840019196,241.36364200012758,241.36364200012758,241.36364200012758,241.36364200012758,242.08026760001667,x,0.715471499832347,None,,,,,,,,KH_th,001,2025-03-09_20h54.19.062,MainFlow,2024.2.4,144.85175134959016,2025-03-09 20h54.28.533987 +0700,
1,3,7,word/wordth0073.png,112,112,0,x,0.6475448999553919,None,0,112,112,112,242.08656419999897,,,,,,,242.08656419999897,242.08656419999897,243.07729420019314,243.08759380015545,243.08759380015545,243.08759380015545,243.08759380015545,243.74173520016484,x,0.6475448999553919,None,,,,,,,,KH_th,001,2025-03-09_20h54.19.062,MainFlow,2024.2.4,144.85175134959016,2025-03-09 20h54.28.533987 +0700,
1,2,41,word/wordth0412.png,113,113,0,x,0.5549203001428396,None,0,113,113,113,243.74795290012844,,,,,,,243.74795290012844,243.74795290012844,244.73642680002376,244.74118820019066,244.74118820019066,244.74118820019066,244.74118820019066,245.2987040001899,x,0.5549203001428396,None,,,,,,,,KH_th,001,2025-03-09_20h54.19.062,MainFlow,2024.2.4,144.85175134959016,2025-03-09 20h54.28.533987 +0700,
1,1,9,word/wordth0091.png,114,114,0,z,1.0380126000382006,None,0,114,114,114,245.3050285000354,,,,,,,245.3050285000354,245.3050285000354,246.2943041000981,246.30609260010533,246.30609260010533,246.30609260010533,246.30609260010533,247.3493266000878,z,1.0380126000382006,None,,,,,,,,KH_th,001,2025-03-09_20h54.19.062,MainFlow,2024.2.4,144.85175134959016,2025-03-09 20h54.28.533987 +0700,
1,1,94,word/wordth0941.png,115,115,0,z,0.8433608000632375,None,0,115,115,115,247.35571830021217,,,,,,,247.35571830021217,247.35571830021217,248.3457637000829,248.35674540000036,248.35674540000036,248.35674540000036,248.35674540000036,249.205456700176,z,0.8433608000632375,None,,,,,,,,KH_th,001,2025-03-09_20h54.19.062,MainFlow,2024.2.4,144.85175134959016,2025-03-09 20h54.28.533987 +0700,
1,1,52,word/wordth0521.png,116,116,0,z,0.8353291000239551,None,0,116,116,116,249.2117849001661,,,,,,,249.2117849001661,249.2117849001661,250.20193500001915,250.2127865999937,250.2127865999937,250.2127865999937,250.2127865999937,251.05431130016223,z,0.8353291000239551,None,,,,,,,,KH_th,001,2025-03-09_20h54.19.062,MainFlow,2024.2.4,144.85175134959016,2025-03-09 20h54.28.533987 +0700,
1,2,88,word/wordth0882.png,117,117,0,x,0.8510608999058604,None,0,117,117,117,251.06084050005302,,,,,,,251.06084050005302,251.06084050005302,252.0492667001672,252.0540542001836,252.0540542001836,252.0540542001836,252.0540542001836,252.9103163999971,x,0.8510608999058604,None,,,,,,,,KH_th,001,2025-03-09_20h54.19.062,MainFlow,2024.2.4,144.85175134959016,2025-03-09 20h54.28.533987 +0700,
1,1,41,word/wordth0411.png,118,118,0,z,0.7390278000384569,None,0,118,118,118,252.91684500011615,,,,,,,252.91684500011615,252.91684500011615,253.9049880001694,253.91008830000646,253.91008830000646,253.91008830000646,253.91008830000646,254.65530070010573,z,0.7390278000384569,None,,,,,,,,KH_th,001,2025-03-09_20h54.19.062,MainFlow,2024.2.4,144.85175134959016,2025-03-09 20h54.28.533987 +0700,
1,3,30,word/wordth0303.png,119,119,0,x,1.1304457001388073,None,0,119,119,119,254.66152740013786,,,,,,,254.66152740013786,254.66152740013786,255.65186220011674,255.6626729001291,255.6626729001291,255.6626729001291,255.6626729001291,256.7963294000365,x,1.1304457001388073,None,,,,,,,,KH_th,001,2025-03-09_20h54.19.062,MainFlow,2024.2.4,144.85175134959016,2025-03-09 20h54.28.533987 +0700,
,,,,,,,,,,,,,,,,,,,,,,,,,,,,,,,,256.79641490010545,256.8027147001121,256.8027147001121,261.09920460009016,space,4.295405099866912,None,KH_th,001,2025-03-09_20h54.19.062,MainFlow,2024.2.4,144.85175134959016,2025-03-09 20h54.28.533987 +0700,
