lang,stimuli,imageid,worddir,thisN,thisTrialN,thisRepN,key_resp.keys,key_resp.rt,key_resp.duration,trials.thisRepN,trials.thisTrialN,trials.thisN,trials.thisIndex,thisRow.t,notes,tutorial.started,tutorial.stopped,key_instruct.keys,key_instruct.rt,key_instruct.duration,instructblank.started,cross1.started,letterselect.started,imageword.started,text_2.started,cross2.started,key_resp.started,letterselect.stopped,trials.key_resp.keys,trials.key_resp.rt,trials.key_resp.duration,instructblank.stopped,cross1.stopped,ending.started,text_3.started,ending_key.started,ending.stopped,ending_key.keys,ending_key.rt,ending_key.duration,participant,session,date,expName,psychopyVersion,frameRate,expStart,
,,,,,,,,,,,,,,,,0.0025695000076666474,16.18593310000142,space,16.137761000005412,None,,,,,,,,,,,,,,,,,,,,,KN_en,001,2025-03-11_23h17.36.748,MainFlow,2024.2.4,145.81935896576462,2025-03-11 23h17.48.038240 +0700,
2,1,66,word/worden0661.png,0,0,0,z,0.8413648999994621,None,0,0,0,0,16.231982199999038,,,,,,,16.231982199999038,16.231982199999038,17.2110648000089,17.235886800001026,17.235886800001026,17.235886800001026,17.235886800001026,18.08041100000264,z,0.8413648999994621,None,,,,,,,,,,KN_en,001,2025-03-11_23h17.36.748,MainFlow,2024.2.4,145.81935896576462,2025-03-11 23h17.48.038240 +0700,
2,1,3,word/worden0031.png,1,1,0,z,0.3727915000054054,None,0,1,1,1,18.08573950000573,,,,,,,18.08573950000573,18.08573950000573,19.09811730000365,19.10171430000628,19.10171430000628,19.10171430000628,19.10171430000628,19.477528600007645,z,0.3727915000054054,None,,,,,,,,,,KN_en,001,2025-03-11_23h17.36.748,MainFlow,2024.2.4,145.81935896576462,2025-03-11 23h17.48.038240 +0700,
2,2,71,word/worden0712.png,2,2,0,x,0.5848312000016449,None,0,2,2,2,19.48324390000198,,,,,,,19.48324390000198,19.48324390000198,20.492416900000535,20.49638510000659,20.49638510000659,20.49638510000659,20.49638510000659,21.08694560000731,x,0.5848312000016449,None,,,,,,,,,,KN_en,001,2025-03-11_23h17.36.748,MainFlow,2024.2.4,145.81935896576462,2025-03-11 23h17.48.038240 +0700,
2,3,27,word/worden0273.png,3,3,0,x,0.6673855999979423,None,0,3,3,3,21.092076000000816,,,,,,,21.092076000000816,21.092076000000816,22.10594890000357,22.109368500008713,22.109368500008713,22.109368500008713,22.109368500008713,22.78138929999841,x,0.6673855999979423,None,,,,,,,,,,KN_en,001,2025-03-11_23h17.36.748,MainFlow,2024.2.4,145.81935896576462,2025-03-11 23h17.48.038240 +0700,
2,3,88,word/worden0883.png,4,4,0,x,0.7287078000081237,None,0,4,4,4,22.78620580000279,,,,,,,22.78620580000279,22.78620580000279,23.79854580000392,23.802203300001565,23.802203300001565,23.802203300001565,23.802203300001565,24.537406400006148,x,0.7287078000081237,None,,,,,,,,,,KN_en,001,2025-03-11_23h17.36.748,MainFlow,2024.2.4,145.81935896576462,2025-03-11 23h17.48.038240 +0700,
2,1,28,word/worden0281.png,5,5,0,z,0.4511496999912197,None,0,5,5,5,24.54280280000239,,,,,,,24.54280280000239,24.54280280000239,25.555076800010283,25.557875800004695,25.557875800004695,25.557875800004695,25.557875800004695,26.01582140001119,z,0.4511496999912197,None,,,,,,,,,,KN_en,001,2025-03-11_23h17.36.748,MainFlow,2024.2.4,145.81935896576462,2025-03-11 23h17.48.038240 +0700,
2,1,50,word/worden0501.png,6,6,0,z,0.48688769999716897,None,0,6,6,6,26.021642400010023,,,,,,,26.021642400010023,26.021642400010023,27.03607310001098,27.038981400008197,27.038981400008197,27.038981400008197,27.038981400008197,27.529897500004154,z,0.48688769999716897,None,,,,,,,,,,KN_en,001,2025-03-11_23h17.36.748,MainFlow,2024.2.4,145.81935896576462,2025-03-11 23h17.48.038240 +0700,
2,1,41,word/worden0411.png,7,7,0,z,0.5169043000059901,None,0,7,7,7,27.535237900010543,,,,,,,27.535237900010543,27.535237900010543,28.53264050000871,28.53591590000724,28.53591590000724,28.53591590000724,28.53591590000724,29.057680900004925,z,0.5169043000059901,None,,,,,,,,,,KN_en,001,2025-03-11_23h17.36.748,MainFlow,2024.2.4,145.81935896576462,2025-03-11 23h17.48.038240 +0700,
2,2,52,word/worden0522.png,8,8,0,x,0.5248413999943295,None,0,8,8,8,29.062732200007304,,,,,,,29.062732200007304,29.062732200007304,30.091439399999217,30.094944399999804,30.094944399999804,30.094944399999804,30.094944399999804,30.62820880000072,x,0.5248413999943295,None,,,,,,,,,,KN_en,001,2025-03-11_23h17.36.748,MainFlow,2024.2.4,145.81935896576462,2025-03-11 23h17.48.038240 +0700,
2,3,6,word/worden0063.png,9,9,0,x,0.5009367000020575,None,0,9,9,9,30.632351600012043,,,,,,,30.632351600012043,30.632351600012043,31.63765180000337,31.64059600001201,31.64059600001201,31.64059600001201,31.64059600001201,32.147187399998074,x,0.5009367000020575,None,,,,,,,,,,KN_en,001,2025-03-11_23h17.36.748,MainFlow,2024.2.4,145.81935896576462,2025-03-11 23h17.48.038240 +0700,
2,3,46,word/worden0463.png,10,10,0,x,0.6108236000000034,None,0,10,10,10,32.15248000000429,,,,,,,32.15248000000429,32.15248000000429,33.16308430000208,33.16641450001043,33.16641450001043,33.16641450001043,33.16641450001043,33.77971350000007,x,0.6108236000000034,None,,,,,,,,,,KN_en,001,2025-03-11_23h17.36.748,MainFlow,2024.2.4,145.81935896576462,2025-03-11 23h17.48.038240 +0700,
2,2,30,word/worden0302.png,11,11,0,x,0.4220643999869935,None,0,11,11,11,33.78402279999864,,,,,,,33.78402279999864,33.78402279999864,34.79135670000687,34.794314400001895,34.794314400001895,34.794314400001895,34.794314400001895,35.223133100007544,x,0.4220643999869935,None,,,,,,,,,,KN_en,001,2025-03-11_23h17.36.748,MainFlow,2024.2.4,145.81935896576462,2025-03-11 23h17.48.038240 +0700,
2,2,46,word/worden0462.png,12,12,0,x,0.43116579999332316,None,0,12,12,12,35.2280921000056,,,,,,,35.2280921000056,35.2280921000056,36.24077830000897,36.244301200000336,36.244301200000336,36.244301200000336,36.244301200000336,36.681263000005856,x,0.43116579999332316,None,,,,,,,,,,KN_en,001,2025-03-11_23h17.36.748,MainFlow,2024.2.4,145.81935896576462,2025-03-11 23h17.48.038240 +0700,
2,2,70,word/worden0702.png,13,13,0,x,0.6813133000105154,None,0,13,13,13,36.68640760000562,,,,,,,36.68640760000562,36.68640760000562,37.695626400003675,37.698534900002414,37.698534900002414,37.698534900002414,37.698534900002414,38.382018200005405,x,0.6813133000105154,None,,,,,,,,,,KN_en,001,2025-03-11_23h17.36.748,MainFlow,2024.2.4,145.81935896576462,2025-03-11 23h17.48.038240 +0700,
2,1,70,word/worden0701.png,14,14,0,z,0.5182843000075081,None,0,14,14,14,38.387303000010434,,,,,,,38.387303000010434,38.387303000010434,39.402231400003075,39.40543020000041,39.40543020000041,39.40543020000041,39.40543020000041,39.93025370000396,z,0.5182843000075081,None,,,,,,,,,,KN_en,001,2025-03-11_23h17.36.748,MainFlow,2024.2.4,145.81935896576462,2025-03-11 23h17.48.038240 +0700,
2,1,8,word/worden0081.png,15,15,0,z,0.7324415000039153,None,0,15,15,15,39.93558100001246,,,,,,,39.93558100001246,39.93558100001246,40.93295200000284,40.935722900001565,40.935722900001565,40.935722900001565,40.935722900001565,41.67492260001018,z,0.7324415000039153,None,,,,,,,,,,KN_en,001,2025-03-11_23h17.36.748,MainFlow,2024.2.4,145.81935896576462,2025-03-11 23h17.48.038240 +0700,
2,3,61,word/worden0613.png,16,16,0,x,0.6401577000069665,None,0,16,16,16,41.6790672000061,,,,,,,41.6790672000061,41.6790672000061,42.68920820001222,42.6924061000027,42.6924061000027,42.6924061000027,42.6924061000027,43.338838100011344,x,0.6401577000069665,None,,,,,,,,,,KN_en,001,2025-03-11_23h17.36.748,MainFlow,2024.2.4,145.81935896576462,2025-03-11 23h17.48.038240 +0700,
2,3,10,word/worden0103.png,17,17,0,x,0.6579423000075622,None,0,17,17,17,43.34458800000721,,,,,,,43.34458800000721,43.34458800000721,44.36521730000095,44.36865040000703,44.36865040000703,44.36865040000703,44.36865040000703,45.03437930000655,x,0.6579423000075622,None,,,,,,,,,,KN_en,001,2025-03-11_23h17.36.748,MainFlow,2024.2.4,145.81935896576462,2025-03-11 23h17.48.038240 +0700,
2,3,75,word/worden0753.png,18,18,0,x,0.6178877999918768,None,0,18,18,18,45.0386479000008,,,,,,,45.0386479000008,45.0386479000008,46.062241500010714,46.065766900006565,46.065766900006565,46.065766900006565,46.065766900006565,46.685882300007506,x,0.6178877999918768,None,,,,,,,,,,KN_en,001,2025-03-11_23h17.36.748,MainFlow,2024.2.4,145.81935896576462,2025-03-11 23h17.48.038240 +0700,
2,2,63,word/worden0632.png,19,19,0,x,0.7353131999989273,None,0,19,19,19,46.69119290000526,,,,,,,46.69119290000526,46.69119290000526,47.703304800001206,47.706579900012,47.706579900012,47.706579900012,47.706579900012,48.44889189999958,x,0.7353131999989273,None,,,,,,,,,,KN_en,001,2025-03-11_23h17.36.748,MainFlow,2024.2.4,145.81935896576462,2025-03-11 23h17.48.038240 +0700,
2,3,11,word/worden0113.png,20,20,0,x,0.40536759998940397,None,0,20,20,20,48.45491080000647,,,,,,,48.45491080000647,48.45491080000647,49.46669750000001,49.469899900010205,49.469899900010205,49.469899900010205,49.469899900010205,49.88105599999835,x,0.40536759998940397,None,,,,,,,,,,KN_en,001,2025-03-11_23h17.36.748,MainFlow,2024.2.4,145.81935896576462,2025-03-11 23h17.48.038240 +0700,
2,2,89,word/worden0892.png,21,21,0,x,0.37025059999723453,None,0,21,21,21,49.88711970001168,,,,,,,49.88711970001168,49.88711970001168,50.89772140000423,50.90115250000963,50.90115250000963,50.90115250000963,50.90115250000963,51.27592060000461,x,0.37025059999723453,None,,,,,,,,,,KN_en,001,2025-03-11_23h17.36.748,MainFlow,2024.2.4,145.81935896576462,2025-03-11 23h17.48.038240 +0700,
2,1,9,word/worden0091.png,22,22,0,x,0.6086058999935631,None,0,22,22,22,51.280662400007714,,,,,,,51.280662400007714,51.280662400007714,52.28651770000579,52.28948079999827,52.28948079999827,52.28948079999827,52.28948079999827,52.90063519999967,x,0.6086058999935631,None,,,,,,,,,,KN_en,001,2025-03-11_23h17.36.748,MainFlow,2024.2.4,145.81935896576462,2025-03-11 23h17.48.038240 +0700,
2,3,28,word/worden0283.png,23,23,0,x,0.7955111999908695,None,0,23,23,23,52.905305200009025,,,,,,,52.905305200009025,52.905305200009025,53.91860309999902,53.92177420000371,53.92177420000371,53.92177420000371,53.92177420000371,54.72053570000571,x,0.7955111999908695,None,,,,,,,,,,KN_en,001,2025-03-11_23h17.36.748,MainFlow,2024.2.4,145.81935896576462,2025-03-11 23h17.48.038240 +0700,
2,1,82,word/worden0821.png,24,24,0,z,0.552476899989415,None,0,24,24,24,54.72531340000569,,,,,,,54.72531340000569,54.72531340000569,55.73791820000042,55.74160030001076,55.74160030001076,55.74160030001076,55.74160030001076,56.29554130000179,z,0.552476899989415,None,,,,,,,,,,KN_en,001,2025-03-11_23h17.36.748,MainFlow,2024.2.4,145.81935896576462,2025-03-11 23h17.48.038240 +0700,
2,2,28,word/worden0282.png,25,25,0,x,0.46877529998891987,None,0,25,25,25,56.30055790000188,,,,,,,56.30055790000188,56.30055790000188,57.31999060000817,57.32334470000933,57.32334470000933,57.32334470000933,57.32334470000933,57.79551490000449,x,0.46877529998891987,None,,,,,,,,,,KN_en,001,2025-03-11_23h17.36.748,MainFlow,2024.2.4,145.81935896576462,2025-03-11 23h17.48.038240 +0700,
2,1,23,word/worden0231.png,26,26,0,z,0.6688676000048872,None,0,26,26,26,57.800178300007246,,,,,,,57.800178300007246,57.800178300007246,58.816430300008506,58.8197155000089,58.8197155000089,58.8197155000089,58.8197155000089,59.4911151999986,z,0.6688676000048872,None,,,,,,,,,,KN_en,001,2025-03-11_23h17.36.748,MainFlow,2024.2.4,145.81935896576462,2025-03-11 23h17.48.038240 +0700,
2,2,42,word/worden0422.png,27,27,0,x,0.4705352999881143,None,0,27,27,27,59.49721890001092,,,,,,,59.49721890001092,59.49721890001092,60.49781980000262,60.50095719999808,60.50095719999808,60.50095719999808,60.50095719999808,60.975477400003,x,0.4705352999881143,None,60.50095719999808,60.50095719999808,,,,,,,,KN_en,001,2025-03-11_23h17.36.748,MainFlow,2024.2.4,145.81935896576462,2025-03-11 23h17.48.038240 +0700,
2,2,93,word/worden0932.png,28,28,0,x,0.44975159999739844,None,0,28,28,28,60.98012500000186,,,,,,,60.98012500000186,60.98012500000186,61.98753120000765,61.99077160000161,61.99077160000161,61.99077160000161,61.99077160000161,62.44671319999907,x,0.44975159999739844,None,,,,,,,,,,KN_en,001,2025-03-11_23h17.36.748,MainFlow,2024.2.4,145.81935896576462,2025-03-11 23h17.48.038240 +0700,
2,1,88,word/worden0881.png,29,29,0,x,0.37955779999902006,None,0,29,29,29,62.45193960001052,,,,,,,62.45193960001052,62.45193960001052,63.44542830000864,63.448315600006026,63.448315600006026,63.448315600006026,63.448315600006026,63.83513440001116,x,0.37955779999902006,None,,,,,,,,,,KN_en,001,2025-03-11_23h17.36.748,MainFlow,2024.2.4,145.81935896576462,2025-03-11 23h17.48.038240 +0700,
2,3,31,word/worden0313.png,30,30,0,x,0.6012041000067256,None,0,30,30,30,63.84062690001156,,,,,,,63.84062690001156,63.84062690001156,64.8451664000022,64.8483230999991,64.8483230999991,64.8483230999991,64.8483230999991,65.4547145000106,x,0.6012041000067256,None,,,,,,,,,,KN_en,001,2025-03-11_23h17.36.748,MainFlow,2024.2.4,145.81935896576462,2025-03-11 23h17.48.038240 +0700,
2,2,75,word/worden0752.png,31,31,0,x,0.49430190000566654,None,0,31,31,31,65.46039920000476,,,,,,,65.46039920000476,65.46039920000476,66.46584470001108,66.46919920000073,66.46919920000073,66.46919920000073,66.46919920000073,66.96758150000824,x,0.49430190000566654,None,,,,,,,,,,KN_en,001,2025-03-11_23h17.36.748,MainFlow,2024.2.4,145.81935896576462,2025-03-11 23h17.48.038240 +0700,
2,2,48,word/worden0482.png,32,32,0,x,0.6253087000077358,None,0,32,32,32,66.97206110000843,,,,,,,66.97206110000843,66.97206110000843,67.98299810000753,67.98668729999918,67.98668729999918,67.98668729999918,67.98668729999918,68.61942020000424,x,0.6253087000077358,None,,,,,,,,,,KN_en,001,2025-03-11_23h17.36.748,MainFlow,2024.2.4,145.81935896576462,2025-03-11 23h17.48.038240 +0700,
2,1,26,word/worden0261.png,33,33,0,x,0.41820970000117086,None,0,33,33,33,68.62460270000156,,,,,,,68.62460270000156,68.62460270000156,69.63764159999846,69.64083720000053,69.64083720000053,69.64083720000053,69.64083720000053,70.0627960999991,x,0.41820970000117086,None,,,,,,,,,,KN_en,001,2025-03-11_23h17.36.748,MainFlow,2024.2.4,145.81935896576462,2025-03-11 23h17.48.038240 +0700,
2,2,41,word/worden0412.png,34,34,0,x,0.4102884999883827,None,0,34,34,34,70.06854770000791,,,,,,,70.06854770000791,70.06854770000791,71.07709130000148,71.07999389999895,71.07999389999895,71.07999389999895,71.07999389999895,71.49387080001179,x,0.4102884999883827,None,,,,,,,,,,KN_en,001,2025-03-11_23h17.36.748,MainFlow,2024.2.4,145.81935896576462,2025-03-11 23h17.48.038240 +0700,
2,3,66,word/worden0663.png,35,35,0,x,0.7063543000112986,None,0,35,35,35,71.49894860001223,,,,,,,71.49894860001223,71.49894860001223,72.51587909999944,72.51931650000915,72.51931650000915,72.51931650000915,72.51931650000915,73.22938710000017,x,0.7063543000112986,None,,,,,,,,,,KN_en,001,2025-03-11_23h17.36.748,MainFlow,2024.2.4,145.81935896576462,2025-03-11 23h17.48.038240 +0700,
2,1,6,word/worden0061.png,36,36,0,z,0.3821717999962857,None,0,36,36,36,73.2346472000063,,,,,,,73.2346472000063,73.2346472000063,74.23304890000145,74.23582620000525,74.23582620000525,74.23582620000525,74.23582620000525,74.62677420000546,z,0.3821717999962857,None,,,,,,,,,,KN_en,001,2025-03-11_23h17.36.748,MainFlow,2024.2.4,145.81935896576462,2025-03-11 23h17.48.038240 +0700,
2,1,42,word/worden0421.png,37,37,0,z,0.48281479999423027,None,0,37,37,37,74.63012539999909,,,,,,,74.63012539999909,74.63012539999909,75.63130920000549,75.63430790000712,75.63430790000712,75.63430790000712,75.63430790000712,76.11896930000512,z,0.48281479999423027,None,,,,,,,,,,KN_en,001,2025-03-11_23h17.36.748,MainFlow,2024.2.4,145.81935896576462,2025-03-11 23h17.48.038240 +0700,
2,3,41,word/worden0413.png,38,38,0,x,0.5455547000019578,None,0,38,38,38,76.12321590000647,,,,,,,76.12321590000647,76.12321590000647,77.1381881999987,77.14107300000614,77.14107300000614,77.14107300000614,77.14107300000614,77.69333780001034,x,0.5455547000019578,None,,,,,,,,,,KN_en,001,2025-03-11_23h17.36.748,MainFlow,2024.2.4,145.81935896576462,2025-03-11 23h17.48.038240 +0700,
2,2,23,word/worden0232.png,39,39,0,x,0.5644856999861076,None,0,39,39,39,77.6989983000094,,,,,,,77.6989983000094,77.6989983000094,78.71492650000437,78.71807430000626,78.71807430000626,78.71807430000626,78.71807430000626,79.28621020000719,x,0.5644856999861076,None,,,,,,,,,,KN_en,001,2025-03-11_23h17.36.748,MainFlow,2024.2.4,145.81935896576462,2025-03-11 23h17.48.038240 +0700,
2,3,96,word/worden0963.png,40,40,0,x,0.6495216000039363,None,0,40,40,40,79.29243840000709,,,,,,,79.29243840000709,79.29243840000709,80.3023860000103,80.30541810000432,80.30541810000432,80.30541810000432,80.30541810000432,80.95700530000613,x,0.6495216000039363,None,80.30541810000432,80.30541810000432,,,,,,,,KN_en,001,2025-03-11_23h17.36.748,MainFlow,2024.2.4,145.81935896576462,2025-03-11 23h17.48.038240 +0700,
2,1,61,word/worden0611.png,41,41,0,z,0.517220300011104,None,0,41,41,41,80.96231240000634,,,,,,,80.96231240000634,80.96231240000634,81.97251780000806,81.97566900000675,81.97566900000675,81.97566900000675,81.97566900000675,82.4986435000028,z,0.517220300011104,None,,,,,,,,,,KN_en,001,2025-03-11_23h17.36.748,MainFlow,2024.2.4,145.81935896576462,2025-03-11 23h17.48.038240 +0700,
2,3,9,word/worden0093.png,42,42,0,z,0.7277838000009069,None,0,42,42,42,82.50360789999831,,,,,,,82.50360789999831,82.50360789999831,83.51787960001093,83.52129770000465,83.52129770000465,83.52129770000465,83.52129770000465,84.25514280000061,z,0.7277838000009069,None,,,,,,,,,,KN_en,001,2025-03-11_23h17.36.748,MainFlow,2024.2.4,145.81935896576462,2025-03-11 23h17.48.038240 +0700,
2,3,63,word/worden0633.png,43,43,0,x,0.7384763000009116,None,0,43,43,43,84.26041510001232,,,,,,,84.26041510001232,84.26041510001232,85.27574420000019,85.27895260001242,85.27895260001242,85.27895260001242,85.27895260001242,86.01900739999837,x,0.7384763000009116,None,,,,,,,,,,KN_en,001,2025-03-11_23h17.36.748,MainFlow,2024.2.4,145.81935896576462,2025-03-11 23h17.48.038240 +0700,
2,3,50,word/worden0503.png,44,44,0,x,0.5388103999866871,None,0,44,44,44,86.0238873000053,,,,,,,86.0238873000053,86.0238873000053,87.03315200000361,87.03653750001104,87.03653750001104,87.03653750001104,87.03653750001104,87.58192820000113,x,0.5388103999866871,None,,,,,,,,,,KN_en,001,2025-03-11_23h17.36.748,MainFlow,2024.2.4,145.81935896576462,2025-03-11 23h17.48.038240 +0700,
2,2,27,word/worden0272.png,45,45,0,x,0.5238021000113804,None,0,45,45,45,87.58612430001085,,,,,,,87.58612430001085,87.58612430001085,88.59763050000765,88.60133930000302,88.60133930000302,88.60133930000302,88.60133930000302,89.12979010000709,x,0.5238021000113804,None,,,,,,,,,,KN_en,001,2025-03-11_23h17.36.748,MainFlow,2024.2.4,145.81935896576462,2025-03-11 23h17.48.038240 +0700,
2,2,61,word/worden0612.png,46,46,0,x,0.5950096000015037,None,0,46,46,46,89.13436950001051,,,,,,,89.13436950001051,89.13436950001051,90.15095380001003,90.15476900000067,90.15476900000067,90.15476900000067,90.15476900000067,90.75380170000426,x,0.5950096000015037,None,,,,,,,,,,KN_en,001,2025-03-11_23h17.36.748,MainFlow,2024.2.4,145.81935896576462,2025-03-11 23h17.48.038240 +0700,
2,3,7,word/worden0073.png,47,47,0,x,0.5340786000015214,None,0,47,47,47,90.75902830000268,,,,,,,90.75902830000268,90.75902830000268,91.77107010000327,91.77457180000783,91.77457180000783,91.77457180000783,91.77457180000783,92.31608990000677,x,0.5340786000015214,None,,,,,,,,,,KN_en,001,2025-03-11_23h17.36.748,MainFlow,2024.2.4,145.81935896576462,2025-03-11 23h17.48.038240 +0700,
2,3,23,word/worden0233.png,48,48,0,x,0.6244761000125436,None,0,48,48,48,92.32129380000697,,,,,,,92.32129380000697,92.32129380000697,93.33227130000887,93.33570599999803,93.33570599999803,93.33570599999803,93.33570599999803,93.96180879999883,x,0.6244761000125436,None,,,,,,,,,,KN_en,001,2025-03-11_23h17.36.748,MainFlow,2024.2.4,145.81935896576462,2025-03-11 23h17.48.038240 +0700,
2,1,95,word/worden0951.png,49,49,0,z,0.6415188999962993,None,0,49,49,49,93.96673590000137,,,,,,,93.96673590000137,93.96673590000137,94.97695219999878,94.98016640001151,94.98016640001151,94.98016640001151,94.98016640001151,95.62778450000042,z,0.6415188999962993,None,,,,,,,,,,KN_en,001,2025-03-11_23h17.36.748,MainFlow,2024.2.4,145.81935896576462,2025-03-11 23h17.48.038240 +0700,
2,3,42,word/worden0423.png,50,50,0,x,0.5703234999964479,None,0,50,50,50,95.63308600000164,,,,,,,95.63308600000164,95.63308600000164,96.65427150001051,96.65811270000995,96.65811270000995,96.65811270000995,96.65811270000995,97.23165640000661,x,0.5703234999964479,None,,,,,,,,,,KN_en,001,2025-03-11_23h17.36.748,MainFlow,2024.2.4,145.81935896576462,2025-03-11 23h17.48.038240 +0700,
2,1,30,word/worden0301.png,51,51,0,z,0.46652329999778885,None,0,51,51,51,97.23693400000047,,,,,,,97.23693400000047,97.23693400000047,98.2461622999981,98.24898290001147,98.24898290001147,98.24898290001147,98.24898290001147,98.71774210000876,z,0.46652329999778885,None,,,,,,,,,,KN_en,001,2025-03-11_23h17.36.748,MainFlow,2024.2.4,145.81935896576462,2025-03-11 23h17.48.038240 +0700,
2,3,87,word/worden0873.png,52,52,0,x,0.5752881999942474,None,0,52,52,52,98.72278039999946,,,,,,,98.72278039999946,98.72278039999946,99.73326890000317,99.73695610000868,99.73695610000868,99.73695610000868,99.73695610000868,100.31541570000991,x,0.5752881999942474,None,,,,,,,,,,KN_en,001,2025-03-11_23h17.36.748,MainFlow,2024.2.4,145.81935896576462,2025-03-11 23h17.48.038240 +0700,
2,2,6,word/worden0062.png,53,53,0,x,0.5916356999950949,None,0,53,53,53,100.3198265000101,,,,,,,100.3198265000101,100.3198265000101,101.32931990000361,101.33229510000092,101.33229510000092,101.33229510000092,101.33229510000092,101.92534169999999,x,0.5916356999950949,None,,,,,,,,,,KN_en,001,2025-03-11_23h17.36.748,MainFlow,2024.2.4,145.81935896576462,2025-03-11 23h17.48.038240 +0700,
2,2,68,word/worden0682.png,54,54,0,x,0.534734999993816,None,0,54,54,54,101.93045680000796,,,,,,,101.93045680000796,101.93045680000796,102.95144560000335,102.95486410000012,102.95486410000012,102.95486410000012,102.95486410000012,103.49390510001103,x,0.534734999993816,None,,,,,,,,,,KN_en,001,2025-03-11_23h17.36.748,MainFlow,2024.2.4,145.81935896576462,2025-03-11 23h17.48.038240 +0700,
2,3,1,word/worden0013.png,55,55,0,x,0.6715502000006381,None,0,55,55,55,103.49957100000756,,,,,,,103.49957100000756,103.49957100000756,104.50271250000515,104.50565479999932,104.50565479999932,104.50565479999932,104.50565479999932,105.18158030000632,x,0.6715502000006381,None,,,,,,,,,,KN_en,001,2025-03-11_23h17.36.748,MainFlow,2024.2.4,145.81935896576462,2025-03-11 23h17.48.038240 +0700,
2,2,94,word/worden0942.png,56,56,0,x,0.451513399995747,None,0,56,56,56,105.18676960001176,,,,,,,105.18676960001176,105.18676960001176,106.20238300001074,106.2057877000043,106.2057877000043,106.2057877000043,106.2057877000043,106.66041390001192,x,0.451513399995747,None,,,,,,,,,,KN_en,001,2025-03-11_23h17.36.748,MainFlow,2024.2.4,145.81935896576462,2025-03-11 23h17.48.038240 +0700,
2,3,82,word/worden0823.png,57,57,0,x,0.49798059999011457,None,0,57,57,57,106.66566020000027,,,,,,,106.66566020000027,106.66566020000027,107.66344319999916,107.6664873000118,107.6664873000118,107.6664873000118,107.6664873000118,108.16803970000183,x,0.49798059999011457,None,,,,,,,,,,KN_en,001,2025-03-11_23h17.36.748,MainFlow,2024.2.4,145.81935896576462,2025-03-11 23h17.48.038240 +0700,
2,1,89,word/worden0891.png,58,58,0,z,0.5592657999950461,None,0,58,58,58,108.17255319999822,,,,,,,108.17255319999822,108.17255319999822,109.18736740000895,109.19078750000335,109.19078750000335,109.19078750000335,109.19078750000335,109.7589377000113,z,0.5592657999950461,None,,,,,,,,,,KN_en,001,2025-03-11_23h17.36.748,MainFlow,2024.2.4,145.81935896576462,2025-03-11 23h17.48.038240 +0700,
2,1,31,word/worden0311.png,59,59,0,z,0.4814982000098098,None,0,59,59,59,109.76394230000733,,,,,,,109.76394230000733,109.76394230000733,110.7830524000019,110.78633110001101,110.78633110001101,110.78633110001101,110.78633110001101,111.27056489999813,z,0.4814982000098098,None,110.78633110001101,110.78633110001101,,,,,,,,KN_en,001,2025-03-11_23h17.36.748,MainFlow,2024.2.4,145.81935896576462,2025-03-11 23h17.48.038240 +0700,
2,2,51,word/worden0512.png,60,60,0,x,0.4740443999908166,None,0,60,60,60,111.27590630001214,,,,,,,111.27590630001214,111.27590630001214,112.29143120000663,112.29481410000881,112.29481410000881,112.29481410000881,112.29481410000881,112.77075219999824,x,0.4740443999908166,None,,,,,,,,,,KN_en,001,2025-03-11_23h17.36.748,MainFlow,2024.2.4,145.81935896576462,2025-03-11 23h17.48.038240 +0700,
2,3,44,word/worden0443.png,61,61,0,x,1.0582051000092179,None,0,61,61,61,112.77579880000849,,,,,,,112.77579880000849,112.77579880000849,113.7912776000012,113.79444630000216,113.79444630000216,113.79444630000216,113.79444630000216,114.85538870000164,x,1.0582051000092179,None,,,,,,,,,,KN_en,001,2025-03-11_23h17.36.748,MainFlow,2024.2.4,145.81935896576462,2025-03-11 23h17.48.038240 +0700,
2,1,1,word/worden0011.png,62,62,0,z,0.5656841000018176,None,0,62,62,62,114.86023479999858,,,,,,,114.86023479999858,114.86023479999858,115.8625250000041,115.8654438000085,115.8654438000085,115.8654438000085,115.8654438000085,116.43758170001092,z,0.5656841000018176,None,115.8654438000085,115.8654438000085,,,,,,,,KN_en,001,2025-03-11_23h17.36.748,MainFlow,2024.2.4,145.81935896576462,2025-03-11 23h17.48.038240 +0700,
2,1,96,word/worden0961.png,63,63,0,z,0.746104000005289,None,0,63,63,63,116.44155339999998,,,,,,,116.44155339999998,116.44155339999998,117.45035930001177,117.45336890000908,117.45336890000908,117.45336890000908,117.45336890000908,118.20659770000202,z,0.746104000005289,None,,,,,,,,,,KN_en,001,2025-03-11_23h17.36.748,MainFlow,2024.2.4,145.81935896576462,2025-03-11 23h17.48.038240 +0700,
2,1,11,word/worden0111.png,64,64,0,z,0.4538502000068547,None,0,64,64,64,118.211924800009,,,,,,,118.211924800009,118.211924800009,119.22312180000881,119.22660230001202,119.22660230001202,119.22660230001202,119.22660230001202,119.68713890000072,z,0.4538502000068547,None,,,,,,,,,,KN_en,001,2025-03-11_23h17.36.748,MainFlow,2024.2.4,145.81935896576462,2025-03-11 23h17.48.038240 +0700,
2,3,70,word/worden0703.png,65,65,0,x,0.7618268999940483,None,0,65,65,65,119.69088790001115,,,,,,,119.69088790001115,119.69088790001115,120.69720170000801,120.70081449999998,120.70081449999998,120.70081449999998,120.70081449999998,121.47001970000565,x,0.7618268999940483,None,,,,,,,,,,KN_en,001,2025-03-11_23h17.36.748,MainFlow,2024.2.4,145.81935896576462,2025-03-11 23h17.48.038240 +0700,
2,3,71,word/worden0713.png,66,66,0,x,0.4510679000086384,None,0,66,66,66,121.47518459999992,,,,,,,121.47518459999992,121.47518459999992,122.48809569999867,122.49154170000111,122.49154170000111,122.49154170000111,122.49154170000111,122.94880760001251,x,0.4510679000086384,None,,,,,,,,,,KN_en,001,2025-03-11_23h17.36.748,MainFlow,2024.2.4,145.81935896576462,2025-03-11 23h17.48.038240 +0700,
2,1,68,word/worden0681.png,67,67,0,z,0.7615233999968041,None,0,67,67,67,122.95414680000977,,,,,,,122.95414680000977,122.95414680000977,123.9654453000112,123.96836530001019,123.96836530001019,123.96836530001019,123.96836530001019,124.73370550000982,z,0.7615233999968041,None,,,,,,,,,,KN_en,001,2025-03-11_23h17.36.748,MainFlow,2024.2.4,145.81935896576462,2025-03-11 23h17.48.038240 +0700,
2,2,88,word/worden0882.png,68,68,0,x,0.49217669999052305,None,0,68,68,68,124.73872700000356,,,,,,,124.73872700000356,124.73872700000356,125.74620700000378,125.74960460000148,125.74960460000148,125.74960460000148,125.74960460000148,126.24696610000683,x,0.49217669999052305,None,,,,,,,,,,KN_en,001,2025-03-11_23h17.36.748,MainFlow,2024.2.4,145.81935896576462,2025-03-11 23h17.48.038240 +0700,
2,2,50,word/worden0502.png,69,69,0,x,0.5101821999996901,None,0,69,69,69,126.25212600000668,,,,,,,126.25212600000668,126.25212600000668,127.27017129999876,127.27348319999874,127.27348319999874,127.27348319999874,127.27348319999874,127.7885144000029,x,0.5101821999996901,None,,,,,,,,,,KN_en,001,2025-03-11_23h17.36.748,MainFlow,2024.2.4,145.81935896576462,2025-03-11 23h17.48.038240 +0700,
2,3,93,word/worden0933.png,70,70,0,x,0.5151058999908855,None,0,70,70,70,127.79360160000215,,,,,,,127.79360160000215,127.79360160000215,128.80355120000604,128.80739850000828,128.80739850000828,128.80739850000828,128.80739850000828,129.32941440001014,x,0.5151058999908855,None,,,,,,,,,,KN_en,001,2025-03-11_23h17.36.748,MainFlow,2024.2.4,145.81935896576462,2025-03-11 23h17.48.038240 +0700,
2,1,63,word/worden0631.png,71,71,0,z,0.4449847000068985,None,0,71,71,71,129.3347730000096,,,,,,,129.3347730000096,129.3347730000096,130.34816970000975,130.35164750000695,130.35164750000695,130.35164750000695,130.35164750000695,130.80150090000825,z,0.4449847000068985,None,,,,,,,,,,KN_en,001,2025-03-11_23h17.36.748,MainFlow,2024.2.4,145.81935896576462,2025-03-11 23h17.48.038240 +0700,
2,2,7,word/worden0072.png,72,72,0,x,0.41676389999338426,None,0,72,72,72,130.80677860000287,,,,,,,130.80677860000287,130.80677860000287,131.82472080001025,131.82806800000253,131.82806800000253,131.82806800000253,131.82806800000253,132.2462685000064,x,0.41676389999338426,None,,,,,,,,,,KN_en,001,2025-03-11_23h17.36.748,MainFlow,2024.2.4,145.81935896576462,2025-03-11 23h17.48.038240 +0700,
2,2,64,word/worden0642.png,73,73,0,x,0.4579048000014154,None,0,73,73,73,132.25107040000148,,,,,,,132.25107040000148,132.25107040000148,133.25105620000977,133.25394330000563,133.25394330000563,133.25394330000563,133.25394330000563,133.71796160000667,x,0.4579048000014154,None,,,,,,,,,,KN_en,001,2025-03-11_23h17.36.748,MainFlow,2024.2.4,145.81935896576462,2025-03-11 23h17.48.038240 +0700,
2,1,24,word/worden0241.png,74,74,0,z,0.54233879999083,None,0,74,74,74,133.72288800000388,,,,,,,133.72288800000388,133.72288800000388,134.71766730000672,134.72131540000555,134.72131540000555,134.72131540000555,134.72131540000555,135.26601170000504,z,0.54233879999083,None,,,,,,,,,,KN_en,001,2025-03-11_23h17.36.748,MainFlow,2024.2.4,145.81935896576462,2025-03-11 23h17.48.038240 +0700,
2,2,1,word/worden0012.png,75,75,0,x,0.4968839999928605,None,0,75,75,75,135.27119160001166,,,,,,,135.27119160001166,135.27119160001166,136.28310970000166,136.28661760000978,136.28661760000978,136.28661760000978,136.28661760000978,136.78610240000125,x,0.4968839999928605,None,,,,,,,,,,KN_en,001,2025-03-11_23h17.36.748,MainFlow,2024.2.4,145.81935896576462,2025-03-11 23h17.48.038240 +0700,
2,1,46,word/worden0461.png,76,76,0,z,0.46796760000870563,None,0,76,76,76,136.79178240000329,,,,,,,136.79178240000329,136.79178240000329,137.81239089999872,137.81559880000714,137.81559880000714,137.81559880000714,137.81559880000714,138.28610370001115,z,0.46796760000870563,None,,,,,,,,,,KN_en,001,2025-03-11_23h17.36.748,MainFlow,2024.2.4,145.81935896576462,2025-03-11 23h17.48.038240 +0700,
2,3,52,word/worden0523.png,77,77,0,x,0.3872752000024775,None,0,77,77,77,138.2914335000096,,,,,,,138.2914335000096,138.2914335000096,139.312414,139.3156949000113,139.3156949000113,139.3156949000113,139.3156949000113,139.7094475000049,x,0.3872752000024775,None,,,,,,,,,,KN_en,001,2025-03-11_23h17.36.748,MainFlow,2024.2.4,145.81935896576462,2025-03-11 23h17.48.038240 +0700,
2,2,31,word/worden0312.png,78,78,0,x,0.46443510000244714,None,0,78,78,78,139.7148079000035,,,,,,,139.7148079000035,139.7148079000035,140.7275010000012,140.7312554000091,140.7312554000091,140.7312554000091,140.7312554000091,141.20204920000106,x,0.46443510000244714,None,,,,,,,,,,KN_en,001,2025-03-11_23h17.36.748,MainFlow,2024.2.4,145.81935896576462,2025-03-11 23h17.48.038240 +0700,
2,2,95,word/worden0952.png,79,79,0,x,0.5751988999982132,None,0,79,79,79,141.20751680000103,,,,,,,141.20751680000103,141.20751680000103,142.2179138000065,142.2213025000092,142.2213025000092,142.2213025000092,142.2213025000092,142.7992743000068,x,0.5751988999982132,None,,,,,,,,,,KN_en,001,2025-03-11_23h17.36.748,MainFlow,2024.2.4,145.81935896576462,2025-03-11 23h17.48.038240 +0700,
2,1,93,word/worden0931.png,80,80,0,z,0.6216624000080628,None,0,80,80,80,142.80448410000827,,,,,,,142.80448410000827,142.80448410000827,143.81612610000593,143.81942450000497,143.81942450000497,143.81942450000497,143.81942450000497,144.44480960001238,z,0.6216624000080628,None,,,,,,,,,,KN_en,001,2025-03-11_23h17.36.748,MainFlow,2024.2.4,145.81935896576462,2025-03-11 23h17.48.038240 +0700,
2,1,71,word/worden0711.png,81,81,0,z,0.5000435999972979,None,0,81,81,81,144.4500926000037,,,,,,,144.4500926000037,144.4500926000037,145.46582360001048,145.46901450000587,145.46901450000587,145.46901450000587,145.46901450000587,145.97171399999934,z,0.5000435999972979,None,,,,,,,,,,KN_en,001,2025-03-11_23h17.36.748,MainFlow,2024.2.4,145.81935896576462,2025-03-11 23h17.48.038240 +0700,
2,1,48,word/worden0481.png,82,82,0,x,0.4898555999970995,None,0,82,82,82,145.9773925000045,,,,,,,145.9773925000045,145.9773925000045,146.98873870000534,146.99208860000363,146.99208860000363,146.99208860000363,146.99208860000363,147.48607980000088,x,0.4898555999970995,None,,,,,,,,,,KN_en,001,2025-03-11_23h17.36.748,MainFlow,2024.2.4,145.81935896576462,2025-03-11 23h17.48.038240 +0700,
2,1,94,word/worden0941.png,83,83,0,z,0.680146099999547,None,0,83,83,83,147.49109070000122,,,,,,,147.49109070000122,147.49109070000122,148.50265870000294,148.50619300000835,148.50619300000835,148.50619300000835,148.50619300000835,149.19322320001083,z,0.680146099999547,None,,,,,,,,,,KN_en,001,2025-03-11_23h17.36.748,MainFlow,2024.2.4,145.81935896576462,2025-03-11 23h17.48.038240 +0700,
2,3,68,word/worden0683.png,84,84,0,x,0.6945247999974526,None,0,84,84,84,149.19897160000983,,,,,,,149.19897160000983,149.19897160000983,150.20807180000702,150.21145750000142,150.21145750000142,150.21145750000142,150.21145750000142,150.90942789999826,x,0.6945247999974526,None,,,,,,,,,,KN_en,001,2025-03-11_23h17.36.748,MainFlow,2024.2.4,145.81935896576462,2025-03-11 23h17.48.038240 +0700,
2,2,66,word/worden0662.png,85,85,0,x,0.4990468000032706,None,0,85,85,85,150.91410120000364,,,,,,,150.91410120000364,150.91410120000364,151.9269345000066,151.93066260000342,151.93066260000342,151.93066260000342,151.93066260000342,152.43618640000932,x,0.4990468000032706,None,,,,,,,,,,KN_en,001,2025-03-11_23h17.36.748,MainFlow,2024.2.4,145.81935896576462,2025-03-11 23h17.48.038240 +0700,
2,3,95,word/worden0953.png,86,86,0,x,0.758957999991253,None,0,86,86,86,152.4414667000092,,,,,,,152.4414667000092,152.4414667000092,153.43520510000235,153.4380885999999,153.4380885999999,153.4380885999999,153.4380885999999,154.20053830000688,x,0.758957999991253,None,,,,,,,,,,KN_en,001,2025-03-11_23h17.36.748,MainFlow,2024.2.4,145.81935896576462,2025-03-11 23h17.48.038240 +0700,
2,3,30,word/worden0303.png,87,87,0,x,0.7214685999933863,None,0,87,87,87,154.20506380000734,,,,,,,154.20506380000734,154.20506380000734,155.2216402000049,155.22497310000472,155.22497310000472,155.22497310000472,155.22497310000472,155.95074580000073,x,0.7214685999933863,None,,,,,,,,,,KN_en,001,2025-03-11_23h17.36.748,MainFlow,2024.2.4,145.81935896576462,2025-03-11 23h17.48.038240 +0700,
2,3,22,word/worden0223.png,88,88,0,x,0.6185052999935579,None,0,88,88,88,155.95625590000418,,,,,,,155.95625590000418,155.95625590000418,156.9629733000038,156.96636980000767,156.96636980000767,156.96636980000767,156.96636980000767,157.58744149999984,x,0.6185052999935579,None,,,,,,,,,,KN_en,001,2025-03-11_23h17.36.748,MainFlow,2024.2.4,145.81935896576462,2025-03-11 23h17.48.038240 +0700,
2,1,75,word/worden0751.png,89,89,0,z,0.4805759000009857,None,0,89,89,89,157.5931763000117,,,,,,,157.5931763000117,157.5931763000117,158.60694630000216,158.6104164999997,158.6104164999997,158.6104164999997,158.6104164999997,159.09565560000192,z,0.4805759000009857,None,,,,,,,,,,KN_en,001,2025-03-11_23h17.36.748,MainFlow,2024.2.4,145.81935896576462,2025-03-11 23h17.48.038240 +0700,
2,1,64,word/worden0641.png,90,90,0,z,0.6583988000056706,None,0,90,90,90,159.100038900011,,,,,,,159.100038900011,159.100038900011,160.10985910000454,160.11309189999884,160.11309189999884,160.11309189999884,160.11309189999884,160.77617630000168,z,0.6583988000056706,None,,,,,,,,,,KN_en,001,2025-03-11_23h17.36.748,MainFlow,2024.2.4,145.81935896576462,2025-03-11 23h17.48.038240 +0700,
2,1,27,word/worden0271.png,91,91,0,z,0.4347230999992462,None,0,91,91,91,160.7817584000004,,,,,,,160.7817584000004,160.7817584000004,161.7769982000027,161.7798851000116,161.7798851000116,161.7798851000116,161.7798851000116,162.21931410000252,z,0.4347230999992462,None,,,,,,,,,,KN_en,001,2025-03-11_23h17.36.748,MainFlow,2024.2.4,145.81935896576462,2025-03-11 23h17.48.038240 +0700,
2,2,24,word/worden0242.png,92,92,0,x,0.5896538000088185,None,0,92,92,92,162.22437520000676,,,,,,,162.22437520000676,162.22437520000676,163.23790610001015,163.24157980000018,163.24157980000018,163.24157980000018,163.24157980000018,163.83709600000293,x,0.5896538000088185,None,,,,,,,,,,KN_en,001,2025-03-11_23h17.36.748,MainFlow,2024.2.4,145.81935896576462,2025-03-11 23h17.48.038240 +0700,
2,1,87,word/worden0871.png,93,93,0,x,0.5612436000083108,None,0,93,93,93,163.84211140000843,,,,,,,163.84211140000843,163.84211140000843,164.8525179999997,164.85586799999874,164.85586799999874,164.85586799999874,164.85586799999874,165.42114109999966,x,0.5612436000083108,None,,,,,,,,,,KN_en,001,2025-03-11_23h17.36.748,MainFlow,2024.2.4,145.81935896576462,2025-03-11 23h17.48.038240 +0700,
2,1,7,word/worden0071.png,94,94,0,z,0.4835937999887392,None,0,94,94,94,165.42554050000035,,,,,,,165.42554050000035,165.42554050000035,166.44126220000908,166.44450040000083,166.44450040000083,166.44450040000083,166.44450040000083,166.9336539000069,z,0.4835937999887392,None,,,,,,,,,,KN_en,001,2025-03-11_23h17.36.748,MainFlow,2024.2.4,145.81935896576462,2025-03-11 23h17.48.038240 +0700,
2,2,9,word/worden0092.png,95,95,0,x,0.3973333000030834,None,0,95,95,95,166.93878229999973,,,,,,,166.93878229999973,166.93878229999973,167.95010800000455,167.95321610000974,167.95321610000974,167.95321610000974,167.95321610000974,168.35818730000756,x,0.3973333000030834,None,,,,,,,,,,KN_en,001,2025-03-11_23h17.36.748,MainFlow,2024.2.4,145.81935896576462,2025-03-11 23h17.48.038240 +0700,
2,1,44,word/worden0441.png,96,96,0,z,0.505220700011705,None,0,96,96,96,168.3623219000001,,,,,,,168.3623219000001,168.3623219000001,169.37347600000794,169.37692500000412,169.37692500000412,169.37692500000412,169.37692500000412,169.88559479999822,z,0.505220700011705,None,,,,,,,,,,KN_en,001,2025-03-11_23h17.36.748,MainFlow,2024.2.4,145.81935896576462,2025-03-11 23h17.48.038240 +0700,
2,2,10,word/worden0102.png,97,97,0,x,0.46590899999137037,None,0,97,97,97,169.8898901000066,,,,,,,169.8898901000066,169.8898901000066,170.89890540001215,170.90226529999927,170.90226529999927,170.90226529999927,170.90226529999927,171.3719807000016,x,0.46590899999137037,None,,,,,,,,,,KN_en,001,2025-03-11_23h17.36.748,MainFlow,2024.2.4,145.81935896576462,2025-03-11 23h17.48.038240 +0700,
2,2,82,word/worden0822.png,98,98,0,x,0.7871886000066297,None,0,98,98,98,171.37823790000402,,,,,,,171.37823790000402,171.37823790000402,172.396828500001,172.40009660000214,172.40009660000214,172.40009660000214,172.40009660000214,173.1901910000015,x,0.7871886000066297,None,172.40009660000214,172.40009660000214,,,,,,,,KN_en,001,2025-03-11_23h17.36.748,MainFlow,2024.2.4,145.81935896576462,2025-03-11 23h17.48.038240 +0700,
2,3,89,word/worden0893.png,99,99,0,x,0.5373243000067305,None,0,99,99,99,173.1944557000097,,,,,,,173.1944557000097,173.1944557000097,174.18792029999895,174.19080360000953,174.19080360000953,174.19080360000953,174.19080360000953,174.73124730000563,x,0.5373243000067305,None,,,,,,,,,,KN_en,001,2025-03-11_23h17.36.748,MainFlow,2024.2.4,145.81935896576462,2025-03-11 23h17.48.038240 +0700,
2,2,44,word/worden0442.png,100,100,0,x,0.4153147000033641,None,0,100,100,100,174.7360042000073,,,,,,,174.7360042000073,174.7360042000073,175.74159060000966,175.7450666000077,175.7450666000077,175.7450666000077,175.7450666000077,176.16763120000542,x,0.4153147000033641,None,,,,,,,,,,KN_en,001,2025-03-11_23h17.36.748,MainFlow,2024.2.4,145.81935896576462,2025-03-11 23h17.48.038240 +0700,
2,1,52,word/worden0521.png,101,101,0,z,0.5270385999901919,None,0,101,101,101,176.1730755000026,,,,,,,176.1730755000026,176.1730755000026,177.1837758000038,177.18712490001053,177.18712490001053,177.18712490001053,177.18712490001053,177.716116399999,z,0.5270385999901919,None,,,,,,,,,,KN_en,001,2025-03-11_23h17.36.748,MainFlow,2024.2.4,145.81935896576462,2025-03-11 23h17.48.038240 +0700,
2,1,51,word/worden0511.png,102,102,0,z,0.4714365999971051,None,0,102,102,102,177.72131820001232,,,,,,,177.72131820001232,177.72131820001232,178.7321762000065,178.73571180000727,178.73571180000727,178.73571180000727,178.73571180000727,179.209683699999,z,0.4714365999971051,None,,,,,,,,,,KN_en,001,2025-03-11_23h17.36.748,MainFlow,2024.2.4,145.81935896576462,2025-03-11 23h17.48.038240 +0700,
2,3,51,word/worden0513.png,103,103,0,x,0.7369101999938721,None,0,103,103,103,179.21424510001088,,,,,,,179.21424510001088,179.21424510001088,180.22751250000147,180.23048660000495,180.23048660000495,180.23048660000495,180.23048660000495,180.97256530000595,x,0.7369101999938721,None,,,,,,,,,,KN_en,001,2025-03-11_23h17.36.748,MainFlow,2024.2.4,145.81935896576462,2025-03-11 23h17.48.038240 +0700,
2,2,8,word/worden0082.png,104,104,0,x,0.4347074000106659,None,0,104,104,104,180.97759940000833,,,,,,,180.97759940000833,180.97759940000833,181.98086960001092,181.98386760000722,181.98386760000722,181.98386760000722,181.98386760000722,182.4235628000024,x,0.4347074000106659,None,,,,,,,,,,KN_en,001,2025-03-11_23h17.36.748,MainFlow,2024.2.4,145.81935896576462,2025-03-11 23h17.48.038240 +0700,
2,2,3,word/worden0032.png,105,105,0,x,0.37909030000446364,None,0,105,105,105,182.42876930000784,,,,,,,182.42876930000784,182.42876930000784,183.4382886000094,183.4416457000043,183.4416457000043,183.4416457000043,183.4416457000043,183.8259531000076,x,0.37909030000446364,None,,,,,,,,,,KN_en,001,2025-03-11_23h17.36.748,MainFlow,2024.2.4,145.81935896576462,2025-03-11 23h17.48.038240 +0700,
2,3,3,word/worden0033.png,106,106,0,x,0.32981520000612363,None,0,106,106,106,183.83144710000488,,,,,,,183.83144710000488,183.83144710000488,184.84887000000163,184.85230589999992,184.85230589999992,184.85230589999992,184.85230589999992,185.1868397000071,x,0.32981520000612363,None,,,,,,,,,,KN_en,001,2025-03-11_23h17.36.748,MainFlow,2024.2.4,145.81935896576462,2025-03-11 23h17.48.038240 +0700,
2,3,64,word/worden0643.png,107,107,0,x,0.7254762999946252,None,0,107,107,107,185.19219810000504,,,,,,,185.19219810000504,185.19219810000504,186.19625630001246,186.19905560000916,186.19905560000916,186.19905560000916,186.19905560000916,186.93066980000003,x,0.7254762999946252,None,,,,,,,,,,KN_en,001,2025-03-11_23h17.36.748,MainFlow,2024.2.4,145.81935896576462,2025-03-11 23h17.48.038240 +0700,
2,3,26,word/worden0263.png,108,108,0,x,0.3600890999950934,None,0,108,108,108,186.93549820000771,,,,,,,186.93549820000771,186.93549820000771,187.94852510000055,187.95165700001235,187.95165700001235,187.95165700001235,187.95165700001235,188.31834060000256,x,0.3600890999950934,None,,,,,,,,,,KN_en,001,2025-03-11_23h17.36.748,MainFlow,2024.2.4,145.81935896576462,2025-03-11 23h17.48.038240 +0700,
2,2,96,word/worden0962.png,109,109,0,x,0.35081230000650976,None,0,109,109,109,188.3234448000003,,,,,,,188.3234448000003,188.3234448000003,189.3291973000014,189.33238810001058,189.33238810001058,189.33238810001058,189.33238810001058,189.68666790000862,x,0.35081230000650976,None,,,,,,,,,,KN_en,001,2025-03-11_23h17.36.748,MainFlow,2024.2.4,145.81935896576462,2025-03-11 23h17.48.038240 +0700,
2,1,22,word/worden0221.png,110,110,0,z,0.41787989999284036,None,0,110,110,110,189.69126300000062,,,,,,,189.69126300000062,189.69126300000062,190.7090082000068,190.71251500000653,190.71251500000653,190.71251500000653,190.71251500000653,191.1371533000056,z,0.41787989999284036,None,,,,,,,,,,KN_en,001,2025-03-11_23h17.36.748,MainFlow,2024.2.4,145.81935896576462,2025-03-11 23h17.48.038240 +0700,
2,2,22,word/worden0222.png,111,111,0,x,0.31516450000344776,None,0,111,111,111,191.1425173000025,,,,,,,191.1425173000025,191.1425173000025,192.1489131999988,192.15241910000623,192.15241910000623,192.15241910000623,192.15241910000623,192.47010450001108,x,0.31516450000344776,None,,,,,,,,,,KN_en,001,2025-03-11_23h17.36.748,MainFlow,2024.2.4,145.81935896576462,2025-03-11 23h17.48.038240 +0700,
2,2,26,word/worden0262.png,112,112,0,x,0.419743100006599,None,0,112,112,112,192.47538319999876,,,,,,,192.47538319999876,192.47538319999876,193.48619070000132,193.48912100000598,193.48912100000598,193.48912100000598,193.48912100000598,193.91474970000854,x,0.419743100006599,None,,,,,,,,,,KN_en,001,2025-03-11_23h17.36.748,MainFlow,2024.2.4,145.81935896576462,2025-03-11 23h17.48.038240 +0700,
2,3,48,word/worden0483.png,113,113,0,x,0.625611099996604,None,0,113,113,113,193.91962280000735,,,,,,,193.91962280000735,193.91962280000735,194.93307130000903,194.93669890001183,194.93669890001183,194.93669890001183,194.93669890001183,195.56695500000205,x,0.625611099996604,None,,,,,,,,,,KN_en,001,2025-03-11_23h17.36.748,MainFlow,2024.2.4,145.81935896576462,2025-03-11 23h17.48.038240 +0700,
2,2,87,word/worden0872.png,114,114,0,x,0.5823429999873042,None,0,114,114,114,195.57214010000462,,,,,,,195.57214010000462,195.57214010000462,196.57539769999858,196.57879569999932,196.57879569999932,196.57879569999932,196.57879569999932,197.16500090000045,x,0.5823429999873042,None,,,,,,,,,,KN_en,001,2025-03-11_23h17.36.748,MainFlow,2024.2.4,145.81935896576462,2025-03-11 23h17.48.038240 +0700,
2,1,10,word/worden0101.png,115,115,0,z,0.3819126000016695,None,0,115,115,115,197.16987330000848,,,,,,,197.16987330000848,197.16987330000848,198.18415150001238,198.18740239999897,198.18740239999897,198.18740239999897,198.18740239999897,198.57335990000865,z,0.3819126000016695,None,,,,,,,,,,KN_en,001,2025-03-11_23h17.36.748,MainFlow,2024.2.4,145.81935896576462,2025-03-11 23h17.48.038240 +0700,
2,3,8,word/worden0083.png,116,116,0,x,0.7587706999911461,None,0,116,116,116,198.57840850000503,,,,,,,198.57840850000503,198.57840850000503,199.59415170000284,199.59777269999904,199.59777269999904,199.59777269999904,199.59777269999904,200.35798670000804,x,0.7587706999911461,None,,,,,,,,,,KN_en,001,2025-03-11_23h17.36.748,MainFlow,2024.2.4,145.81935896576462,2025-03-11 23h17.48.038240 +0700,
2,3,94,word/worden0943.png,117,117,0,x,0.626422300003469,None,0,117,117,117,200.362801700001,,,,,,,200.362801700001,200.362801700001,201.37752439999895,201.38071599999967,201.38071599999967,201.38071599999967,201.38071599999967,202.01079100000788,x,0.626422300003469,None,,,,,,,,,,KN_en,001,2025-03-11_23h17.36.748,MainFlow,2024.2.4,145.81935896576462,2025-03-11 23h17.48.038240 +0700,
2,2,11,word/worden0112.png,118,118,0,x,0.38348420000693295,None,0,118,118,118,202.01524620001146,,,,,,,202.01524620001146,202.01524620001146,203.0314814000012,203.0349503000034,203.0349503000034,203.0349503000034,203.0349503000034,203.41932030000316,x,0.38348420000693295,None,,,,,,,,,,KN_en,001,2025-03-11_23h17.36.748,MainFlow,2024.2.4,145.81935896576462,2025-03-11 23h17.48.038240 +0700,
2,3,24,word/worden0243.png,119,119,0,x,0.31833219999680296,None,0,119,119,119,203.42468799999915,,,,,,,203.42468799999915,203.42468799999915,204.43306200001098,204.4364193000074,204.4364193000074,204.4364193000074,204.4364193000074,204.75908470001013,x,0.31833219999680296,None,,,,,,,,,,KN_en,001,2025-03-11_23h17.36.748,MainFlow,2024.2.4,145.81935896576462,2025-03-11 23h17.48.038240 +0700,
,,,,,,,,,,,,,,,,,,,,,,,,,,,,,,,,,,204.75917150000168,204.76467220000632,204.76467220000632,218.68721470001037,space,13.919862900002045,None,KN_en,001,2025-03-11_23h17.36.748,MainFlow,2024.2.4,145.81935896576462,2025-03-11 23h17.48.038240 +0700,
