lang,stimuli,imageid,worddir,thisN,thisTrialN,thisRepN,key_resp.keys,key_resp.rt,key_resp.duration,trials.thisRepN,trials.thisTrialN,trials.thisN,trials.thisIndex,thisRow.t,notes,tutorial.started,tutorial.stopped,key_instruct.keys,key_instruct.rt,key_instruct.duration,instructblank.started,cross1.started,letterselect.started,imageword.started,text_2.started,cross2.started,key_resp.started,letterselect.stopped,trials.key_resp.keys,trials.key_resp.rt,trials.key_resp.duration,instructblank.stopped,cross1.stopped,ending.started,text_3.started,ending_key.started,ending.stopped,ending_key.keys,ending_key.rt,ending_key.duration,participant,session,date,expName,psychopyVersion,frameRate,expStart,
,,,,,,,,,,,,,,,,0.0025162999954773113,3.7176986999984365,space,3.6895746999944095,None,,,,,,,,,,,,,,,,,,,,,KN_th,001,2025-03-11_23h13.45.113,MainFlow,2024.2.4,145.06945200333985,2025-03-11 23h13.54.716325 +0700,
1,3,89,word/wordth0893.png,0,0,0,x,0.7725593000068329,None,0,0,0,0,3.74942920000467,,,,,,,3.74942920000467,3.74942920000467,4.730515599992941,4.755699799992726,4.755699799992726,4.755699799992726,4.755699799992726,5.53022339999734,x,0.7725593000068329,None,,,,,,,,,,KN_th,001,2025-03-11_23h13.45.113,MainFlow,2024.2.4,145.06945200333985,2025-03-11 23h13.54.716325 +0700,
1,3,28,word/wordth0283.png,1,1,0,x,0.44799390000116546,None,0,1,1,1,5.536370100002387,,,,,,,5.536370100002387,5.536370100002387,6.540301000000909,6.544351000004099,6.544351000004099,6.544351000004099,6.544351000004099,6.9949272999947425,x,0.44799390000116546,None,,,,,,,,,,KN_th,001,2025-03-11_23h13.45.113,MainFlow,2024.2.4,145.06945200333985,2025-03-11 23h13.54.716325 +0700,
1,2,87,word/wordth0872.png,2,2,0,x,0.3449989000073401,None,0,2,2,2,7.00049289999879,,,,,,,7.00049289999879,7.00049289999879,8.010935800004518,8.014675600003102,8.014675600003102,8.014675600003102,8.014675600003102,8.36242069999571,x,0.3449989000073401,None,,,,,,,,,,KN_th,001,2025-03-11_23h13.45.113,MainFlow,2024.2.4,145.06945200333985,2025-03-11 23h13.54.716325 +0700,
1,2,68,word/wordth0682.png,3,3,0,x,0.3019828999968013,None,0,3,3,3,8.368059899992659,,,,,,,8.368059899992659,8.368059899992659,9.369531100004679,9.373141699994449,9.373141699994449,9.373141699994449,9.373141699994449,9.681558600001154,x,0.3019828999968013,None,,,,,,,,,,KN_th,001,2025-03-11_23h13.45.113,MainFlow,2024.2.4,145.06945200333985,2025-03-11 23h13.54.716325 +0700,
1,2,11,word/wordth0112.png,4,4,0,x,0.35905620000266936,None,0,4,4,4,9.687187699993956,,,,,,,9.687187699993956,9.687187699993956,10.699605999994674,10.70342819999496,10.70342819999496,10.70342819999496,10.70342819999496,11.065133399999468,x,0.35905620000266936,None,,,,,,,,,,KN_th,001,2025-03-11_23h13.45.113,MainFlow,2024.2.4,145.06945200333985,2025-03-11 23h13.54.716325 +0700,
1,3,11,word/wordth0113.png,5,5,0,x,0.39717490000475664,None,0,5,5,5,11.069986599992262,,,,,,,11.069986599992262,11.069986599992262,12.06883889999881,12.072494099993492,12.072494099993492,12.072494099993492,12.072494099993492,12.472727799991844,x,0.39717490000475664,None,,,,,,,,,,KN_th,001,2025-03-11_23h13.45.113,MainFlow,2024.2.4,145.06945200333985,2025-03-11 23h13.54.716325 +0700,
1,2,71,word/wordth0712.png,6,6,0,x,0.4596455999999307,None,0,6,6,6,12.478640500004985,,,,,,,12.478640500004985,12.478640500004985,13.47859719999542,13.482176399993477,13.482176399993477,13.482176399993477,13.482176399993477,13.948421099994448,x,0.4596455999999307,None,,,,,,,,,,KN_th,001,2025-03-11_23h13.45.113,MainFlow,2024.2.4,145.06945200333985,2025-03-11 23h13.54.716325 +0700,
1,3,44,word/wordth0443.png,7,7,0,x,0.5010533000022406,None,0,7,7,7,13.956937399998424,,,,,,,13.956937399998424,13.956937399998424,14.957432199997129,14.96109389999765,14.96109389999765,14.96109389999765,14.96109389999765,15.466690300003393,x,0.5010533000022406,None,,,,,,,,,,KN_th,001,2025-03-11_23h13.45.113,MainFlow,2024.2.4,145.06945200333985,2025-03-11 23h13.54.716325 +0700,
1,2,82,word/wordth0822.png,8,8,0,x,0.3551333000068553,None,0,8,8,8,15.474306199990679,,,,,,,15.474306199990679,15.474306199990679,16.470502399999532,16.47415639999963,16.47415639999963,16.47415639999963,16.47415639999963,16.832658899991657,x,0.3551333000068553,None,,,,,,,,,,KN_th,001,2025-03-11_23h13.45.113,MainFlow,2024.2.4,145.06945200333985,2025-03-11 23h13.54.716325 +0700,
1,2,28,word/wordth0282.png,9,9,0,x,0.3674280999985058,None,0,9,9,9,16.838383099995553,,,,,,,16.838383099995553,16.838383099995553,17.83809019999171,17.841897499994957,17.841897499994957,17.841897499994957,17.841897499994957,18.21448569999484,x,0.3674280999985058,None,,,,,,,,,,KN_th,001,2025-03-11_23h13.45.113,MainFlow,2024.2.4,145.06945200333985,2025-03-11 23h13.54.716325 +0700,
1,1,23,word/wordth0231.png,10,10,0,z,0.5788287999894237,None,0,10,10,10,18.22046450000198,,,,,,,18.22046450000198,18.22046450000198,19.227157999994233,19.231213399994886,19.231213399994886,19.231213399994886,19.231213399994886,19.811633099991013,z,0.5788287999894237,None,,,,,,,,,,KN_th,001,2025-03-11_23h13.45.113,MainFlow,2024.2.4,145.06945200333985,2025-03-11 23h13.54.716325 +0700,
1,2,63,word/wordth0632.png,11,11,0,x,0.5112700000026962,None,0,11,11,11,19.81721700000344,,,,,,,19.81721700000344,19.81721700000344,20.814194899998256,20.81787970000005,20.81787970000005,20.81787970000005,20.81787970000005,21.33217280000099,x,0.5112700000026962,None,,,,,,,,,,KN_th,001,2025-03-11_23h13.45.113,MainFlow,2024.2.4,145.06945200333985,2025-03-11 23h13.54.716325 +0700,
1,3,71,word/wordth0713.png,12,12,0,x,0.44111260000499897,None,0,12,12,12,21.33770590000495,,,,,,,21.33770590000495,21.33770590000495,22.33737480000127,22.341042600004585,22.341042600004585,22.341042600004585,22.341042600004585,22.78302819999226,x,0.44111260000499897,None,,,,,,,,,,KN_th,001,2025-03-11_23h13.45.113,MainFlow,2024.2.4,145.06945200333985,2025-03-11 23h13.54.716325 +0700,
1,1,1,word/wordth0011.png,13,13,0,z,0.5186526000034064,None,0,13,13,13,22.78914480000094,,,,,,,22.78914480000094,22.78914480000094,23.788637599995127,23.792303299997002,23.792303299997002,23.792303299997002,23.792303299997002,24.316984599994612,z,0.5186526000034064,None,,,,,,,,,,KN_th,001,2025-03-11_23h13.45.113,MainFlow,2024.2.4,145.06945200333985,2025-03-11 23h13.54.716325 +0700,
1,3,41,word/wordth0413.png,14,14,0,x,0.46952430000237655,None,0,14,14,14,24.323056199995335,,,,,,,24.323056199995335,24.323056199995335,25.322867900002166,25.32658769999398,25.32658769999398,25.32658769999398,25.32658769999398,25.79688300000271,x,0.46952430000237655,None,,,,,,,,,,KN_th,001,2025-03-11_23h13.45.113,MainFlow,2024.2.4,145.06945200333985,2025-03-11 23h13.54.716325 +0700,
1,2,64,word/wordth0642.png,15,15,0,x,0.34535459999460727,None,0,15,15,15,25.802512499998556,,,,,,,25.802512499998556,25.802512499998556,26.801398199997493,26.805189699996845,26.805189699996845,26.805189699996845,26.805189699996845,27.1513949999935,x,0.34535459999460727,None,,,,,,,,,,KN_th,001,2025-03-11_23h13.45.113,MainFlow,2024.2.4,145.06945200333985,2025-03-11 23h13.54.716325 +0700,
1,3,6,word/wordth0063.png,16,16,0,x,0.3852587000001222,None,0,16,16,16,27.15642260000459,,,,,,,27.15642260000459,27.15642260000459,28.158705399997416,28.162377100001322,28.162377100001322,28.162377100001322,28.162377100001322,28.552361299996846,x,0.3852587000001222,None,,,,,,,,,,KN_th,001,2025-03-11_23h13.45.113,MainFlow,2024.2.4,145.06945200333985,2025-03-11 23h13.54.716325 +0700,
1,2,31,word/wordth0312.png,17,17,0,x,0.3708100000076229,None,0,17,17,17,28.558956799999578,,,,,,,28.558956799999578,28.558956799999578,29.558563700004015,29.56240529999195,29.56240529999195,29.56240529999195,29.56240529999195,29.93740139999136,x,0.3708100000076229,None,,,,,,,,,,KN_th,001,2025-03-11_23h13.45.113,MainFlow,2024.2.4,145.06945200333985,2025-03-11 23h13.54.716325 +0700,
1,1,46,word/wordth0461.png,18,18,0,x,0.33981400000629947,None,0,18,18,18,29.94721899999422,,,,,,,29.94721899999422,29.94721899999422,30.944851699998253,30.948457799997414,30.948457799997414,30.948457799997414,30.948457799997414,31.295405400000163,x,0.33981400000629947,None,,,,,,,,,,KN_th,001,2025-03-11_23h13.45.113,MainFlow,2024.2.4,145.06945200333985,2025-03-11 23h13.54.716325 +0700,
1,3,51,word/wordth0513.png,19,19,0,x,0.3425526000064565,None,0,19,19,19,31.300929299992276,,,,,,,31.300929299992276,31.300929299992276,32.30443689999811,32.30814009999449,32.30814009999449,32.30814009999449,32.30814009999449,32.65649159999157,x,0.3425526000064565,None,,,,,,,,,,KN_th,001,2025-03-11_23h13.45.113,MainFlow,2024.2.4,145.06945200333985,2025-03-11 23h13.54.716325 +0700,
1,2,26,word/wordth0262.png,20,20,0,x,0.3436740000033751,None,0,20,20,20,32.66222070000367,,,,,,,32.66222070000367,32.66222070000367,33.662650800004485,33.66631879999477,33.66631879999477,33.66631879999477,33.66631879999477,34.0170466999989,x,0.3436740000033751,None,,,,,,,,,,KN_th,001,2025-03-11_23h13.45.113,MainFlow,2024.2.4,145.06945200333985,2025-03-11 23h13.54.716325 +0700,
1,2,96,word/wordth0962.png,21,21,0,x,0.2725866999971913,None,0,21,21,21,34.02269389999856,,,,,,,34.02269389999856,34.02269389999856,35.02444409999589,35.0281682999921,35.0281682999921,35.0281682999921,35.0281682999921,35.301617000004626,x,0.2725866999971913,None,,,,,,,,,,KN_th,001,2025-03-11_23h13.45.113,MainFlow,2024.2.4,145.06945200333985,2025-03-11 23h13.54.716325 +0700,
1,1,31,word/wordth0311.png,22,22,0,x,0.1899478999985149,None,0,22,22,22,35.307155300004524,,,,,,,35.307155300004524,35.307155300004524,36.305305499990936,36.308954299995094,36.308954299995094,36.308954299995094,36.308954299995094,36.502387000000454,x,0.1899478999985149,None,,,,,,,,,,KN_th,001,2025-03-11_23h13.45.113,MainFlow,2024.2.4,145.06945200333985,2025-03-11 23h13.54.716325 +0700,
1,2,94,word/wordth0942.png,23,23,0,z,0.43499059999885503,None,0,23,23,23,36.50834600000235,,,,,,,36.50834600000235,36.50834600000235,37.511822999993456,37.51577479999105,37.51577479999105,37.51577479999105,37.51577479999105,37.955167399995844,z,0.43499059999885503,None,,,,,,,,,,KN_th,001,2025-03-11_23h13.45.113,MainFlow,2024.2.4,145.06945200333985,2025-03-11 23h13.54.716325 +0700,
1,3,48,word/wordth0483.png,24,24,0,x,0.3810154000093462,None,0,24,24,24,37.960256099991966,,,,,,,37.960256099991966,37.960256099991966,38.95922530000098,38.962873199998285,38.962873199998285,38.962873199998285,38.962873199998285,39.35084970000025,x,0.3810154000093462,None,,,,,,,,,,KN_th,001,2025-03-11_23h13.45.113,MainFlow,2024.2.4,145.06945200333985,2025-03-11 23h13.54.716325 +0700,
1,3,24,word/wordth0243.png,25,25,0,x,0.3036615000019083,None,0,25,25,25,39.35899710000376,,,,,,,39.35899710000376,39.35899710000376,40.355951699995785,40.35958789999131,40.35958789999131,40.35958789999131,40.35958789999131,40.66870259999996,x,0.3036615000019083,None,,,,,,,,,,KN_th,001,2025-03-11_23h13.45.113,MainFlow,2024.2.4,145.06945200333985,2025-03-11 23h13.54.716325 +0700,
1,1,87,word/wordth0871.png,26,26,0,z,0.47728939999069553,None,0,26,26,26,40.674568399990676,,,,,,,40.674568399990676,40.674568399990676,41.67815779999364,41.68203149999317,41.68203149999317,41.68203149999317,41.68203149999317,42.1640386999934,z,0.47728939999069553,None,,,,,,,,,,KN_th,001,2025-03-11_23h13.45.113,MainFlow,2024.2.4,145.06945200333985,2025-03-11 23h13.54.716325 +0700,
1,2,51,word/wordth0512.png,27,27,0,x,0.5905036000040127,None,0,27,27,27,42.17411369999172,,,,,,,42.17411369999172,42.17411369999172,43.16969039999822,43.17349430000468,43.17349430000468,43.17349430000468,43.17349430000468,43.76513210000121,x,0.5905036000040127,None,,,,,,,,,,KN_th,001,2025-03-11_23h13.45.113,MainFlow,2024.2.4,145.06945200333985,2025-03-11 23h13.54.716325 +0700,
1,3,27,word/wordth0273.png,28,28,0,x,0.5112516999943182,None,0,28,28,28,43.77098129999649,,,,,,,43.77098129999649,43.77098129999649,44.77197729999898,44.7756442999962,44.7756442999962,44.7756442999962,44.7756442999962,45.292147000000114,x,0.5112516999943182,None,,,,,,,,,,KN_th,001,2025-03-11_23h13.45.113,MainFlow,2024.2.4,145.06945200333985,2025-03-11 23h13.54.716325 +0700,
1,2,22,word/wordth0222.png,29,29,0,x,0.3785922999959439,None,0,29,29,29,45.29893129999982,,,,,,,45.29893129999982,45.29893129999982,46.29798550000123,46.30162169999676,46.30162169999676,46.30162169999676,46.30162169999676,46.68222600000445,x,0.3785922999959439,None,,,,,,,,,,KN_th,001,2025-03-11_23h13.45.113,MainFlow,2024.2.4,145.06945200333985,2025-03-11 23h13.54.716325 +0700,
1,3,23,word/wordth0233.png,30,30,0,x,0.31556620000628754,None,0,30,30,30,46.68756940000458,,,,,,,46.68756940000458,46.68756940000458,47.69449349999195,47.69829289999325,47.69829289999325,47.69829289999325,47.69829289999325,48.018973500002176,x,0.31556620000628754,None,,,,,,,,,,KN_th,001,2025-03-11_23h13.45.113,MainFlow,2024.2.4,145.06945200333985,2025-03-11 23h13.54.716325 +0700,
1,1,48,word/wordth0481.png,31,31,0,x,0.339389900007518,None,0,31,31,31,48.02305419999175,,,,,,,48.02305419999175,48.02305419999175,49.02394519999507,49.0275832000043,49.0275832000043,49.0275832000043,49.0275832000043,49.36783859999559,x,0.339389900007518,None,49.0275832000043,49.0275832000043,,,,,,,,KN_th,001,2025-03-11_23h13.45.113,MainFlow,2024.2.4,145.06945200333985,2025-03-11 23h13.54.716325 +0700,
1,2,10,word/wordth0102.png,32,32,0,x,0.39605899999151006,None,0,32,32,32,49.37377869999909,,,,,,,49.37377869999909,49.37377869999909,50.370645799994236,50.37422309999238,50.37422309999238,50.37422309999238,50.37422309999238,50.7717166999937,x,0.39605899999151006,None,,,,,,,,,,KN_th,001,2025-03-11_23h13.45.113,MainFlow,2024.2.4,145.06945200333985,2025-03-11 23h13.54.716325 +0700,
1,3,64,word/wordth0643.png,33,33,0,x,0.43407760000263806,None,0,33,33,33,50.77700190000178,,,,,,,50.77700190000178,50.77700190000178,51.77549729999737,51.77933239999402,51.77933239999402,51.77933239999402,51.77933239999402,52.22455699999409,x,0.43407760000263806,None,,,,,,,,,,KN_th,001,2025-03-11_23h13.45.113,MainFlow,2024.2.4,145.06945200333985,2025-03-11 23h13.54.716325 +0700,
1,3,22,word/wordth0223.png,34,34,0,x,0.38327819999540225,None,0,34,34,34,52.234609799998,,,,,,,52.234609799998,52.234609799998,53.23846199999389,53.24227729999984,53.24227729999984,53.24227729999984,53.24227729999984,53.63074079999933,x,0.38327819999540225,None,,,,,,,,,,KN_th,001,2025-03-11_23h13.45.113,MainFlow,2024.2.4,145.06945200333985,2025-03-11 23h13.54.716325 +0700,
1,1,42,word/wordth0421.png,35,35,0,x,0.29648220000672154,None,0,35,35,35,53.637189100001706,,,,,,,53.637189100001706,53.637189100001706,54.644625000000815,54.648568399992655,54.648568399992655,54.648568399992655,54.648568399992655,54.95058659999631,x,0.29648220000672154,None,,,,,,,,,,KN_th,001,2025-03-11_23h13.45.113,MainFlow,2024.2.4,145.06945200333985,2025-03-11 23h13.54.716325 +0700,
1,2,1,word/wordth0012.png,36,36,0,x,0.320384999999078,None,0,36,36,36,54.95625719999953,,,,,,,54.95625719999953,54.95625719999953,55.95343419999699,55.957191099994816,55.957191099994816,55.957191099994816,55.957191099994816,56.28489609999815,x,0.320384999999078,None,,,,,,,,,,KN_th,001,2025-03-11_23h13.45.113,MainFlow,2024.2.4,145.06945200333985,2025-03-11 23h13.54.716325 +0700,
1,1,82,word/wordth0821.png,37,37,0,z,0.4354142999945907,None,0,37,37,37,56.290158499992685,,,,,,,56.290158499992685,56.290158499992685,57.292834899999434,57.29653059999691,57.29653059999691,57.29653059999691,57.29653059999691,57.73666290000256,z,0.4354142999945907,None,,,,,,,,,,KN_th,001,2025-03-11_23h13.45.113,MainFlow,2024.2.4,145.06945200333985,2025-03-11 23h13.54.716325 +0700,
1,2,3,word/wordth0032.png,38,38,0,x,0.5050302000017837,None,0,38,38,38,57.742923999991035,,,,,,,57.742923999991035,57.742923999991035,58.739374900003895,58.74343859999499,58.74343859999499,58.74343859999499,58.74343859999499,59.25474609999219,x,0.5050302000017837,None,,,,,,,,,,KN_th,001,2025-03-11_23h13.45.113,MainFlow,2024.2.4,145.06945200333985,2025-03-11 23h13.54.716325 +0700,
1,1,68,word/wordth0681.png,39,39,0,z,2.3875733999884687,None,0,39,39,39,59.260816299996804,,,,,,,59.260816299996804,59.260816299996804,60.2600448000012,60.263858299993444,60.263858299993444,60.263858299993444,60.263858299993444,62.65948159999971,z,2.3875733999884687,None,,,,,,,,,,KN_th,001,2025-03-11_23h13.45.113,MainFlow,2024.2.4,145.06945200333985,2025-03-11 23h13.54.716325 +0700,
1,1,66,word/wordth0661.png,40,40,0,z,0.563088200011407,None,0,40,40,40,62.666847000000416,,,,,,,62.666847000000416,62.666847000000416,63.666575700000976,63.67018269999244,63.67018269999244,63.67018269999244,63.67018269999244,64.23479829999269,z,0.563088200011407,None,,,,,,,,,,KN_th,001,2025-03-11_23h13.45.113,MainFlow,2024.2.4,145.06945200333985,2025-03-11 23h13.54.716325 +0700,
1,2,42,word/wordth0422.png,41,41,0,x,0.9034591999952681,None,0,41,41,41,64.2408856999973,,,,,,,64.2408856999973,64.2408856999973,65.2459222000034,65.25000980000186,65.25000980000186,65.25000980000186,65.25000980000186,66.15722480000113,x,0.9034591999952681,None,,,,,,,,,,KN_th,001,2025-03-11_23h13.45.113,MainFlow,2024.2.4,145.06945200333985,2025-03-11 23h13.54.716325 +0700,
1,3,93,word/wordth0933.png,42,42,0,x,0.7393718999956036,None,0,42,42,42,66.16323439999542,,,,,,,66.16323439999542,66.16323439999542,67.17177839999204,67.17596589999448,67.17596589999448,67.17596589999448,67.17596589999448,67.91635620000307,x,0.7393718999956036,None,,,,,,,,,,KN_th,001,2025-03-11_23h13.45.113,MainFlow,2024.2.4,145.06945200333985,2025-03-11 23h13.54.716325 +0700,
1,1,71,word/wordth0711.png,43,43,0,z,0.5538915999932215,None,0,43,43,43,67.91986589999578,,,,,,,67.91986589999578,67.91986589999578,68.92738389999431,68.93136259999301,68.93136259999301,68.93136259999301,68.93136259999301,69.4889903000003,z,0.5538915999932215,None,,,,,,,,,,KN_th,001,2025-03-11_23h13.45.113,MainFlow,2024.2.4,145.06945200333985,2025-03-11 23h13.54.716325 +0700,
1,1,64,word/wordth0641.png,44,44,0,z,0.6987117000098806,None,0,44,44,44,69.49490029999288,,,,,,,69.49490029999288,69.49490029999288,70.49313639999309,70.49691089999396,70.49691089999396,70.49691089999396,70.49691089999396,71.19742490000499,z,0.6987117000098806,None,,,,,,,,,,KN_th,001,2025-03-11_23h13.45.113,MainFlow,2024.2.4,145.06945200333985,2025-03-11 23h13.54.716325 +0700,
1,1,88,word/wordth0881.png,45,45,0,z,0.5503629000013461,None,0,45,45,45,71.20296209999651,,,,,,,71.20296209999651,71.20296209999651,72.20241220000025,72.20624250000401,72.20624250000401,72.20624250000401,72.20624250000401,72.75955940000131,z,0.5503629000013461,None,,,,,,,,,,KN_th,001,2025-03-11_23h13.45.113,MainFlow,2024.2.4,145.06945200333985,2025-03-11 23h13.54.716325 +0700,
1,3,87,word/wordth0873.png,46,46,0,x,0.7899335999973118,None,0,46,46,46,72.76515459999791,,,,,,,72.76515459999791,72.76515459999791,73.7649781999935,73.76861749999807,73.76861749999807,73.76861749999807,73.76861749999807,74.564232299992,x,0.7899335999973118,None,,,,,,,,,,KN_th,001,2025-03-11_23h13.45.113,MainFlow,2024.2.4,145.06945200333985,2025-03-11 23h13.54.716325 +0700,
1,3,3,word/wordth0033.png,47,47,0,x,0.6680052000010619,None,0,47,47,47,74.57008989999304,,,,,,,74.57008989999304,74.57008989999304,75.56975209999655,75.57360560000234,75.57360560000234,75.57360560000234,75.57360560000234,76.244686799997,x,0.6680052000010619,None,,,,,,,,,,KN_th,001,2025-03-11_23h13.45.113,MainFlow,2024.2.4,145.06945200333985,2025-03-11 23h13.54.716325 +0700,
1,2,95,word/wordth0952.png,48,48,0,x,1.7184968999936245,None,0,48,48,48,76.25120899999456,,,,,,,76.25120899999456,76.25120899999456,77.24961339999572,77.25325870000233,77.25325870000233,77.25325870000233,77.25325870000233,78.97375000000466,x,1.7184968999936245,None,,,,,,,,,,KN_th,001,2025-03-11_23h13.45.113,MainFlow,2024.2.4,145.06945200333985,2025-03-11 23h13.54.716325 +0700,
1,1,11,word/wordth0111.png,49,49,0,z,0.6248526999988826,None,0,49,49,49,78.97990789999312,,,,,,,78.97990789999312,78.97990789999312,79.97867299999052,79.98256419999234,79.98256419999234,79.98256419999234,79.98256419999234,80.61439649999375,z,0.6248526999988826,None,,,,,,,,,,KN_th,001,2025-03-11_23h13.45.113,MainFlow,2024.2.4,145.06945200333985,2025-03-11 23h13.54.716325 +0700,
1,1,10,word/wordth0101.png,50,50,0,z,0.5178362000006018,None,0,50,50,50,80.6217234999931,,,,,,,80.6217234999931,80.6217234999931,81.618121099993,81.62161259999266,81.62161259999266,81.62161259999266,81.62161259999266,82.14258210000116,z,0.5178362000006018,None,,,,,,,,,,KN_th,001,2025-03-11_23h13.45.113,MainFlow,2024.2.4,145.06945200333985,2025-03-11 23h13.54.716325 +0700,
1,1,44,word/wordth0441.png,51,51,0,z,0.7410915999935241,None,0,51,51,51,82.14978849999898,,,,,,,82.14978849999898,82.14978849999898,83.1499715999962,83.15347130000009,83.15347130000009,83.15347130000009,83.15347130000009,83.89625419999356,z,0.7410915999935241,None,,,,,,,,,,KN_th,001,2025-03-11_23h13.45.113,MainFlow,2024.2.4,145.06945200333985,2025-03-11 23h13.54.716325 +0700,
1,1,96,word/wordth0961.png,52,52,0,z,0.6868548999918858,None,0,52,52,52,83.90198239999881,,,,,,,83.90198239999881,83.90198239999881,84.9016391000041,84.90529609999794,84.90529609999794,84.90529609999794,84.90529609999794,85.59743890000391,z,0.6868548999918858,None,,,,,,,,,,KN_th,001,2025-03-11_23h13.45.113,MainFlow,2024.2.4,145.06945200333985,2025-03-11 23h13.54.716325 +0700,
1,2,27,word/wordth0272.png,53,53,0,x,0.7753686000069138,None,0,53,53,53,85.60311749999528,,,,,,,85.60311749999528,85.60311749999528,86.60663779999595,86.61019069999747,86.61019069999747,86.61019069999747,86.61019069999747,87.3901360000018,x,0.7753686000069138,None,,,,,,,,,,KN_th,001,2025-03-11_23h13.45.113,MainFlow,2024.2.4,145.06945200333985,2025-03-11 23h13.54.716325 +0700,
1,1,63,word/wordth0631.png,54,54,0,z,0.4912874000001466,None,0,54,54,54,87.39514710000367,,,,,,,87.39514710000367,87.39514710000367,88.40652799999225,88.41007919999538,88.41007919999538,88.41007919999538,88.41007919999538,88.90315399999963,z,0.4912874000001466,None,,,,,,,,,,KN_th,001,2025-03-11_23h13.45.113,MainFlow,2024.2.4,145.06945200333985,2025-03-11 23h13.54.716325 +0700,
1,3,66,word/wordth0663.png,55,55,0,z,0.3792981000005966,None,0,55,55,55,88.90903270000126,,,,,,,88.90903270000126,88.90903270000126,89.90739510000276,89.91117910000321,89.91117910000321,89.91117910000321,89.91117910000321,90.2976187000022,z,0.3792981000005966,None,,,,,,,,,,KN_th,001,2025-03-11_23h13.45.113,MainFlow,2024.2.4,145.06945200333985,2025-03-11 23h13.54.716325 +0700,
1,3,88,word/wordth0883.png,56,56,0,x,0.6834270999970613,None,0,56,56,56,90.30337179999333,,,,,,,90.30337179999333,90.30337179999333,91.30272979999427,91.30648129999463,91.30648129999463,91.30648129999463,91.30648129999463,91.99209580000024,x,0.6834270999970613,None,,,,,,,,,,KN_th,001,2025-03-11_23h13.45.113,MainFlow,2024.2.4,145.06945200333985,2025-03-11 23h13.54.716325 +0700,
1,3,96,word/wordth0963.png,57,57,0,x,0.8082658000057563,None,0,57,57,57,91.99801739999384,,,,,,,91.99801739999384,91.99801739999384,92.99704610000481,93.00080379999417,93.00080379999417,93.00080379999417,93.00080379999417,93.8105601999996,x,0.8082658000057563,None,,,,,,,,,,KN_th,001,2025-03-11_23h13.45.113,MainFlow,2024.2.4,145.06945200333985,2025-03-11 23h13.54.716325 +0700,
1,2,52,word/wordth0522.png,58,58,0,x,0.4971363999939058,None,0,58,58,58,93.81685859999561,,,,,,,93.81685859999561,93.81685859999561,94.81573669999489,94.81952249999449,94.81952249999449,94.81952249999449,94.81952249999449,95.31749750000017,x,0.4971363999939058,None,,,,,,,,,,KN_th,001,2025-03-11_23h13.45.113,MainFlow,2024.2.4,145.06945200333985,2025-03-11 23h13.54.716325 +0700,
1,3,50,word/wordth0503.png,59,59,0,x,0.6157388999999966,None,0,59,59,59,95.32343619999301,,,,,,,95.32343619999301,95.32343619999301,96.32305179999094,96.32664099999238,96.32664099999238,96.32664099999238,96.32664099999238,96.94326990000263,x,0.6157388999999966,None,,,,,,,,,,KN_th,001,2025-03-11_23h13.45.113,MainFlow,2024.2.4,145.06945200333985,2025-03-11 23h13.54.716325 +0700,
1,3,61,word/wordth0613.png,60,60,0,x,0.4890336000098614,None,0,60,60,60,96.94883039999695,,,,,,,96.94883039999695,96.94883039999695,97.94560049999563,97.94930589999421,97.94930589999421,97.94930589999421,97.94930589999421,98.44417790000443,x,0.4890336000098614,None,,,,,,,,,,KN_th,001,2025-03-11_23h13.45.113,MainFlow,2024.2.4,145.06945200333985,2025-03-11 23h13.54.716325 +0700,
1,2,46,word/wordth0462.png,61,61,0,x,0.6719034999987343,None,0,61,61,61,98.44927830000233,,,,,,,98.44927830000233,98.44927830000233,99.4452256999939,99.44894839999324,99.44894839999324,99.44894839999324,99.44894839999324,100.12215739999374,x,0.6719034999987343,None,,,,,,,,,,KN_th,001,2025-03-11_23h13.45.113,MainFlow,2024.2.4,145.06945200333985,2025-03-11 23h13.54.716325 +0700,
1,1,61,word/wordth0611.png,62,62,0,z,0.4973022999911336,None,0,62,62,62,100.12796859999071,,,,,,,100.12796859999071,100.12796859999071,101.1277517999988,101.13140450000355,101.13140450000355,101.13140450000355,101.13140450000355,101.6354474999971,z,0.4973022999911336,None,,,,,,,,,,KN_th,001,2025-03-11_23h13.45.113,MainFlow,2024.2.4,145.06945200333985,2025-03-11 23h13.54.716325 +0700,
1,1,24,word/wordth0241.png,63,63,0,z,0.5376182000036351,None,0,63,63,63,101.64204199999222,,,,,,,101.64204199999222,101.64204199999222,102.64029979999759,102.64397910000116,102.64397910000116,102.64397910000116,102.64397910000116,103.18655289999151,z,0.5376182000036351,None,,,,,,,,,,KN_th,001,2025-03-11_23h13.45.113,MainFlow,2024.2.4,145.06945200333985,2025-03-11 23h13.54.716325 +0700,
1,2,89,word/wordth0892.png,64,64,0,x,0.4760708999965573,None,0,64,64,64,103.19373089999135,,,,,,,103.19373089999135,103.19373089999135,104.19390040000144,104.19752429999062,104.19752429999062,104.19752429999062,104.19752429999062,104.67623179999646,x,0.4760708999965573,None,,,,,,,,,,KN_th,001,2025-03-11_23h13.45.113,MainFlow,2024.2.4,145.06945200333985,2025-03-11 23h13.54.716325 +0700,
1,1,30,word/wordth0301.png,65,65,0,z,0.427357699998538,None,0,65,65,65,104.68325220000406,,,,,,,104.68325220000406,104.68325220000406,105.68363379999937,105.68740270000126,105.68740270000126,105.68740270000126,105.68740270000126,106.12061189999804,z,0.427357699998538,None,,,,,,,,,,KN_th,001,2025-03-11_23h13.45.113,MainFlow,2024.2.4,145.06945200333985,2025-03-11 23h13.54.716325 +0700,
1,1,93,word/wordth0931.png,66,66,0,z,0.654278299989528,None,0,66,66,66,106.12684369999624,,,,,,,106.12684369999624,106.12684369999624,107.12654189999739,107.13007189999917,107.13007189999917,107.13007189999917,107.13007189999917,107.78714230000332,z,0.654278299989528,None,,,,,,,,,,KN_th,001,2025-03-11_23h13.45.113,MainFlow,2024.2.4,145.06945200333985,2025-03-11 23h13.54.716325 +0700,
1,1,50,word/wordth0501.png,67,67,0,z,0.42812620000040624,None,0,67,67,67,107.79300299999886,,,,,,,107.79300299999886,107.79300299999886,108.79264109999349,108.79637860000366,108.79637860000366,108.79637860000366,108.79637860000366,109.2260488000029,z,0.42812620000040624,None,,,,,,,,,,KN_th,001,2025-03-11_23h13.45.113,MainFlow,2024.2.4,145.06945200333985,2025-03-11 23h13.54.716325 +0700,
1,3,82,word/wordth0823.png,68,68,0,x,0.8420387000078335,None,0,68,68,68,109.23405669999192,,,,,,,109.23405669999192,109.23405669999192,110.22964399999182,110.23345719999634,110.23345719999634,110.23345719999634,110.23345719999634,111.07817739999155,x,0.8420387000078335,None,,,,,,,,,,KN_th,001,2025-03-11_23h13.45.113,MainFlow,2024.2.4,145.06945200333985,2025-03-11 23h13.54.716325 +0700,
1,1,27,word/wordth0271.png,69,69,0,z,0.5385896999941906,None,0,69,69,69,111.08464420000382,,,,,,,111.08464420000382,111.08464420000382,112.08339949999936,112.0871208000026,112.0871208000026,112.0871208000026,112.0871208000026,112.62910429999465,z,0.5385896999941906,None,,,,,,,,,,KN_th,001,2025-03-11_23h13.45.113,MainFlow,2024.2.4,145.06945200333985,2025-03-11 23h13.54.716325 +0700,
1,3,52,word/wordth0523.png,70,70,0,x,0.47282880000420846,None,0,70,70,70,112.63620069999888,,,,,,,112.63620069999888,112.63620069999888,113.63171259999217,113.63560439999856,113.63560439999856,113.63560439999856,113.63560439999856,114.1138432000007,x,0.47282880000420846,None,,,,,,,,,,KN_th,001,2025-03-11_23h13.45.113,MainFlow,2024.2.4,145.06945200333985,2025-03-11 23h13.54.716325 +0700,
1,1,22,word/wordth0221.png,71,71,0,z,0.5537232999922708,None,0,71,71,71,114.12216129999433,,,,,,,114.12216129999433,114.12216129999433,115.1177452999982,115.12159899999097,115.12159899999097,115.12159899999097,115.12159899999097,115.68396280000161,z,0.5537232999922708,None,,,,,,,,,,KN_th,001,2025-03-11_23h13.45.113,MainFlow,2024.2.4,145.06945200333985,2025-03-11 23h13.54.716325 +0700,
1,1,6,word/wordth0061.png,72,72,0,z,0.4463298000046052,None,0,72,72,72,115.6912605999969,,,,,,,115.6912605999969,115.6912605999969,116.69786299999396,116.70187619999342,116.70187619999342,116.70187619999342,116.70187619999342,117.15567880000162,z,0.4463298000046052,None,,,,,,,,,,KN_th,001,2025-03-11_23h13.45.113,MainFlow,2024.2.4,145.06945200333985,2025-03-11 23h13.54.716325 +0700,
1,2,30,word/wordth0302.png,73,73,0,x,0.49573809999856167,None,0,73,73,73,117.16073679999681,,,,,,,117.16073679999681,117.16073679999681,118.17160469999362,118.1754227999918,118.1754227999918,118.1754227999918,118.1754227999918,118.67389160000312,x,0.49573809999856167,None,,,,,,,,,,KN_th,001,2025-03-11_23h13.45.113,MainFlow,2024.2.4,145.06945200333985,2025-03-11 23h13.54.716325 +0700,
1,1,51,word/wordth0511.png,74,74,0,z,0.48209160000260454,None,0,74,74,74,118.67972109999391,,,,,,,118.67972109999391,118.67972109999391,119.67920949999825,119.68320970000059,119.68320970000059,119.68320970000059,119.68320970000059,120.17021539999405,z,0.48209160000260454,None,,,,,,,,,,KN_th,001,2025-03-11_23h13.45.113,MainFlow,2024.2.4,145.06945200333985,2025-03-11 23h13.54.716325 +0700,
1,2,50,word/wordth0502.png,75,75,0,x,0.6858896000048844,None,0,75,75,75,120.17413529999612,,,,,,,120.17413529999612,120.17413529999612,121.18310159999237,121.18691180000314,121.18691180000314,121.18691180000314,121.18691180000314,121.87712380000448,x,0.6858896000048844,None,,,,,,,,,,KN_th,001,2025-03-11_23h13.45.113,MainFlow,2024.2.4,145.06945200333985,2025-03-11 23h13.54.716325 +0700,
1,3,95,word/wordth0953.png,76,76,0,x,0.6784398999880068,None,0,76,76,76,121.88153959999909,,,,,,,121.88153959999909,121.88153959999909,122.8799175000022,122.88368600000103,122.88368600000103,122.88368600000103,122.88368600000103,123.56446290000167,x,0.6784398999880068,None,,,,,,,,,,KN_th,001,2025-03-11_23h13.45.113,MainFlow,2024.2.4,145.06945200333985,2025-03-11 23h13.54.716325 +0700,
1,1,75,word/wordth0751.png,77,77,0,z,0.7562807999929646,None,0,77,77,77,123.57006630000251,,,,,,,123.57006630000251,123.57006630000251,124.56734749999305,124.5710534999962,124.5710534999962,124.5710534999962,124.5710534999962,125.3325310999935,z,0.7562807999929646,None,,,,,,,,,,KN_th,001,2025-03-11_23h13.45.113,MainFlow,2024.2.4,145.06945200333985,2025-03-11 23h13.54.716325 +0700,
1,1,95,word/wordth0951.png,78,78,0,z,0.5454534000018612,None,0,78,78,78,125.33860360000108,,,,,,,125.33860360000108,125.33860360000108,126.33809789999214,126.34171999999671,126.34171999999671,126.34171999999671,126.34171999999671,126.89040449999447,z,0.5454534000018612,None,,,,,,,,,,KN_th,001,2025-03-11_23h13.45.113,MainFlow,2024.2.4,145.06945200333985,2025-03-11 23h13.54.716325 +0700,
1,2,8,word/wordth0082.png,79,79,0,x,0.4860855999868363,None,0,79,79,79,126.89682080000057,,,,,,,126.89682080000057,126.89682080000057,127.89841529999103,127.90203919999476,127.90203919999476,127.90203919999476,127.90203919999476,128.39504950000264,x,0.4860855999868363,None,127.90203919999476,127.90203919999476,,,,,,,,KN_th,001,2025-03-11_23h13.45.113,MainFlow,2024.2.4,145.06945200333985,2025-03-11 23h13.54.716325 +0700,
1,3,75,word/wordth0753.png,80,80,0,x,0.7492501000087941,None,0,80,80,80,128.40221369999927,,,,,,,128.40221369999927,128.40221369999927,129.4183631999913,129.4221905000013,129.4221905000013,129.4221905000013,129.4221905000013,130.17225429999235,x,0.7492501000087941,None,,,,,,,,,,KN_th,001,2025-03-11_23h13.45.113,MainFlow,2024.2.4,145.06945200333985,2025-03-11 23h13.54.716325 +0700,
1,1,28,word/wordth0281.png,81,81,0,z,0.5537850999971852,None,0,81,81,81,130.17831269999442,,,,,,,130.17831269999442,130.17831269999442,131.1759990999999,131.17953300000227,131.17953300000227,131.17953300000227,131.17953300000227,131.7341010999953,z,0.5537850999971852,None,,,,,,,,,,KN_th,001,2025-03-11_23h13.45.113,MainFlow,2024.2.4,145.06945200333985,2025-03-11 23h13.54.716325 +0700,
1,3,42,word/wordth0423.png,82,82,0,z,2.194251399996574,None,0,82,82,82,131.7397908999992,,,,,,,131.7397908999992,131.7397908999992,132.7399366000027,132.7435598000011,132.7435598000011,132.7435598000011,132.7435598000011,134.9434898000036,z,2.194251399996574,None,,,,,,,,,,KN_th,001,2025-03-11_23h13.45.113,MainFlow,2024.2.4,145.06945200333985,2025-03-11 23h13.54.716325 +0700,
1,3,46,word/wordth0463.png,83,83,0,x,0.5627949000045191,None,0,83,83,83,134.95128799999657,,,,,,,134.95128799999657,134.95128799999657,135.94989519999945,135.95367149999947,135.95367149999947,135.95367149999947,135.95367149999947,136.5181608999992,x,0.5627949000045191,None,,,,,,,,,,KN_th,001,2025-03-11_23h13.45.113,MainFlow,2024.2.4,145.06945200333985,2025-03-11 23h13.54.716325 +0700,
1,3,1,word/wordth0013.png,84,84,0,x,0.4830294999992475,None,0,84,84,84,136.5237533000036,,,,,,,136.5237533000036,136.5237533000036,137.52279879999696,137.5265284999914,137.5265284999914,137.5265284999914,137.5265284999914,138.01077280000027,x,0.4830294999992475,None,,,,,,,,,,KN_th,001,2025-03-11_23h13.45.113,MainFlow,2024.2.4,145.06945200333985,2025-03-11 23h13.54.716325 +0700,
1,2,70,word/wordth0702.png,85,85,0,x,0.44820339999569114,None,0,85,85,85,138.01630419999128,,,,,,,138.01630419999128,138.01630419999128,139.01565709999704,139.019444199992,139.019444199992,139.019444199992,139.019444199992,139.46871040000406,x,0.44820339999569114,None,,,,,,,,,,KN_th,001,2025-03-11_23h13.45.113,MainFlow,2024.2.4,145.06945200333985,2025-03-11 23h13.54.716325 +0700,
1,1,7,word/wordth0071.png,86,86,0,z,0.8787245999992592,None,0,86,86,86,139.47508740000194,,,,,,,139.47508740000194,139.47508740000194,140.47114369999326,140.47479680000106,140.47479680000106,140.47479680000106,140.47479680000106,141.35767099999066,z,0.8787245999992592,None,,,,,,,,,,KN_th,001,2025-03-11_23h13.45.113,MainFlow,2024.2.4,145.06945200333985,2025-03-11 23h13.54.716325 +0700,
1,2,7,word/wordth0072.png,87,87,0,x,0.892474599997513,None,0,87,87,87,141.3635096999933,,,,,,,141.3635096999933,141.3635096999933,142.36221300000034,142.3659372999973,142.3659372999973,142.3659372999973,142.3659372999973,143.26019079999242,x,0.892474599997513,None,,,,,,,,,,KN_th,001,2025-03-11_23h13.45.113,MainFlow,2024.2.4,145.06945200333985,2025-03-11 23h13.54.716325 +0700,
1,2,24,word/wordth0242.png,88,88,0,x,0.5153947999933735,None,0,88,88,88,143.26576789999672,,,,,,,143.26576789999672,143.26576789999672,144.26458920000005,144.2684586999967,144.2684586999967,144.2684586999967,144.2684586999967,144.78696519999357,x,0.5153947999933735,None,,,,,,,,,,KN_th,001,2025-03-11_23h13.45.113,MainFlow,2024.2.4,145.06945200333985,2025-03-11 23h13.54.716325 +0700,
1,3,26,word/wordth0263.png,89,89,0,x,0.414337100010016,None,0,89,89,89,144.79268990000128,,,,,,,144.79268990000128,144.79268990000128,145.79265529999975,145.7962344999978,145.7962344999978,145.7962344999978,145.7962344999978,146.2122701999906,x,0.414337100010016,None,,,,,,,,,,KN_th,001,2025-03-11_23h13.45.113,MainFlow,2024.2.4,145.06945200333985,2025-03-11 23h13.54.716325 +0700,
1,2,23,word/wordth0232.png,90,90,0,x,0.33555790000536945,None,0,90,90,90,146.21757480000088,,,,,,,146.21757480000088,146.21757480000088,147.2155447999976,147.21930129999237,147.21930129999237,147.21930129999237,147.21930129999237,147.55726210000284,x,0.33555790000536945,None,,,,,,,,,,KN_th,001,2025-03-11_23h13.45.113,MainFlow,2024.2.4,145.06945200333985,2025-03-11 23h13.54.716325 +0700,
1,2,75,word/wordth0752.png,91,91,0,x,0.41407620000245515,None,0,91,91,91,147.5634890999936,,,,,,,147.5634890999936,147.5634890999936,148.5622938000015,148.56605500000296,148.56605500000296,148.56605500000296,148.56605500000296,148.9875519999914,x,0.41407620000245515,None,,,,,,,,,,KN_th,001,2025-03-11_23h13.45.113,MainFlow,2024.2.4,145.06945200333985,2025-03-11 23h13.54.716325 +0700,
1,2,6,word/wordth0062.png,92,92,0,x,0.38704870000947267,None,0,92,92,92,148.99391969999124,,,,,,,148.99391969999124,148.99391969999124,150.00246029999107,150.00647609999578,150.00647609999578,150.00647609999578,150.00647609999578,150.3969735999999,x,0.38704870000947267,None,,,,,,,,,,KN_th,001,2025-03-11_23h13.45.113,MainFlow,2024.2.4,145.06945200333985,2025-03-11 23h13.54.716325 +0700,
1,2,93,word/wordth0932.png,93,93,0,x,0.41933140000037383,None,0,93,93,93,150.4028779999935,,,,,,,150.4028779999935,150.4028779999935,151.40255519999482,151.40618299999915,151.40618299999915,151.40618299999915,151.40618299999915,151.82837099999597,x,0.41933140000037383,None,,,,,,,,,,KN_th,001,2025-03-11_23h13.45.113,MainFlow,2024.2.4,145.06945200333985,2025-03-11 23h13.54.716325 +0700,
1,2,48,word/wordth0482.png,94,94,0,x,0.37698130001081154,None,0,94,94,94,151.8343093000003,,,,,,,151.8343093000003,151.8343093000003,152.83010120000108,152.8338872000022,152.8338872000022,152.8338872000022,152.8338872000022,153.21607389999554,x,0.37698130001081154,None,,,,,,,,,,KN_th,001,2025-03-11_23h13.45.113,MainFlow,2024.2.4,145.06945200333985,2025-03-11 23h13.54.716325 +0700,
1,1,70,word/wordth0701.png,95,95,0,z,0.47855679999338463,None,0,95,95,95,153.222059599997,,,,,,,153.222059599997,153.222059599997,154.23512169999594,154.2391542999976,154.2391542999976,154.2391542999976,154.2391542999976,154.72245059999113,z,0.47855679999338463,None,,,,,,,,,,KN_th,001,2025-03-11_23h13.45.113,MainFlow,2024.2.4,145.06945200333985,2025-03-11 23h13.54.716325 +0700,
1,2,66,word/wordth0662.png,96,96,0,x,0.4904599000001326,None,0,96,96,96,154.72892819999834,,,,,,,154.72892819999834,154.72892819999834,155.7275124000007,155.7313026000047,155.7313026000047,155.7313026000047,155.7313026000047,156.2228924999945,x,0.4904599000001326,None,,,,,,,,,,KN_th,001,2025-03-11_23h13.45.113,MainFlow,2024.2.4,145.06945200333985,2025-03-11 23h13.54.716325 +0700,
1,1,26,word/wordth0261.png,97,97,0,z,0.7725162999995518,None,0,97,97,97,156.22850640000252,,,,,,,156.22850640000252,156.22850640000252,157.22563329999684,157.2293600999983,157.2293600999983,157.2293600999983,157.2293600999983,158.00636179999856,z,0.7725162999995518,None,,,,,,,,,,KN_th,001,2025-03-11_23h13.45.113,MainFlow,2024.2.4,145.06945200333985,2025-03-11 23h13.54.716325 +0700,
1,3,9,word/wordth0093.png,98,98,0,x,0.5857238000025973,None,0,98,98,98,158.01287809999485,,,,,,,158.01287809999485,158.01287809999485,159.01238829999056,159.01595119999547,159.01595119999547,159.01595119999547,159.01595119999547,159.60383150000416,x,0.5857238000025973,None,,,,,,,,,,KN_th,001,2025-03-11_23h13.45.113,MainFlow,2024.2.4,145.06945200333985,2025-03-11 23h13.54.716325 +0700,
1,2,61,word/wordth0612.png,99,99,0,x,1.2676868999988073,None,0,99,99,99,159.60985320000327,,,,,,,159.60985320000327,159.60985320000327,160.61219020000135,160.61580489999324,160.61580489999324,160.61580489999324,160.61580489999324,161.88778489999822,x,1.2676868999988073,None,,,,,,,,,,KN_th,001,2025-03-11_23h13.45.113,MainFlow,2024.2.4,145.06945200333985,2025-03-11 23h13.54.716325 +0700,
1,3,8,word/wordth0083.png,100,100,0,x,0.5866086000023643,None,0,100,100,100,161.89382899999327,,,,,,,161.89382899999327,161.89382899999327,162.8939895999938,162.89768729999196,162.89768729999196,162.89768729999196,162.89768729999196,163.49186529999133,x,0.5866086000023643,None,,,,,,,,,,KN_th,001,2025-03-11_23h13.45.113,MainFlow,2024.2.4,145.06945200333985,2025-03-11 23h13.54.716325 +0700,
1,1,8,word/wordth0081.png,101,101,0,z,0.9140793999977177,None,0,101,101,101,163.49795199999062,,,,,,,163.49795199999062,163.49795199999062,164.49738820000493,164.50105009999243,164.50105009999243,164.50105009999243,164.50105009999243,165.41822999999567,z,0.9140793999977177,None,,,,,,,,,,KN_th,001,2025-03-11_23h13.45.113,MainFlow,2024.2.4,145.06945200333985,2025-03-11 23h13.54.716325 +0700,
1,2,44,word/wordth0442.png,102,102,0,x,0.4113322000048356,None,0,102,102,102,165.42955739999888,,,,,,,165.42955739999888,165.42955739999888,166.4277216000046,166.4319966000039,166.4319966000039,166.4319966000039,166.4319966000039,166.8453171000001,x,0.4113322000048356,None,,,,,,,,,,KN_th,001,2025-03-11_23h13.45.113,MainFlow,2024.2.4,145.06945200333985,2025-03-11 23h13.54.716325 +0700,
1,3,31,word/wordth0313.png,103,103,0,x,0.4821714999998221,None,0,103,103,103,166.85123859999294,,,,,,,166.85123859999294,166.85123859999294,167.85144499999296,167.85513060000085,167.85513060000085,167.85513060000085,167.85513060000085,168.3394449000043,x,0.4821714999998221,None,,,,,,,,,,KN_th,001,2025-03-11_23h13.45.113,MainFlow,2024.2.4,145.06945200333985,2025-03-11 23h13.54.716325 +0700,
1,1,89,word/wordth0891.png,104,104,0,z,0.49674670000968035,None,0,104,104,104,168.34580090000236,,,,,,,168.34580090000236,168.34580090000236,169.34343189999345,169.34745909999765,169.34745909999765,169.34745909999765,169.34745909999765,169.85115550000046,z,0.49674670000968035,None,,,,,,,,,,KN_th,001,2025-03-11_23h13.45.113,MainFlow,2024.2.4,145.06945200333985,2025-03-11 23h13.54.716325 +0700,
1,3,70,word/wordth0703.png,105,105,0,x,0.7066587999870535,None,0,105,105,105,169.85729410000204,,,,,,,169.85729410000204,169.85729410000204,170.87108919999446,170.8750497000001,170.8750497000001,170.8750497000001,170.8750497000001,171.58730339999602,x,0.7066587999870535,None,,,,,,,,,,KN_th,001,2025-03-11_23h13.45.113,MainFlow,2024.2.4,145.06945200333985,2025-03-11 23h13.54.716325 +0700,
1,3,68,word/wordth0683.png,106,106,0,x,0.8915545000054408,None,0,106,106,106,171.59342489999835,,,,,,,171.59342489999835,171.59342489999835,172.59322650000104,172.5970312999998,172.5970312999998,172.5970312999998,172.5970312999998,173.489694399992,x,0.8915545000054408,None,,,,,,,,,,KN_th,001,2025-03-11_23h13.45.113,MainFlow,2024.2.4,145.06945200333985,2025-03-11 23h13.54.716325 +0700,
1,3,10,word/wordth0103.png,107,107,0,x,0.5579405999887967,None,0,107,107,107,173.49598989999504,,,,,,,173.49598989999504,173.49598989999504,174.49535889999242,174.49900280000293,174.49900280000293,174.49900280000293,174.49900280000293,175.06018099999346,x,0.5579405999887967,None,,,,,,,,,,KN_th,001,2025-03-11_23h13.45.113,MainFlow,2024.2.4,145.06945200333985,2025-03-11 23h13.54.716325 +0700,
1,3,94,word/wordth0943.png,108,108,0,x,0.49476899999717716,None,0,108,108,108,175.06675739999628,,,,,,,175.06675739999628,175.06675739999628,176.06262450000213,176.06649769999785,176.06649769999785,176.06649769999785,176.06649769999785,176.5652923000016,x,0.49476899999717716,None,,,,,,,,,,KN_th,001,2025-03-11_23h13.45.113,MainFlow,2024.2.4,145.06945200333985,2025-03-11 23h13.54.716325 +0700,
1,1,3,word/wordth0031.png,109,109,0,z,0.47443119999661576,None,0,109,109,109,176.57187610000256,,,,,,,176.57187610000256,176.57187610000256,177.5708350999921,177.57484939999995,177.57484939999995,177.57484939999995,177.57484939999995,178.05205840000417,z,0.47443119999661576,None,,,,,,,,,,KN_th,001,2025-03-11_23h13.45.113,MainFlow,2024.2.4,145.06945200333985,2025-03-11 23h13.54.716325 +0700,
1,3,63,word/wordth0633.png,110,110,0,x,0.6579343999910634,None,0,110,110,110,178.0576088999951,,,,,,,178.0576088999951,178.0576088999951,179.06299609999405,179.06682269999874,179.06682269999874,179.06682269999874,179.06682269999874,179.73147640000388,x,0.6579343999910634,None,,,,,,,,,,KN_th,001,2025-03-11_23h13.45.113,MainFlow,2024.2.4,145.06945200333985,2025-03-11 23h13.54.716325 +0700,
1,2,9,word/wordth0092.png,111,111,0,x,0.44180950000009034,None,0,111,111,111,179.73734589999367,,,,,,,179.73734589999367,179.73734589999367,180.7373407999985,180.7410261000041,180.7410261000041,180.7410261000041,180.7410261000041,181.19002189999446,x,0.44180950000009034,None,,,,,,,,,,KN_th,001,2025-03-11_23h13.45.113,MainFlow,2024.2.4,145.06945200333985,2025-03-11 23h13.54.716325 +0700,
1,3,7,word/wordth0073.png,112,112,0,x,0.5177740000071935,None,0,112,112,112,181.19608339999104,,,,,,,181.19608339999104,181.19608339999104,182.1962205000018,182.19996569999785,182.19996569999785,182.19996569999785,182.19996569999785,182.72397009999258,x,0.5177740000071935,None,,,,,,,,,,KN_th,001,2025-03-11_23h13.45.113,MainFlow,2024.2.4,145.06945200333985,2025-03-11 23h13.54.716325 +0700,
1,2,41,word/wordth0412.png,113,113,0,x,0.3649921999895014,None,0,113,113,113,182.72987500000454,,,,,,,182.72987500000454,182.72987500000454,183.72939649999898,183.73313059999782,183.73313059999782,183.73313059999782,183.73313059999782,184.10657059999357,x,0.3649921999895014,None,,,,,,,,,,KN_th,001,2025-03-11_23h13.45.113,MainFlow,2024.2.4,145.06945200333985,2025-03-11 23h13.54.716325 +0700,
1,1,9,word/wordth0091.png,114,114,0,z,0.4682892999990145,None,0,114,114,114,184.11205110000446,,,,,,,184.11205110000446,184.11205110000446,185.11285429999407,185.116898399996,185.116898399996,185.116898399996,185.116898399996,185.5910567999963,z,0.4682892999990145,None,,,,,,,,,,KN_th,001,2025-03-11_23h13.45.113,MainFlow,2024.2.4,145.06945200333985,2025-03-11 23h13.54.716325 +0700,
1,1,94,word/wordth0941.png,115,115,0,z,0.517202000002726,None,0,115,115,115,185.59753289999207,,,,,,,185.59753289999207,185.59753289999207,186.59612800000468,186.59985260000394,186.59985260000394,186.59985260000394,186.59985260000394,187.12078800000018,z,0.517202000002726,None,,,,,,,,,,KN_th,001,2025-03-11_23h13.45.113,MainFlow,2024.2.4,145.06945200333985,2025-03-11 23h13.54.716325 +0700,
1,1,52,word/wordth0521.png,116,116,0,z,0.34613779999199323,None,0,116,116,116,187.12688749999506,,,,,,,187.12688749999506,187.12688749999506,188.12177309999242,188.1253158000036,188.1253158000036,188.1253158000036,188.1253158000036,188.47337340000377,z,0.34613779999199323,None,,,,,,,,,,KN_th,001,2025-03-11_23h13.45.113,MainFlow,2024.2.4,145.06945200333985,2025-03-11 23h13.54.716325 +0700,
1,2,88,word/wordth0882.png,117,117,0,z,0.4217432000004919,None,0,117,117,117,188.4792146999971,,,,,,,188.4792146999971,188.4792146999971,189.4815011000028,189.48512460000347,189.48512460000347,189.48512460000347,189.48512460000347,189.91050769999856,z,0.4217432000004919,None,,,,,,,,,,KN_th,001,2025-03-11_23h13.45.113,MainFlow,2024.2.4,145.06945200333985,2025-03-11 23h13.54.716325 +0700,
1,1,41,word/wordth0411.png,118,118,0,z,0.530082900004345,None,0,118,118,118,189.91612009999517,,,,,,,189.91612009999517,189.91612009999517,190.91676399999415,190.92041900000186,190.92041900000186,190.92041900000186,190.92041900000186,191.45189599999867,z,0.530082900004345,None,,,,,,,,,,KN_th,001,2025-03-11_23h13.45.113,MainFlow,2024.2.4,145.06945200333985,2025-03-11 23h13.54.716325 +0700,
1,3,30,word/wordth0303.png,119,119,0,x,0.6783406000031391,None,0,119,119,119,191.45791149999422,,,,,,,191.45791149999422,191.45791149999422,192.45672560000094,192.4605445999914,192.4605445999914,192.4605445999914,192.4605445999914,193.14568190000136,x,0.6783406000031391,None,,,,,,,,,,KN_th,001,2025-03-11_23h13.45.113,MainFlow,2024.2.4,145.06945200333985,2025-03-11 23h13.54.716325 +0700,
,,,,,,,,,,,,,,,,,,,,,,,,,,,,,,,,,,193.14577899999858,193.15149209999072,193.15149209999072,199.08195189999242,space,5.92699160000484,None,KN_th,001,2025-03-11_23h13.45.113,MainFlow,2024.2.4,145.06945200333985,2025-03-11 23h13.54.716325 +0700,
