lang,stimuli,imageid,worddir,thisN,thisTrialN,thisRepN,key_resp.keys,key_resp.rt,key_resp.duration,trials.thisRepN,trials.thisTrialN,trials.thisN,trials.thisIndex,thisRow.t,notes,tutorial.started,tutorial.stopped,key_instruct.keys,key_instruct.rt,key_instruct.duration,instructblank.started,cross1.started,letterselect.started,imageword.started,text_2.started,cross2.started,key_resp.started,letterselect.stopped,trials.key_resp.keys,trials.key_resp.rt,trials.key_resp.duration,ending.started,text_3.started,ending_key.started,ending.stopped,ending_key.keys,ending_key.rt,ending_key.duration,participant,session,date,expName,psychopyVersion,frameRate,expStart,
,,,,,,,,,,,,,,,,0.002880999934859574,2.025173799949698,space,1.9951378999976441,None,,,,,,,,,,,,,,,,,,,MW_en,001,2025-03-23_17h11.51.134,MainFlow,2024.2.4,143.8648132351866,2025-03-23 17h12.03.067841 +0700,
2,1,66,word/worden0661.png,0,0,0,z,2.601970300078392,None,0,0,0,0,2.0680229000281543,,,,,,,2.0680229000281543,2.0680229000281543,3.058571200002916,3.083130299928598,3.083130299928598,3.083130299928598,3.083130299928598,5.691572799929418,z,2.601970300078392,None,,,,,,,,MW_en,001,2025-03-23_17h11.51.134,MainFlow,2024.2.4,143.8648132351866,2025-03-23 17h12.03.067841 +0700,
2,1,3,word/worden0031.png,1,1,0,z,0.5633636999409646,None,0,1,1,1,5.697335699922405,,,,,,,5.697335699922405,5.697335699922405,6.710245199967176,6.713518499978818,6.713518499978818,6.713518499978818,6.713518499978818,7.2820601999992505,z,0.5633636999409646,None,,,,,,,,MW_en,001,2025-03-23_17h11.51.134,MainFlow,2024.2.4,143.8648132351866,2025-03-23 17h12.03.067841 +0700,
2,2,71,word/worden0712.png,2,2,0,x,0.7173331000376493,None,0,2,2,2,7.287646099925041,,,,,,,7.287646099925041,7.287646099925041,8.303346400032751,8.306851399946027,8.306851399946027,8.306851399946027,8.306851399946027,9.031201799982227,x,0.7173331000376493,None,,,,,,,,MW_en,001,2025-03-23_17h11.51.134,MainFlow,2024.2.4,143.8648132351866,2025-03-23 17h12.03.067841 +0700,
2,3,27,word/worden0273.png,3,3,0,x,0.9349904999835417,None,0,3,3,3,9.036954400013201,,,,,,,9.036954400013201,9.036954400013201,10.048683799919672,10.051945499959402,10.051945499959402,10.051945499959402,10.051945499959402,10.98933719994966,x,0.9349904999835417,None,,,,,,,,MW_en,001,2025-03-23_17h11.51.134,MainFlow,2024.2.4,143.8648132351866,2025-03-23 17h12.03.067841 +0700,
2,3,88,word/worden0883.png,4,4,0,x,0.6417858999921009,None,0,4,4,4,10.99495930003468,,,,,,,10.99495930003468,10.99495930003468,11.993765400024131,11.996801699977368,11.996801699977368,11.996801699977368,11.996801699977368,12.642151199979708,x,0.6417858999921009,None,,,,,,,,MW_en,001,2025-03-23_17h11.51.134,MainFlow,2024.2.4,143.8648132351866,2025-03-23 17h12.03.067841 +0700,
2,1,28,word/worden0281.png,5,5,0,z,0.5903531999792904,None,0,5,5,5,12.647441099979915,,,,,,,12.647441099979915,12.647441099979915,13.641921099973843,13.64493800001219,13.64493800001219,13.64493800001219,13.64493800001219,14.239209400024265,z,0.5903531999792904,None,,,,,,,,MW_en,001,2025-03-23_17h11.51.134,MainFlow,2024.2.4,143.8648132351866,2025-03-23 17h12.03.067841 +0700,
2,1,50,word/worden0501.png,6,6,0,z,1.1746596000157297,None,0,6,6,6,14.244444399955682,,,,,,,14.244444399955682,14.244444399955682,15.261760400026105,15.265033799922094,15.265033799922094,15.265033799922094,15.265033799922094,16.44680919998791,z,1.1746596000157297,None,,,,,,,,MW_en,001,2025-03-23_17h11.51.134,MainFlow,2024.2.4,143.8648132351866,2025-03-23 17h12.03.067841 +0700,
2,1,41,word/worden0411.png,7,7,0,z,0.664328100043349,None,0,7,7,7,16.45225199998822,,,,,,,16.45225199998822,16.45225199998822,17.462806400028057,17.465561299934052,17.465561299934052,17.465561299934052,17.465561299934052,18.135594899998978,z,0.664328100043349,None,,,,,,,,MW_en,001,2025-03-23_17h11.51.134,MainFlow,2024.2.4,143.8648132351866,2025-03-23 17h12.03.067841 +0700,
2,2,52,word/worden0522.png,8,8,0,x,0.7768907999852672,None,0,8,8,8,18.141116800019518,,,,,,,18.141116800019518,18.141116800019518,19.158621600014158,19.16211979999207,19.16211979999207,19.16211979999207,19.16211979999207,19.94617589993868,x,0.7768907999852672,None,,,,,,,,MW_en,001,2025-03-23_17h11.51.134,MainFlow,2024.2.4,143.8648132351866,2025-03-23 17h12.03.067841 +0700,
2,3,6,word/worden0063.png,9,9,0,z,0.8137292999308556,None,0,9,9,9,19.951568100019358,,,,,,,19.951568100019358,19.951568100019358,20.958799900021404,20.962384499958716,20.962384499958716,20.962384499958716,20.962384499958716,21.779531899956055,z,0.8137292999308556,None,,,,,,,,MW_en,001,2025-03-23_17h11.51.134,MainFlow,2024.2.4,143.8648132351866,2025-03-23 17h12.03.067841 +0700,
2,3,46,word/worden0463.png,10,10,0,z,1.9404118000529706,None,0,10,10,10,21.784606999950483,,,,,,,21.784606999950483,21.784606999950483,22.788696800009347,22.791834499919787,22.791834499919787,22.791834499919787,22.791834499919787,24.738285599974915,z,1.9404118000529706,None,,,,,,,,MW_en,001,2025-03-23_17h11.51.134,MainFlow,2024.2.4,143.8648132351866,2025-03-23 17h12.03.067841 +0700,
2,2,30,word/worden0302.png,11,11,0,x,0.7443732999963686,None,0,11,11,11,24.742656899965368,,,,,,,24.742656899965368,24.742656899965368,25.75513669999782,25.75913879997097,25.75913879997097,25.75913879997097,25.75913879997097,26.50850629992783,x,0.7443732999963686,None,,,,,,,,MW_en,001,2025-03-23_17h11.51.134,MainFlow,2024.2.4,143.8648132351866,2025-03-23 17h12.03.067841 +0700,
2,2,46,word/worden0462.png,12,12,0,x,0.6788699000608176,None,0,12,12,12,26.513530500000343,,,,,,,26.513530500000343,26.513530500000343,27.534914399962872,27.537999099935405,27.537999099935405,27.537999099935405,27.537999099935405,28.222378499922343,x,0.6788699000608176,None,,,,,,,,MW_en,001,2025-03-23_17h11.51.134,MainFlow,2024.2.4,143.8648132351866,2025-03-23 17h12.03.067841 +0700,
2,2,70,word/worden0702.png,13,13,0,x,0.7147823000559583,None,0,13,13,13,28.227742900024168,,,,,,,28.227742900024168,28.227742900024168,29.24758440000005,29.250723199918866,29.250723199918866,29.250723199918866,29.250723199918866,29.97285209991969,x,0.7147823000559583,None,,,,,,,,MW_en,001,2025-03-23_17h11.51.134,MainFlow,2024.2.4,143.8648132351866,2025-03-23 17h12.03.067841 +0700,
2,1,70,word/worden0701.png,14,14,0,z,1.0931836999952793,None,0,14,14,14,29.97735699999612,,,,,,,29.97735699999612,29.97735699999612,30.977477099979296,30.980471199960448,30.980471199960448,30.980471199960448,30.980471199960448,32.07651209994219,z,1.0931836999952793,None,,,,,,,,MW_en,001,2025-03-23_17h11.51.134,MainFlow,2024.2.4,143.8648132351866,2025-03-23 17h12.03.067841 +0700,
2,1,8,word/worden0081.png,15,15,0,z,0.8305020000552759,None,0,15,15,15,32.08123529993463,,,,,,,32.08123529993463,32.08123529993463,33.07739320001565,33.080198299954645,33.080198299954645,33.080198299954645,33.080198299954645,33.915747500024736,z,0.8305020000552759,None,,,,,,,,MW_en,001,2025-03-23_17h11.51.134,MainFlow,2024.2.4,143.8648132351866,2025-03-23 17h12.03.067841 +0700,
2,3,61,word/worden0613.png,16,16,0,x,1.1940805999329314,None,0,16,16,16,33.9211220999714,,,,,,,33.9211220999714,33.9211220999714,34.922827500035055,34.92576419992838,34.92576419992838,34.92576419992838,34.92576419992838,36.12485309992917,x,1.1940805999329314,None,,,,,,,,MW_en,001,2025-03-23_17h11.51.134,MainFlow,2024.2.4,143.8648132351866,2025-03-23 17h12.03.067841 +0700,
2,3,10,word/worden0103.png,17,17,0,x,0.8543094999622554,None,0,17,17,17,36.129476099973544,,,,,,,36.129476099973544,36.129476099973544,37.13711809995584,37.14050799992401,37.14050799992401,37.14050799992401,37.14050799992401,37.999586799996905,x,0.8543094999622554,None,,,,,,,,MW_en,001,2025-03-23_17h11.51.134,MainFlow,2024.2.4,143.8648132351866,2025-03-23 17h12.03.067841 +0700,
2,3,75,word/worden0753.png,18,18,0,x,0.6498340999241918,None,0,18,18,18,38.00437600002624,,,,,,,38.00437600002624,38.00437600002624,39.004618200007826,39.00792270002421,39.00792270002421,39.00792270002421,39.00792270002421,39.666073499945924,x,0.6498340999241918,None,,,,,,,,MW_en,001,2025-03-23_17h11.51.134,MainFlow,2024.2.4,143.8648132351866,2025-03-23 17h12.03.067841 +0700,
2,2,63,word/worden0632.png,19,19,0,x,0.5460551999276504,None,0,19,19,19,39.67006099992432,,,,,,,39.67006099992432,39.67006099992432,40.67629219999071,40.67958739993628,40.67958739993628,40.67958739993628,40.67958739993628,41.22716549993493,x,0.5460551999276504,None,,,,,,,,MW_en,001,2025-03-23_17h11.51.134,MainFlow,2024.2.4,143.8648132351866,2025-03-23 17h12.03.067841 +0700,
2,3,11,word/worden0113.png,20,20,0,x,0.643011000007391,None,0,20,20,20,41.232202299986966,,,,,,,41.232202299986966,41.232202299986966,42.24337679997552,42.247156900004484,42.247156900004484,42.247156900004484,42.247156900004484,42.89359649992548,x,0.643011000007391,None,,,,,,,,MW_en,001,2025-03-23_17h11.51.134,MainFlow,2024.2.4,143.8648132351866,2025-03-23 17h12.03.067841 +0700,
2,2,89,word/worden0892.png,21,21,0,x,0.5381707999622449,None,0,21,21,21,42.89867169992067,,,,,,,42.89867169992067,42.89867169992067,43.91447690001223,43.91778609994799,43.91778609994799,43.91778609994799,43.91778609994799,44.462463599978946,x,0.5381707999622449,None,,,,,,,,MW_en,001,2025-03-23_17h11.51.134,MainFlow,2024.2.4,143.8648132351866,2025-03-23 17h12.03.067841 +0700,
2,1,9,word/worden0091.png,22,22,0,z,0.723994700005278,None,0,22,22,22,44.46769389999099,,,,,,,44.46769389999099,44.46769389999099,45.465562199940905,45.468333299970254,45.468333299970254,45.468333299970254,45.468333299970254,46.19835670001339,z,0.723994700005278,None,,,,,,,,MW_en,001,2025-03-23_17h11.51.134,MainFlow,2024.2.4,143.8648132351866,2025-03-23 17h12.03.067841 +0700,
2,3,28,word/worden0283.png,23,23,0,x,0.8016885999822989,None,0,23,23,23,46.203530599945225,,,,,,,46.203530599945225,46.203530599945225,47.21287659998052,47.21578289999161,47.21578289999161,47.21578289999161,47.21578289999161,48.0243331999518,x,0.8016885999822989,None,,,,,,,,MW_en,001,2025-03-23_17h11.51.134,MainFlow,2024.2.4,143.8648132351866,2025-03-23 17h12.03.067841 +0700,
2,1,82,word/worden0821.png,24,24,0,z,0.7838968000141904,None,0,24,24,24,48.029471099958755,,,,,,,48.029471099958755,48.029471099958755,49.04138579999562,49.044704400002956,49.044704400002956,49.044704400002956,49.044704400002956,49.82976490003057,z,0.7838968000141904,None,,,,,,,,MW_en,001,2025-03-23_17h11.51.134,MainFlow,2024.2.4,143.8648132351866,2025-03-23 17h12.03.067841 +0700,
2,2,28,word/worden0282.png,25,25,0,x,0.8211809999775141,None,0,25,25,25,49.8347211999353,,,,,,,49.8347211999353,49.8347211999353,50.842043999931775,50.845432800007984,50.845432800007984,50.845432800007984,50.845432800007984,51.66874460002873,x,0.8211809999775141,None,,,,,,,,MW_en,001,2025-03-23_17h11.51.134,MainFlow,2024.2.4,143.8648132351866,2025-03-23 17h12.03.067841 +0700,
2,1,23,word/worden0231.png,26,26,0,z,0.6871205000206828,None,0,26,26,26,51.67452749994118,,,,,,,51.67452749994118,51.67452749994118,52.68107869999949,52.68398939992767,52.68398939992767,52.68398939992767,52.68398939992767,53.37751279992517,z,0.6871205000206828,None,,,,,,,,MW_en,001,2025-03-23_17h11.51.134,MainFlow,2024.2.4,143.8648132351866,2025-03-23 17h12.03.067841 +0700,
2,2,42,word/worden0422.png,27,27,0,x,0.6823970000259578,None,0,27,27,27,53.38262469996698,,,,,,,53.38262469996698,53.38262469996698,54.39495719992556,54.398215399938636,54.398215399938636,54.398215399938636,54.398215399938636,55.08629010000732,x,0.6823970000259578,None,,,,,,,,MW_en,001,2025-03-23_17h11.51.134,MainFlow,2024.2.4,143.8648132351866,2025-03-23 17h12.03.067841 +0700,
2,2,93,word/worden0932.png,28,28,0,x,0.7216790999518707,None,0,28,28,28,55.090753600001335,,,,,,,55.090753600001335,55.090753600001335,56.091512899962254,56.09425610001199,56.09425610001199,56.09425610001199,56.09425610001199,56.82128519995604,x,0.7216790999518707,None,,,,,,,,MW_en,001,2025-03-23_17h11.51.134,MainFlow,2024.2.4,143.8648132351866,2025-03-23 17h12.03.067841 +0700,
2,1,88,word/worden0881.png,29,29,0,x,0.6175596000393853,None,0,29,29,29,56.82646389992442,,,,,,,56.82646389992442,56.82646389992442,57.843669199966826,57.847007900010794,57.847007900010794,57.847007900010794,57.847007900010794,58.46806139999535,x,0.6175596000393853,None,,,,,,,,MW_en,001,2025-03-23_17h11.51.134,MainFlow,2024.2.4,143.8648132351866,2025-03-23 17h12.03.067841 +0700,
2,3,31,word/worden0313.png,30,30,0,x,0.7289811999071389,None,0,30,30,30,58.47319859999698,,,,,,,58.47319859999698,58.47319859999698,59.467839999939315,59.47089490003418,59.47089490003418,59.47089490003418,59.47089490003418,60.202735999948345,x,0.7289811999071389,None,,,,,,,,MW_en,001,2025-03-23_17h11.51.134,MainFlow,2024.2.4,143.8648132351866,2025-03-23 17h12.03.067841 +0700,
2,2,75,word/worden0752.png,31,31,0,x,0.4606342000188306,None,0,31,31,31,60.2076896999497,,,,,,,60.2076896999497,60.2076896999497,61.22480770002585,61.228206699946895,61.228206699946895,61.228206699946895,61.228206699946895,61.69500780000817,x,0.4606342000188306,None,,,,,,,,MW_en,001,2025-03-23_17h11.51.134,MainFlow,2024.2.4,143.8648132351866,2025-03-23 17h12.03.067841 +0700,
2,2,48,word/worden0482.png,32,32,0,x,0.4738878000061959,None,0,32,32,32,61.70042799995281,,,,,,,61.70042799995281,61.70042799995281,62.717608099919744,62.72094369994011,62.72094369994011,62.72094369994011,62.72094369994011,63.202070600003935,x,0.4738878000061959,None,,,,,,,,MW_en,001,2025-03-23_17h11.51.134,MainFlow,2024.2.4,143.8648132351866,2025-03-23 17h12.03.067841 +0700,
2,1,26,word/worden0261.png,33,33,0,x,0.421449700021185,None,0,33,33,33,63.207186199957505,,,,,,,63.207186199957505,63.207186199957505,64.19983649998903,64.20260039996356,64.20260039996356,64.20260039996356,64.20260039996356,64.6255347999977,x,0.421449700021185,None,,,,,,,,MW_en,001,2025-03-23_17h11.51.134,MainFlow,2024.2.4,143.8648132351866,2025-03-23 17h12.03.067841 +0700,
2,2,41,word/worden0412.png,34,34,0,x,1.2923163999803364,None,0,34,34,34,64.63046130002476,,,,,,,64.63046130002476,64.63046130002476,65.64404549996834,65.64747189998161,65.64747189998161,65.64747189998161,65.64747189998161,66.94433979992755,x,1.2923163999803364,None,,,,,,,,MW_en,001,2025-03-23_17h11.51.134,MainFlow,2024.2.4,143.8648132351866,2025-03-23 17h12.03.067841 +0700,
2,3,66,word/worden0663.png,35,35,0,x,1.006390199996531,None,0,35,35,35,66.94951980002224,,,,,,,66.94951980002224,66.94951980002224,67.96847379999235,67.97206369997002,67.97206369997002,67.97206369997002,67.97206369997002,68.98640059994068,x,1.006390199996531,None,,,,,,,,MW_en,001,2025-03-23_17h11.51.134,MainFlow,2024.2.4,143.8648132351866,2025-03-23 17h12.03.067841 +0700,
2,1,6,word/worden0061.png,36,36,0,z,0.9187700999900699,None,0,36,36,36,68.99077529995702,,,,,,,68.99077529995702,68.99077529995702,70.00418079993688,70.00748629996087,70.00748629996087,70.00748629996087,70.00748629996087,70.93005919991992,z,0.9187700999900699,None,,,,,,,,MW_en,001,2025-03-23_17h11.51.134,MainFlow,2024.2.4,143.8648132351866,2025-03-23 17h12.03.067841 +0700,
2,1,42,word/worden0421.png,37,37,0,z,1.1181077000219375,None,0,37,37,37,70.93487360002473,,,,,,,70.93487360002473,70.93487360002473,71.93928950000554,71.94246199994814,71.94246199994814,71.94246199994814,71.94246199994814,73.06788500002585,z,1.1181077000219375,None,,,,,,,,MW_en,001,2025-03-23_17h11.51.134,MainFlow,2024.2.4,143.8648132351866,2025-03-23 17h12.03.067841 +0700,
2,3,41,word/worden0413.png,38,38,0,x,0.8212631000205874,None,0,38,38,38,73.07322629995178,,,,,,,73.07322629995178,73.07322629995178,74.06552079995163,74.06829129997641,74.06829129997641,74.06829129997641,74.06829129997641,74.89585650002118,x,0.8212631000205874,None,,,,,,,,MW_en,001,2025-03-23_17h11.51.134,MainFlow,2024.2.4,143.8648132351866,2025-03-23 17h12.03.067841 +0700,
2,2,23,word/worden0232.png,39,39,0,x,0.8749187000794336,None,0,39,39,39,74.90161800000351,,,,,,,74.90161800000351,74.90161800000351,75.89563349995296,75.89867359993514,75.89867359993514,75.89867359993514,75.89867359993514,76.77655459998641,x,0.8749187000794336,None,,,,,,,,MW_en,001,2025-03-23_17h11.51.134,MainFlow,2024.2.4,143.8648132351866,2025-03-23 17h12.03.067841 +0700,
2,3,96,word/worden0963.png,40,40,0,x,1.1115121999755502,None,0,40,40,40,76.7809328000294,,,,,,,76.7809328000294,76.7809328000294,77.77822019997984,77.78144459996838,77.78144459996838,77.78144459996838,77.78144459996838,78.89394540002104,x,1.1115121999755502,None,,,,,,,,MW_en,001,2025-03-23_17h11.51.134,MainFlow,2024.2.4,143.8648132351866,2025-03-23 17h12.03.067841 +0700,
2,1,61,word/worden0611.png,41,41,0,z,0.9913676000433043,None,0,41,41,41,78.89903610001784,,,,,,,78.89903610001784,78.89903610001784,79.90228179993574,79.90511479997076,79.90511479997076,79.90511479997076,79.90511479997076,80.89924119994976,z,0.9913676000433043,None,,,,,,,,MW_en,001,2025-03-23_17h11.51.134,MainFlow,2024.2.4,143.8648132351866,2025-03-23 17h12.03.067841 +0700,
2,3,9,word/worden0093.png,42,42,0,z,1.4113483999390155,None,0,42,42,42,80.90502790000755,,,,,,,80.90502790000755,80.90502790000755,81.90290460002143,81.90572699997574,81.90572699997574,81.90572699997574,81.90572699997574,83.32320250000339,z,1.4113483999390155,None,,,,,,,,MW_en,001,2025-03-23_17h11.51.134,MainFlow,2024.2.4,143.8648132351866,2025-03-23 17h12.03.067841 +0700,
2,3,63,word/worden0633.png,43,43,0,x,0.9372972999699414,None,0,43,43,43,83.32834280002862,,,,,,,83.32834280002862,83.32834280002862,84.33172309992369,84.33451640000567,84.33451640000567,84.33451640000567,84.33451640000567,85.27380720002111,x,0.9372972999699414,None,,,,,,,,MW_en,001,2025-03-23_17h11.51.134,MainFlow,2024.2.4,143.8648132351866,2025-03-23 17h12.03.067841 +0700,
2,3,50,word/worden0503.png,44,44,0,x,0.8959168000146747,None,0,44,44,44,85.27918750001118,,,,,,,85.27918750001118,85.27918750001118,86.28102709993254,86.28391210001428,86.28391210001428,86.28391210001428,86.28391210001428,87.18406489992049,x,0.8959168000146747,None,,,,,,,,MW_en,001,2025-03-23_17h11.51.134,MainFlow,2024.2.4,143.8648132351866,2025-03-23 17h12.03.067841 +0700,
2,2,27,word/worden0272.png,45,45,0,x,0.8425166999222711,None,0,45,45,45,87.18865969998296,,,,,,,87.18865969998296,87.18865969998296,88.18661009997595,88.18936780001968,88.18936780001968,88.18936780001968,88.18936780001968,89.03767999995034,x,0.8425166999222711,None,,,,,,,,MW_en,001,2025-03-23_17h11.51.134,MainFlow,2024.2.4,143.8648132351866,2025-03-23 17h12.03.067841 +0700,
2,2,61,word/worden0612.png,46,46,0,x,0.7662191999843344,None,0,46,46,46,89.0423693000339,,,,,,,89.0423693000339,89.0423693000339,90.05808779993095,90.06170630000997,90.06170630000997,90.06170630000997,90.06170630000997,90.82917589996941,x,0.7662191999843344,None,,,,,,,,MW_en,001,2025-03-23_17h11.51.134,MainFlow,2024.2.4,143.8648132351866,2025-03-23 17h12.03.067841 +0700,
2,3,7,word/worden0073.png,47,47,0,x,0.8837785000214353,None,0,47,47,47,90.83379599999171,,,,,,,90.83379599999171,90.83379599999171,91.83194870001171,91.83493809995707,91.83493809995707,91.83493809995707,91.83493809995707,92.72413310001139,x,0.8837785000214353,None,,,,,,,,MW_en,001,2025-03-23_17h11.51.134,MainFlow,2024.2.4,143.8648132351866,2025-03-23 17h12.03.067841 +0700,
2,3,23,word/worden0233.png,48,48,0,x,0.5380881000310183,None,0,48,48,48,92.72920129995327,,,,,,,92.72920129995327,92.72920129995327,93.74909689999186,93.75287790002767,93.75287790002767,93.75287790002767,93.75287790002767,94.29318689997308,x,0.5380881000310183,None,,,,,,,,MW_en,001,2025-03-23_17h11.51.134,MainFlow,2024.2.4,143.8648132351866,2025-03-23 17h12.03.067841 +0700,
2,1,95,word/worden0951.png,49,49,0,z,1.2935674000764266,None,0,49,49,49,94.29830879997462,,,,,,,94.29830879997462,94.29830879997462,95.30128629994579,95.30428209993988,95.30428209993988,95.30428209993988,95.30428209993988,96.6049914000323,z,1.2935674000764266,None,,,,,,,,MW_en,001,2025-03-23_17h11.51.134,MainFlow,2024.2.4,143.8648132351866,2025-03-23 17h12.03.067841 +0700,
2,3,42,word/worden0423.png,50,50,0,x,0.618763699894771,None,0,50,50,50,96.61037220002618,,,,,,,96.61037220002618,96.61037220002618,97.61091099993791,97.61370819993317,97.61370819993317,97.61370819993317,97.61370819993317,98.23697099997662,x,0.618763699894771,None,,,,,,,,MW_en,001,2025-03-23_17h11.51.134,MainFlow,2024.2.4,143.8648132351866,2025-03-23 17h12.03.067841 +0700,
2,1,30,word/worden0301.png,51,51,0,z,0.9078153999289498,None,0,51,51,51,98.24202509992756,,,,,,,98.24202509992756,98.24202509992756,99.23853580001742,99.24160940002184,99.24160940002184,99.24160940002184,99.24160940002184,100.15391999995336,z,0.9078153999289498,None,,,,,,,,MW_en,001,2025-03-23_17h11.51.134,MainFlow,2024.2.4,143.8648132351866,2025-03-23 17h12.03.067841 +0700,
2,3,87,word/worden0873.png,52,52,0,x,0.6948426000308245,None,0,52,52,52,100.15861919999588,,,,,,,100.15861919999588,100.15861919999588,101.16213249997236,101.16497679997701,101.16497679997701,101.16497679997701,101.16497679997701,101.86253179993946,x,0.6948426000308245,None,,,,,,,,MW_en,001,2025-03-23_17h11.51.134,MainFlow,2024.2.4,143.8648132351866,2025-03-23 17h12.03.067841 +0700,
2,2,6,word/worden0062.png,53,53,0,x,0.5574053999735042,None,0,53,53,53,101.86808009992819,,,,,,,101.86808009992819,101.86808009992819,102.8639943000162,102.86684869998135,102.86684869998135,102.86684869998135,102.86684869998135,103.431070099934,x,0.5574053999735042,None,,,,,,,,MW_en,001,2025-03-23_17h11.51.134,MainFlow,2024.2.4,143.8648132351866,2025-03-23 17h12.03.067841 +0700,
2,2,68,word/worden0682.png,54,54,0,x,0.5799476000247523,None,0,54,54,54,103.43553070002235,,,,,,,103.43553070002235,103.43553070002235,104.43597099999897,104.43900000001304,104.43900000001304,104.43900000001304,104.43900000001304,105.02094019996002,x,0.5799476000247523,None,,,,,,,,MW_en,001,2025-03-23_17h11.51.134,MainFlow,2024.2.4,143.8648132351866,2025-03-23 17h12.03.067841 +0700,
2,3,1,word/worden0013.png,55,55,0,x,0.5399725999450311,None,0,55,55,55,105.02548029995523,,,,,,,105.02548029995523,105.02548029995523,106.0431760000065,106.04680659994483,106.04680659994483,106.04680659994483,106.04680659994483,106.59033629996702,x,0.5399725999450311,None,,,,,,,,MW_en,001,2025-03-23_17h11.51.134,MainFlow,2024.2.4,143.8648132351866,2025-03-23 17h12.03.067841 +0700,
2,2,94,word/worden0942.png,56,56,0,x,0.6041825000429526,None,0,56,56,56,106.59576159995049,,,,,,,106.59576159995049,106.59576159995049,107.59622649999801,107.59912499994971,107.59912499994971,107.59912499994971,107.59912499994971,108.2075293000089,x,0.6041825000429526,None,,,,,,,,MW_en,001,2025-03-23_17h11.51.134,MainFlow,2024.2.4,143.8648132351866,2025-03-23 17h12.03.067841 +0700,
2,3,82,word/worden0823.png,57,57,0,x,0.5805622999323532,None,0,57,57,57,108.21239649993367,,,,,,,108.21239649993367,108.21239649993367,109.21476879995316,109.21749780001119,109.21749780001119,109.21749780001119,109.21749780001119,109.80407489999197,x,0.5805622999323532,None,,,,,,,,MW_en,001,2025-03-23_17h11.51.134,MainFlow,2024.2.4,143.8648132351866,2025-03-23 17h12.03.067841 +0700,
2,1,89,word/worden0891.png,58,58,0,z,1.2332338000414893,None,0,58,58,58,109.80920409993269,,,,,,,109.80920409993269,109.80920409993269,110.8101456000004,110.81289930001367,110.81289930001367,110.81289930001367,110.81289930001367,112.0533892000094,z,1.2332338000414893,None,,,,,,,,MW_en,001,2025-03-23_17h11.51.134,MainFlow,2024.2.4,143.8648132351866,2025-03-23 17h12.03.067841 +0700,
2,1,31,word/worden0311.png,59,59,0,z,0.7689916000235826,None,0,59,59,59,112.05877090001013,,,,,,,112.05877090001013,112.05877090001013,113.05749609996565,113.06028460001107,113.06028460001107,113.06028460001107,113.06028460001107,113.83104399999138,z,0.7689916000235826,None,,,,,,,,MW_en,001,2025-03-23_17h11.51.134,MainFlow,2024.2.4,143.8648132351866,2025-03-23 17h12.03.067841 +0700,
2,2,51,word/worden0512.png,60,60,0,x,0.6081976999994367,None,0,60,60,60,113.83620399993379,,,,,,,113.83620399993379,113.83620399993379,114.8500760999741,114.85366949997842,114.85366949997842,114.85366949997842,114.85366949997842,115.46917629998643,x,0.6081976999994367,None,,,,,,,,MW_en,001,2025-03-23_17h11.51.134,MainFlow,2024.2.4,143.8648132351866,2025-03-23 17h12.03.067841 +0700,
2,3,44,word/worden0443.png,61,61,0,x,1.1929529999615625,None,0,61,61,61,115.47478899999987,,,,,,,115.47478899999987,115.47478899999987,116.47222360002343,116.47504950000439,116.47504950000439,116.47504950000439,116.47504950000439,117.6706718999194,x,1.1929529999615625,None,,,,,,,,MW_en,001,2025-03-23_17h11.51.134,MainFlow,2024.2.4,143.8648132351866,2025-03-23 17h12.03.067841 +0700,
2,1,1,word/worden0011.png,62,62,0,z,0.6454669999657199,None,0,62,62,62,117.67572800000198,,,,,,,117.67572800000198,117.67572800000198,118.68965229997411,118.69308779994026,118.69308779994026,118.69308779994026,118.69308779994026,119.34366779995617,z,0.6454669999657199,None,,,,,,,,MW_en,001,2025-03-23_17h11.51.134,MainFlow,2024.2.4,143.8648132351866,2025-03-23 17h12.03.067841 +0700,
2,1,96,word/worden0961.png,63,63,0,z,0.9099077000282705,None,0,63,63,63,119.34906179993413,,,,,,,119.34906179993413,119.34906179993413,120.35271809995174,120.35550750000402,120.35550750000402,120.35550750000402,120.35550750000402,121.26695960003417,z,0.9099077000282705,None,,,,,,,,MW_en,001,2025-03-23_17h11.51.134,MainFlow,2024.2.4,143.8648132351866,2025-03-23 17h12.03.067841 +0700,
2,1,11,word/worden0111.png,64,64,0,z,0.6278081999626011,None,0,64,64,64,121.27220759994816,,,,,,,121.27220759994816,121.27220759994816,122.27037919999566,122.27322889992502,122.27322889992502,122.27322889992502,122.27322889992502,122.90566049993504,z,0.6278081999626011,None,,,,,,,,MW_en,001,2025-03-23_17h11.51.134,MainFlow,2024.2.4,143.8648132351866,2025-03-23 17h12.03.067841 +0700,
2,3,70,word/worden0703.png,65,65,0,x,2.1583099000854418,None,0,65,65,65,122.91085679992102,,,,,,,122.91085679992102,122.91085679992102,123.93254740000702,123.93615460000001,123.93615460000001,123.93615460000001,123.93615460000001,126.10082910000347,x,2.1583099000854418,None,,,,,,,,MW_en,001,2025-03-23_17h11.51.134,MainFlow,2024.2.4,143.8648132351866,2025-03-23 17h12.03.067841 +0700,
2,3,71,word/worden0713.png,66,66,0,x,1.0162207999965176,None,0,66,66,66,126.10654369997792,,,,,,,126.10654369997792,126.10654369997792,127.10096569999587,127.10386549995746,127.10386549995746,127.10386549995746,127.10386549995746,128.12711759994272,x,1.0162207999965176,None,,,,,,,,MW_en,001,2025-03-23_17h11.51.134,MainFlow,2024.2.4,143.8648132351866,2025-03-23 17h12.03.067841 +0700,
2,1,68,word/worden0681.png,67,67,0,z,0.9596367999911308,None,0,67,67,67,128.13202040002216,,,,,,,128.13202040002216,128.13202040002216,129.13310859992635,129.1361060999334,129.1361060999334,129.1361060999334,129.1361060999334,130.0981438999297,z,0.9596367999911308,None,,,,,,,,MW_en,001,2025-03-23_17h11.51.134,MainFlow,2024.2.4,143.8648132351866,2025-03-23 17h12.03.067841 +0700,
2,2,88,word/worden0882.png,68,68,0,x,0.9953280000481755,None,0,68,68,68,130.10378100001253,,,,,,,130.10378100001253,130.10378100001253,131.10615609993692,131.10912619996816,131.10912619996816,131.10912619996816,131.10912619996816,132.10581350000575,x,0.9953280000481755,None,,,,,,,,MW_en,001,2025-03-23_17h11.51.134,MainFlow,2024.2.4,143.8648132351866,2025-03-23 17h12.03.067841 +0700,
2,2,50,word/worden0502.png,69,69,0,x,1.350072499946691,None,0,69,69,69,132.1106129999971,,,,,,,132.1106129999971,132.1106129999971,133.11124829994515,133.11404439993203,133.11404439993203,133.11404439993203,133.11404439993203,134.46608079993166,x,1.350072499946691,None,,,,,,,,MW_en,001,2025-03-23_17h11.51.134,MainFlow,2024.2.4,143.8648132351866,2025-03-23 17h12.03.067841 +0700,
2,3,93,word/worden0933.png,70,70,0,x,0.7641205000691116,None,0,70,70,70,134.4711025999859,,,,,,,134.4711025999859,134.4711025999859,135.4762493999442,135.47924799995963,135.47924799995963,135.47924799995963,135.47924799995963,136.25028389994986,x,0.7641205000691116,None,,,,,,,,MW_en,001,2025-03-23_17h11.51.134,MainFlow,2024.2.4,143.8648132351866,2025-03-23 17h12.03.067841 +0700,
2,1,63,word/worden0631.png,71,71,0,z,0.6831207999493927,None,0,71,71,71,136.25543110002764,,,,,,,136.25543110002764,136.25543110002764,137.26093729992863,137.2637311000144,137.2637311000144,137.2637311000144,137.2637311000144,137.95262510003522,z,0.6831207999493927,None,,,,,,,,MW_en,001,2025-03-23_17h11.51.134,MainFlow,2024.2.4,143.8648132351866,2025-03-23 17h12.03.067841 +0700,
2,2,7,word/worden0072.png,72,72,0,x,0.8163239000132307,None,0,72,72,72,137.9580962000182,,,,,,,137.9580962000182,137.9580962000182,138.9638633999275,138.96766199998092,138.96766199998092,138.96766199998092,138.96766199998092,139.7912648000056,x,0.8163239000132307,None,,,,,,,,MW_en,001,2025-03-23_17h11.51.134,MainFlow,2024.2.4,143.8648132351866,2025-03-23 17h12.03.067841 +0700,
2,2,64,word/worden0642.png,73,73,0,x,0.6960432999767363,None,0,73,73,73,139.7965389000019,,,,,,,139.7965389000019,139.7965389000019,140.78941139997914,140.79231149994303,140.79231149994303,140.79231149994303,140.79231149994303,141.4936769999331,x,0.6960432999767363,None,,,,,,,,MW_en,001,2025-03-23_17h11.51.134,MainFlow,2024.2.4,143.8648132351866,2025-03-23 17h12.03.067841 +0700,
2,1,24,word/worden0241.png,74,74,0,z,0.771680900012143,None,0,74,74,74,141.49863049993291,,,,,,,141.49863049993291,141.49863049993291,142.4949987999862,142.497815300012,142.497815300012,142.497815300012,142.497815300012,143.27615139994305,z,0.771680900012143,None,,,,,,,,MW_en,001,2025-03-23_17h11.51.134,MainFlow,2024.2.4,143.8648132351866,2025-03-23 17h12.03.067841 +0700,
2,2,1,word/worden0012.png,75,75,0,x,0.7182125999825075,None,0,75,75,75,143.28186250000726,,,,,,,143.28186250000726,143.28186250000726,144.27775539993308,144.28067519993056,144.28067519993056,144.28067519993056,144.28067519993056,145.00532050000038,x,0.7182125999825075,None,,,,,,,,MW_en,001,2025-03-23_17h11.51.134,MainFlow,2024.2.4,143.8648132351866,2025-03-23 17h12.03.067841 +0700,
2,1,46,word/worden0461.png,76,76,0,z,0.7199180999305099,None,0,76,76,76,145.01068129995838,,,,,,,145.01068129995838,145.01068129995838,146.0126350999344,146.01543060003314,146.01543060003314,146.01543060003314,146.01543060003314,146.7428033000324,z,0.7199180999305099,None,,,,,,,,MW_en,001,2025-03-23_17h11.51.134,MainFlow,2024.2.4,143.8648132351866,2025-03-23 17h12.03.067841 +0700,
2,3,52,word/worden0523.png,77,77,0,x,1.2836770000867546,None,0,77,77,77,146.74742599995807,,,,,,,146.74742599995807,146.74742599995807,147.75037369993515,147.75347739993595,147.75347739993595,147.75347739993595,147.75347739993595,149.03939920000266,x,1.2836770000867546,None,,,,,,,,MW_en,001,2025-03-23_17h11.51.134,MainFlow,2024.2.4,143.8648132351866,2025-03-23 17h12.03.067841 +0700,
2,2,31,word/worden0312.png,78,78,0,x,0.6833044999511912,None,0,78,78,78,149.04461560002528,,,,,,,149.04461560002528,149.04461560002528,150.04436699999496,150.04731649998575,150.04731649998575,150.04731649998575,150.04731649998575,150.73356149997562,x,0.6833044999511912,None,,,,,,,,MW_en,001,2025-03-23_17h11.51.134,MainFlow,2024.2.4,143.8648132351866,2025-03-23 17h12.03.067841 +0700,
2,2,95,word/worden0952.png,79,79,0,x,1.3598262999439612,None,0,79,79,79,150.73874209995847,,,,,,,150.73874209995847,150.73874209995847,151.742489199969,151.7454709999729,151.7454709999729,151.7454709999729,151.7454709999729,153.1086444000248,x,1.3598262999439612,None,,,,,,,,MW_en,001,2025-03-23_17h11.51.134,MainFlow,2024.2.4,143.8648132351866,2025-03-23 17h12.03.067841 +0700,
2,1,93,word/worden0931.png,80,80,0,z,0.8532192999264225,None,0,80,80,80,153.11332669993863,,,,,,,153.11332669993863,153.11332669993863,154.12423610000405,154.12706919992343,154.12706919992343,154.12706919992343,154.12706919992343,154.98323190002702,z,0.8532192999264225,None,,,,,,,,MW_en,001,2025-03-23_17h11.51.134,MainFlow,2024.2.4,143.8648132351866,2025-03-23 17h12.03.067841 +0700,
2,1,71,word/worden0711.png,81,81,0,z,0.8919401000021026,None,0,81,81,81,154.98797899996862,,,,,,,154.98797899996862,154.98797899996862,155.99021409999114,155.99316299997736,155.99316299997736,155.99316299997736,155.99316299997736,156.89161079993937,z,0.8919401000021026,None,,,,,,,,MW_en,001,2025-03-23_17h11.51.134,MainFlow,2024.2.4,143.8648132351866,2025-03-23 17h12.03.067841 +0700,
2,1,48,word/worden0481.png,82,82,0,z,0.8103751000016928,None,0,82,82,82,156.89722669997718,,,,,,,156.89722669997718,156.89722669997718,157.91447269998025,157.91780399996787,157.91780399996787,157.91780399996787,157.91780399996787,158.73225949995685,z,0.8103751000016928,None,,,,,,,,MW_en,001,2025-03-23_17h11.51.134,MainFlow,2024.2.4,143.8648132351866,2025-03-23 17h12.03.067841 +0700,
2,1,94,word/worden0941.png,83,83,0,z,1.4658755999989808,None,0,83,83,83,158.73725240002386,,,,,,,158.73725240002386,158.73725240002386,159.73759649996646,159.7406637999229,159.7406637999229,159.7406637999229,159.7406637999229,161.21079499996267,z,1.4658755999989808,None,,,,,,,,MW_en,001,2025-03-23_17h11.51.134,MainFlow,2024.2.4,143.8648132351866,2025-03-23 17h12.03.067841 +0700,
2,3,68,word/worden0683.png,84,84,0,z,1.8000363999744877,None,0,84,84,84,161.2159060999984,,,,,,,161.2159060999984,161.2159060999984,162.35462050000206,162.3575717000058,162.3575717000058,162.3575717000058,162.3575717000058,164.16114229999948,z,1.8000363999744877,None,,,,,,,,MW_en,001,2025-03-23_17h11.51.134,MainFlow,2024.2.4,143.8648132351866,2025-03-23 17h12.03.067841 +0700,
2,2,66,word/worden0662.png,85,85,0,x,1.0151263000443578,None,0,85,85,85,164.16667619999498,,,,,,,164.16667619999498,164.16667619999498,165.160975900013,165.1638153999811,165.1638153999811,165.1638153999811,165.1638153999811,166.1813555000117,x,1.0151263000443578,None,,,,,,,,MW_en,001,2025-03-23_17h11.51.134,MainFlow,2024.2.4,143.8648132351866,2025-03-23 17h12.03.067841 +0700,
2,3,95,word/worden0953.png,86,86,0,x,3.0847349000396207,None,0,86,86,86,166.18712279992178,,,,,,,166.18712279992178,166.18712279992178,167.18723119993228,167.19018689997029,167.19018689997029,167.19018689997029,167.19018689997029,170.2778347999556,x,3.0847349000396207,None,,,,,,,,MW_en,001,2025-03-23_17h11.51.134,MainFlow,2024.2.4,143.8648132351866,2025-03-23 17h12.03.067841 +0700,
2,3,30,word/worden0303.png,87,87,0,x,1.6472865000832826,None,0,87,87,87,170.28350539994426,,,,,,,170.28350539994426,170.28350539994426,171.28168200002983,171.28459449997172,171.28459449997172,171.28459449997172,171.28459449997172,172.9376611999469,x,1.6472865000832826,None,,,,,,,,MW_en,001,2025-03-23_17h11.51.134,MainFlow,2024.2.4,143.8648132351866,2025-03-23 17h12.03.067841 +0700,
2,3,22,word/worden0223.png,88,88,0,x,0.8628813999239355,None,0,88,88,88,172.94279240001924,,,,,,,172.94279240001924,172.94279240001924,173.9441735999426,173.9470319999382,173.9470319999382,173.9470319999382,173.9470319999382,174.81220199994277,x,0.8628813999239355,None,,,,,,,,MW_en,001,2025-03-23_17h11.51.134,MainFlow,2024.2.4,143.8648132351866,2025-03-23 17h12.03.067841 +0700,
2,1,75,word/worden0751.png,89,89,0,x,0.8802878999849781,None,0,89,89,89,174.81747020001058,,,,,,,174.81747020001058,174.81747020001058,175.83499180001672,175.838413999998,175.838413999998,175.838413999998,175.838413999998,176.7209563999204,x,0.8802878999849781,None,,,,,,,,MW_en,001,2025-03-23_17h11.51.134,MainFlow,2024.2.4,143.8648132351866,2025-03-23 17h12.03.067841 +0700,
2,1,64,word/worden0641.png,90,90,0,x,1.1843670000089332,None,0,90,90,90,176.7266946999589,,,,,,,176.7266946999589,176.7266946999589,177.73370240000077,177.73650230001658,177.73650230001658,177.73650230001658,177.73650230001658,178.92249110003468,x,1.1843670000089332,None,,,,,,,,MW_en,001,2025-03-23_17h11.51.134,MainFlow,2024.2.4,143.8648132351866,2025-03-23 17h12.03.067841 +0700,
2,1,27,word/worden0271.png,91,91,0,z,1.325732299941592,None,0,91,91,91,178.92776689992752,,,,,,,178.92776689992752,178.92776689992752,179.94753719994333,179.95116599998437,179.95116599998437,179.95116599998437,179.95116599998437,181.28460160002578,z,1.325732299941592,None,,,,,,,,MW_en,001,2025-03-23_17h11.51.134,MainFlow,2024.2.4,143.8648132351866,2025-03-23 17h12.03.067841 +0700,
2,2,24,word/worden0242.png,92,92,0,x,0.8769822999602184,None,0,92,92,92,181.28955649991985,,,,,,,181.28955649991985,181.28955649991985,182.284763499978,182.28756389999762,182.28756389999762,182.28756389999762,182.28756389999762,183.1715750999283,x,0.8769822999602184,None,,,,,,,,MW_en,001,2025-03-23_17h11.51.134,MainFlow,2024.2.4,143.8648132351866,2025-03-23 17h12.03.067841 +0700,
2,1,87,word/worden0871.png,93,93,0,z,1.1481673000380397,None,0,93,93,93,183.17696790001355,,,,,,,183.17696790001355,183.17696790001355,184.1764145999914,184.1794911000179,184.1794911000179,184.1794911000179,184.1794911000179,185.33093429997098,z,1.1481673000380397,None,,,,,,,,MW_en,001,2025-03-23_17h11.51.134,MainFlow,2024.2.4,143.8648132351866,2025-03-23 17h12.03.067841 +0700,
2,1,7,word/worden0071.png,94,94,0,z,0.7586002999451011,None,0,94,94,94,185.33620609994978,,,,,,,185.33620609994978,185.33620609994978,186.33268829993904,186.3354516000254,186.3354516000254,186.3354516000254,186.3354516000254,187.1013293999713,z,0.7586002999451011,None,,,,,,,,MW_en,001,2025-03-23_17h11.51.134,MainFlow,2024.2.4,143.8648132351866,2025-03-23 17h12.03.067841 +0700,
2,2,9,word/worden0092.png,95,95,0,x,0.7525798999704421,None,0,95,95,95,187.1066792999627,,,,,,,187.1066792999627,187.1066792999627,188.10472139995545,188.10769650002476,188.10769650002476,188.10769650002476,188.10769650002476,188.86515630001668,x,0.7525798999704421,None,,,,,,,,MW_en,001,2025-03-23_17h11.51.134,MainFlow,2024.2.4,143.8648132351866,2025-03-23 17h12.03.067841 +0700,
2,1,44,word/worden0441.png,96,96,0,z,1.7339947000145912,None,0,96,96,96,188.87031749996822,,,,,,,188.87031749996822,188.87031749996822,189.87318520003464,189.87600649998058,189.87600649998058,189.87600649998058,189.87600649998058,191.61450030002743,z,1.7339947000145912,None,,,,,,,,MW_en,001,2025-03-23_17h11.51.134,MainFlow,2024.2.4,143.8648132351866,2025-03-23 17h12.03.067841 +0700,
2,2,10,word/worden0102.png,97,97,0,x,1.8855125999543816,None,0,97,97,97,191.6199004999362,,,,,,,191.6199004999362,191.6199004999362,192.61792350001633,192.62071039993316,192.62071039993316,192.62071039993316,192.62071039993316,194.51109299995005,x,1.8855125999543816,None,,,,,,,,MW_en,001,2025-03-23_17h11.51.134,MainFlow,2024.2.4,143.8648132351866,2025-03-23 17h12.03.067841 +0700,
2,2,82,word/worden0822.png,98,98,0,x,0.948431900003925,None,0,98,98,98,194.51529629994184,,,,,,,194.51529629994184,194.51529629994184,195.5146241999464,195.51757539995015,195.51757539995015,195.51757539995015,195.51757539995015,196.4679433000274,x,0.948431900003925,None,,,,,,,,MW_en,001,2025-03-23_17h11.51.134,MainFlow,2024.2.4,143.8648132351866,2025-03-23 17h12.03.067841 +0700,
2,3,89,word/worden0893.png,99,99,0,x,0.5750278999330476,None,0,99,99,99,196.47303490003105,,,,,,,196.47303490003105,196.47303490003105,197.47088609996717,197.47367600002326,197.47367600002326,197.47367600002326,197.47367600002326,198.05106959992554,x,0.5750278999330476,None,,,,,,,,MW_en,001,2025-03-23_17h11.51.134,MainFlow,2024.2.4,143.8648132351866,2025-03-23 17h12.03.067841 +0700,
2,2,44,word/worden0442.png,100,100,0,x,0.5288678000215441,None,0,100,100,100,198.05602269992232,,,,,,,198.05602269992232,198.05602269992232,199.05724979995284,199.06019510002807,199.06019510002807,199.06019510002807,199.06019510002807,199.59287739999127,x,0.5288678000215441,None,,,,,,,,MW_en,001,2025-03-23_17h11.51.134,MainFlow,2024.2.4,143.8648132351866,2025-03-23 17h12.03.067841 +0700,
2,1,52,word/worden0521.png,101,101,0,z,0.9552804999984801,None,0,101,101,101,199.59751430002507,,,,,,,199.59751430002507,199.59751430002507,200.6016814999748,200.60446649999358,200.60446649999358,200.60446649999358,200.60446649999358,201.5641830000095,z,0.9552804999984801,None,,,,,,,,MW_en,001,2025-03-23_17h11.51.134,MainFlow,2024.2.4,143.8648132351866,2025-03-23 17h12.03.067841 +0700,
2,1,51,word/worden0511.png,102,102,0,z,1.9829125000396743,None,0,102,102,102,201.56922439998016,,,,,,,201.56922439998016,201.56922439998016,202.5853572000051,202.58883359993342,202.58883359993342,202.58883359993342,202.58883359993342,204.5773860999616,z,1.9829125000396743,None,,,,,,,,MW_en,001,2025-03-23_17h11.51.134,MainFlow,2024.2.4,143.8648132351866,2025-03-23 17h12.03.067841 +0700,
2,3,51,word/worden0513.png,103,103,0,x,2.5730467999819666,None,0,103,103,103,204.58255399996415,,,,,,,204.58255399996415,204.58255399996415,205.57914960000198,205.58213310001884,205.58213310001884,205.58213310001884,205.58213310001884,208.16069169994444,x,2.5730467999819666,None,,,,,,,,MW_en,001,2025-03-23_17h11.51.134,MainFlow,2024.2.4,143.8648132351866,2025-03-23 17h12.03.067841 +0700,
2,2,8,word/worden0082.png,104,104,0,x,0.6517117999028414,None,0,104,104,104,208.1653565999586,,,,,,,208.1653565999586,208.1653565999586,209.16422229993623,209.1669741999358,209.1669741999358,209.1669741999358,209.1669741999358,209.82599339995068,x,0.6517117999028414,None,,,,,,,,MW_en,001,2025-03-23_17h11.51.134,MainFlow,2024.2.4,143.8648132351866,2025-03-23 17h12.03.067841 +0700,
2,2,3,word/worden0032.png,105,105,0,x,0.5155967000173405,None,0,105,105,105,209.83164560003206,,,,,,,209.83164560003206,209.83164560003206,210.83113960002083,210.83406909997575,210.83406909997575,210.83406909997575,210.83406909997575,211.354328299989,x,0.5155967000173405,None,,,,,,,,MW_en,001,2025-03-23_17h11.51.134,MainFlow,2024.2.4,143.8648132351866,2025-03-23 17h12.03.067841 +0700,
2,3,3,word/worden0033.png,106,106,0,z,0.9607764999382198,None,0,106,106,106,211.3590865000151,,,,,,,211.3590865000151,211.3590865000151,212.36912669998128,212.37246979994234,212.37246979994234,212.37246979994234,212.37246979994234,213.34057919995394,z,0.9607764999382198,None,,,,,,,,MW_en,001,2025-03-23_17h11.51.134,MainFlow,2024.2.4,143.8648132351866,2025-03-23 17h12.03.067841 +0700,
2,3,64,word/worden0643.png,107,107,0,x,0.7060749999945983,None,0,107,107,107,213.34653059998527,,,,,,,213.34653059998527,213.34653059998527,214.36012289999053,214.3635572999483,214.3635572999483,214.3635572999483,214.3635572999483,215.07597200002056,x,0.7060749999945983,None,,,,,,,,MW_en,001,2025-03-23_17h11.51.134,MainFlow,2024.2.4,143.8648132351866,2025-03-23 17h12.03.067841 +0700,
2,3,26,word/worden0263.png,108,108,0,x,0.5452056999783963,None,0,108,108,108,215.08071140001994,,,,,,,215.08071140001994,215.08071140001994,216.07895579992328,216.08198479993735,216.08198479993735,216.08198479993735,216.08198479993735,216.6309794000117,x,0.5452056999783963,None,,,,,,,,MW_en,001,2025-03-23_17h11.51.134,MainFlow,2024.2.4,143.8648132351866,2025-03-23 17h12.03.067841 +0700,
2,2,96,word/worden0962.png,109,109,0,x,0.5413336000638083,None,0,109,109,109,216.63575509993825,,,,,,,216.63575509993825,216.63575509993825,217.63817960000597,217.64098469994497,217.64098469994497,217.64098469994497,217.64098469994497,218.18607369996607,x,0.5413336000638083,None,,,,,,,,MW_en,001,2025-03-23_17h11.51.134,MainFlow,2024.2.4,143.8648132351866,2025-03-23 17h12.03.067841 +0700,
2,1,22,word/worden0221.png,110,110,0,z,0.6332059999695048,None,0,110,110,110,218.19103390001692,,,,,,,218.19103390001692,218.19103390001692,219.18886160000693,219.19170959992334,219.19170959992334,219.19170959992334,219.19170959992334,219.83149729995057,z,0.6332059999695048,None,,,,,,,,MW_en,001,2025-03-23_17h11.51.134,MainFlow,2024.2.4,143.8648132351866,2025-03-23 17h12.03.067841 +0700,
2,2,22,word/worden0222.png,111,111,0,x,0.6758753000758588,None,0,111,111,111,219.83665299997665,,,,,,,219.83665299997665,219.83665299997665,220.8297404999612,220.8325235999655,220.8325235999655,220.8325235999655,220.8325235999655,221.51163860002998,x,0.6758753000758588,None,,,,,,,,MW_en,001,2025-03-23_17h11.51.134,MainFlow,2024.2.4,143.8648132351866,2025-03-23 17h12.03.067841 +0700,
2,2,26,word/worden0262.png,112,112,0,x,0.749358500004746,None,0,112,112,112,221.5167567000026,,,,,,,221.5167567000026,221.5167567000026,222.50954450003337,222.5124211999355,222.5124211999355,222.5124211999355,222.5124211999355,223.26748919999227,x,0.749358500004746,None,,,,,,,,MW_en,001,2025-03-23_17h11.51.134,MainFlow,2024.2.4,143.8648132351866,2025-03-23 17h12.03.067841 +0700,
2,3,48,word/worden0483.png,113,113,0,x,1.7573555000126362,None,0,113,113,113,223.27363059995696,,,,,,,223.27363059995696,223.27363059995696,224.27593410003465,224.27894540003035,224.27894540003035,224.27894540003035,224.27894540003035,226.0391136999242,x,1.7573555000126362,None,,,,,,,,MW_en,001,2025-03-23_17h11.51.134,MainFlow,2024.2.4,143.8648132351866,2025-03-23 17h12.03.067841 +0700,
2,2,87,word/worden0872.png,114,114,0,x,0.8908481999533251,None,0,114,114,114,226.0444598000031,,,,,,,226.0444598000031,226.0444598000031,227.04749639995862,227.05062609992456,227.05062609992456,227.05062609992456,227.05062609992456,227.9481414000038,x,0.8908481999533251,None,,,,,,,,MW_en,001,2025-03-23_17h11.51.134,MainFlow,2024.2.4,143.8648132351866,2025-03-23 17h12.03.067841 +0700,
2,1,10,word/worden0101.png,115,115,0,z,0.8903616999741644,None,0,115,115,115,227.9531244999962,,,,,,,227.9531244999962,227.9531244999962,228.96844490000512,228.9717832999304,228.9717832999304,228.9717832999304,228.9717832999304,229.86521199997514,z,0.8903616999741644,None,,,,,,,,MW_en,001,2025-03-23_17h11.51.134,MainFlow,2024.2.4,143.8648132351866,2025-03-23 17h12.03.067841 +0700,
2,3,8,word/worden0083.png,116,116,0,x,1.6087114000692964,None,0,116,116,116,229.86941049993038,,,,,,,229.86941049993038,229.86941049993038,230.86255650001112,230.86546939995605,230.86546939995605,230.86546939995605,230.86546939995605,232.48146579996683,x,1.6087114000692964,None,,,,,,,,MW_en,001,2025-03-23_17h11.51.134,MainFlow,2024.2.4,143.8648132351866,2025-03-23 17h12.03.067841 +0700,
2,3,94,word/worden0943.png,117,117,0,x,2.3997753000585362,None,0,117,117,117,232.4868373000063,,,,,,,232.4868373000063,232.4868373000063,233.48526210000273,233.48822709999513,233.48822709999513,233.48822709999513,233.48822709999513,235.89094820001628,x,2.3997753000585362,None,,,,,,,,MW_en,001,2025-03-23_17h11.51.134,MainFlow,2024.2.4,143.8648132351866,2025-03-23 17h12.03.067841 +0700,
2,2,11,word/worden0112.png,118,118,0,x,0.798812200082466,None,0,118,118,118,235.89599699992687,,,,,,,235.89599699992687,235.89599699992687,236.89370449993294,236.89645889995154,236.89645889995154,236.89645889995154,236.89645889995154,237.69737489998806,x,0.798812200082466,None,,,,,,,,MW_en,001,2025-03-23_17h11.51.134,MainFlow,2024.2.4,143.8648132351866,2025-03-23 17h12.03.067841 +0700,
2,3,24,word/worden0243.png,119,119,0,x,0.5341513999737799,None,0,119,119,119,237.70296659995802,,,,,,,237.70296659995802,237.70296659995802,238.70395410002675,238.70684020000044,238.70684020000044,238.70684020000044,238.70684020000044,239.24450999998953,x,0.5341513999737799,None,,,,,,,,MW_en,001,2025-03-23_17h11.51.134,MainFlow,2024.2.4,143.8648132351866,2025-03-23 17h12.03.067841 +0700,
,,,,,,,,,,,,,,,,,,,,,,,,,,,,,,,,239.2447030999465,239.2496299999766,239.2496299999766,247.5824272999307,space,8.32804280007258,None,MW_en,001,2025-03-23_17h11.51.134,MainFlow,2024.2.4,143.8648132351866,2025-03-23 17h12.03.067841 +0700,
