lang,stimuli,imageid,worddir,thisN,thisTrialN,thisRepN,key_resp.keys,key_resp.rt,key_resp.duration,trials.thisRepN,trials.thisTrialN,trials.thisN,trials.thisIndex,thisRow.t,notes,tutorial.started,tutorial.stopped,key_instruct.keys,key_instruct.rt,key_instruct.duration,instructblank.started,cross1.started,letterselect.started,imageword.started,text_2.started,cross2.started,key_resp.started,letterselect.stopped,trials.key_resp.keys,trials.key_resp.rt,trials.key_resp.duration,ending.started,text_3.started,ending_key.started,ending.stopped,ending_key.keys,ending_key.rt,ending_key.duration,participant,session,date,expName,psychopyVersion,frameRate,expStart,
,,,,,,,,,,,,,,,,0.003014400019310415,5.845603200024925,space,5.819234999944456,None,,,,,,,,,,,,,,,,,,,MW_th,001,2025-03-23_17h07.32.256,MainFlow,2024.2.4,144.12897810187465,2025-03-23 17h07.43.320394 +0700,
1,3,89,word/wordth0893.png,0,0,0,x,1.143059500027448,None,0,0,0,0,5.873762900009751,,,,,,,5.873762900009751,5.873762900009751,6.862636100035161,6.887094600009732,6.887094600009732,6.887094600009732,6.887094600009732,8.031515600043349,x,1.143059500027448,None,,,,,,,,MW_th,001,2025-03-23_17h07.32.256,MainFlow,2024.2.4,144.12897810187465,2025-03-23 17h07.43.320394 +0700,
1,3,28,word/wordth0283.png,1,1,0,x,0.5981348999775946,None,0,1,1,1,8.036836500046775,,,,,,,8.036836500046775,8.036836500046775,9.055263600079343,9.058644200093113,9.058644200093113,9.058644200093113,9.058644200093113,9.663174099987373,x,0.5981348999775946,None,,,,,,,,MW_th,001,2025-03-23_17h07.32.256,MainFlow,2024.2.4,144.12897810187465,2025-03-23 17h07.43.320394 +0700,
1,2,87,word/wordth0872.png,2,2,0,z,0.7443730999948457,None,0,2,2,2,9.668318100040779,,,,,,,9.668318100040779,9.668318100040779,10.679998600040562,10.683677900000475,10.683677900000475,10.683677900000475,10.683677900000475,11.433702500071377,z,0.7443730999948457,None,,,,,,,,MW_th,001,2025-03-23_17h07.32.256,MainFlow,2024.2.4,144.12897810187465,2025-03-23 17h07.43.320394 +0700,
1,2,68,word/wordth0682.png,3,3,0,x,0.6021090999711305,None,0,3,3,3,11.438955300021917,,,,,,,11.438955300021917,11.438955300021917,12.456326900050044,12.459544699988328,12.459544699988328,12.459544699988328,12.459544699988328,13.065007400000468,x,0.6021090999711305,None,,,,,,,,MW_th,001,2025-03-23_17h07.32.256,MainFlow,2024.2.4,144.12897810187465,2025-03-23 17h07.43.320394 +0700,
1,2,11,word/wordth0112.png,4,4,0,x,0.4337849000003189,None,0,4,4,4,13.070447600097395,,,,,,,13.070447600097395,13.070447600097395,14.081283100065775,14.084080500062555,14.084080500062555,14.084080500062555,14.084080500062555,14.524383300100453,x,0.4337849000003189,None,,,,,,,,MW_th,001,2025-03-23_17h07.32.256,MainFlow,2024.2.4,144.12897810187465,2025-03-23 17h07.43.320394 +0700,
1,3,11,word/wordth0113.png,5,5,0,x,0.4838645999552682,None,0,5,5,5,14.528347000014037,,,,,,,14.528347000014037,14.528347000014037,15.54643720004242,15.549962899996899,15.549962899996899,15.549962899996899,15.549962899996899,16.03800770000089,x,0.4838645999552682,None,,,,,,,,MW_th,001,2025-03-23_17h07.32.256,MainFlow,2024.2.4,144.12897810187465,2025-03-23 17h07.43.320394 +0700,
1,2,71,word/wordth0712.png,6,6,0,x,0.3999143000692129,None,0,6,6,6,16.04362080001738,,,,,,,16.04362080001738,16.04362080001738,17.057567100040615,17.06097029999364,17.06097029999364,17.06097029999364,17.06097029999364,17.466997200041078,x,0.3999143000692129,None,,,,,,,,MW_th,001,2025-03-23_17h07.32.256,MainFlow,2024.2.4,144.12897810187465,2025-03-23 17h07.43.320394 +0700,
1,3,44,word/wordth0443.png,7,7,0,x,0.6554418000159785,None,0,7,7,7,17.4722960999934,,,,,,,17.4722960999934,17.4722960999934,18.4843644000357,18.488038400071673,18.488038400071673,18.488038400071673,18.488038400071673,19.14838640007656,x,0.6554418000159785,None,,,,,,,,MW_th,001,2025-03-23_17h07.32.256,MainFlow,2024.2.4,144.12897810187465,2025-03-23 17h07.43.320394 +0700,
1,2,82,word/wordth0822.png,8,8,0,x,0.4627956000622362,None,0,8,8,8,19.153686100034975,,,,,,,19.153686100034975,19.153686100034975,20.17001410003286,20.17364640010055,20.17364640010055,20.17364640010055,20.17364640010055,20.640628800028935,x,0.4627956000622362,None,,,,,,,,MW_th,001,2025-03-23_17h07.32.256,MainFlow,2024.2.4,144.12897810187465,2025-03-23 17h07.43.320394 +0700,
1,2,28,word/wordth0282.png,9,9,0,x,0.6520490000257269,None,0,9,9,9,20.645393099985085,,,,,,,20.645393099985085,20.645393099985085,21.660498499986716,21.66388560004998,21.66388560004998,21.66388560004998,21.66388560004998,22.320549500058405,x,0.6520490000257269,None,,,,,,,,MW_th,001,2025-03-23_17h07.32.256,MainFlow,2024.2.4,144.12897810187465,2025-03-23 17h07.43.320394 +0700,
1,1,23,word/wordth0231.png,10,10,0,z,0.9669404999585822,None,0,10,10,10,22.325578700052574,,,,,,,22.325578700052574,22.325578700052574,23.325588800013065,23.32864600000903,23.32864600000903,23.32864600000903,23.32864600000903,24.30046050006058,z,0.9669404999585822,None,,,,,,,,MW_th,001,2025-03-23_17h07.32.256,MainFlow,2024.2.4,144.12897810187465,2025-03-23 17h07.43.320394 +0700,
1,2,63,word/wordth0632.png,11,11,0,x,0.5224808000493795,None,0,11,11,11,24.305603299988434,,,,,,,24.305603299988434,24.305603299988434,25.305272900033742,25.308080699993297,25.308080699993297,25.308080699993297,25.308080699993297,25.833569700014777,x,0.5224808000493795,None,,,,,,,,MW_th,001,2025-03-23_17h07.32.256,MainFlow,2024.2.4,144.12897810187465,2025-03-23 17h07.43.320394 +0700,
1,3,71,word/wordth0713.png,12,12,0,x,0.6727810999145731,None,0,12,12,12,25.83873970003333,,,,,,,25.83873970003333,25.83873970003333,26.851754800067283,26.85518770001363,26.85518770001363,26.85518770001363,26.85518770001363,27.534551199991256,x,0.6727810999145731,None,,,,,,,,MW_th,001,2025-03-23_17h07.32.256,MainFlow,2024.2.4,144.12897810187465,2025-03-23 17h07.43.320394 +0700,
1,1,1,word/wordth0011.png,13,13,0,z,0.7386340999510139,None,0,13,13,13,27.539870100095868,,,,,,,27.539870100095868,27.539870100095868,28.5570365000749,28.560647100093774,28.560647100093774,28.560647100093774,28.560647100093774,29.305634699994698,z,0.7386340999510139,None,,,,,,,,MW_th,001,2025-03-23_17h07.32.256,MainFlow,2024.2.4,144.12897810187465,2025-03-23 17h07.43.320394 +0700,
1,3,41,word/wordth0413.png,14,14,0,x,0.5022752999793738,None,0,14,14,14,29.310333300032653,,,,,,,29.310333300032653,29.310333300032653,30.330420900019817,30.33383960009087,30.33383960009087,30.33383960009087,30.33383960009087,30.839445000048727,x,0.5022752999793738,None,,,,,,,,MW_th,001,2025-03-23_17h07.32.256,MainFlow,2024.2.4,144.12897810187465,2025-03-23 17h07.43.320394 +0700,
1,2,64,word/wordth0642.png,15,15,0,x,0.4882353999419138,None,0,15,15,15,30.84467660007067,,,,,,,30.84467660007067,30.84467660007067,31.845077200094238,31.847928400035016,31.847928400035016,31.847928400035016,31.847928400035016,32.3396782000782,x,0.4882353999419138,None,,,,,,,,MW_th,001,2025-03-23_17h07.32.256,MainFlow,2024.2.4,144.12897810187465,2025-03-23 17h07.43.320394 +0700,
1,3,6,word/wordth0063.png,16,16,0,x,0.5239748999010772,None,0,16,16,16,32.34459380002227,,,,,,,32.34459380002227,32.34459380002227,33.36156430002302,33.365004800027236,33.365004800027236,33.365004800027236,33.365004800027236,33.89437750005163,x,0.5239748999010772,None,,,,,,,,MW_th,001,2025-03-23_17h07.32.256,MainFlow,2024.2.4,144.12897810187465,2025-03-23 17h07.43.320394 +0700,
1,2,31,word/wordth0312.png,17,17,0,x,0.494790600030683,None,0,17,17,17,33.899679200025275,,,,,,,33.899679200025275,33.899679200025275,34.910627700039186,34.91410190006718,34.91410190006718,34.91410190006718,34.91410190006718,35.41506770008709,x,0.494790600030683,None,,,,,,,,MW_th,001,2025-03-23_17h07.32.256,MainFlow,2024.2.4,144.12897810187465,2025-03-23 17h07.43.320394 +0700,
1,1,46,word/wordth0461.png,18,18,0,z,0.7394683000165969,None,0,18,18,18,35.42028500000015,,,,,,,35.42028500000015,35.42028500000015,36.43214190006256,36.43552020005882,36.43552020005882,36.43552020005882,36.43552020005882,37.17803870001808,z,0.7394683000165969,None,,,,,,,,MW_th,001,2025-03-23_17h07.32.256,MainFlow,2024.2.4,144.12897810187465,2025-03-23 17h07.43.320394 +0700,
1,3,51,word/wordth0513.png,19,19,0,x,0.5685290999244899,None,0,19,19,19,37.1836838000454,,,,,,,37.1836838000454,37.1836838000454,38.20105929998681,38.204365900019184,38.204365900019184,38.204365900019184,38.204365900019184,38.77557699999306,x,0.5685290999244899,None,,,,,,,,MW_th,001,2025-03-23_17h07.32.256,MainFlow,2024.2.4,144.12897810187465,2025-03-23 17h07.43.320394 +0700,
1,2,26,word/wordth0262.png,20,20,0,x,0.6368917999789119,None,0,20,20,20,38.78071640001144,,,,,,,38.78071640001144,38.78071640001144,39.8001452999888,39.80358589999378,39.80358589999378,39.80358589999378,39.80358589999378,40.44204540003557,x,0.6368917999789119,None,,,,,,,,MW_th,001,2025-03-23_17h07.32.256,MainFlow,2024.2.4,144.12897810187465,2025-03-23 17h07.43.320394 +0700,
1,2,96,word/wordth0962.png,21,21,0,x,0.40259259997401386,None,0,21,21,21,40.44712840009015,,,,,,,40.44712840009015,40.44712840009015,41.449326000059955,41.452183600049466,41.452183600049466,41.452183600049466,41.452183600049466,41.85943260008935,x,0.40259259997401386,None,,,,,,,,MW_th,001,2025-03-23_17h07.32.256,MainFlow,2024.2.4,144.12897810187465,2025-03-23 17h07.43.320394 +0700,
1,1,31,word/wordth0311.png,22,22,0,z,0.6333001999882981,None,0,22,22,22,41.86486950004473,,,,,,,41.86486950004473,41.86486950004473,42.87924550008029,42.88290520000737,42.88290520000737,42.88290520000737,42.88290520000737,43.517770900041796,z,0.6333001999882981,None,,,,,,,,MW_th,001,2025-03-23_17h07.32.256,MainFlow,2024.2.4,144.12897810187465,2025-03-23 17h07.43.320394 +0700,
1,2,94,word/wordth0942.png,23,23,0,x,0.9022856999654323,None,0,23,23,23,43.522971300059,,,,,,,43.522971300059,43.522971300059,44.52285690000281,44.52585710003041,44.52585710003041,44.52585710003041,44.52585710003041,45.43396860000212,x,0.9022856999654323,None,,,,,,,,MW_th,001,2025-03-23_17h07.32.256,MainFlow,2024.2.4,144.12897810187465,2025-03-23 17h07.43.320394 +0700,
1,3,48,word/wordth0483.png,24,24,0,x,0.6588090000441298,None,0,24,24,24,45.43913680000696,,,,,,,45.43913680000696,45.43913680000696,46.457452600006945,46.4607608000515,46.4607608000515,46.4607608000515,46.4607608000515,47.12089370004833,x,0.6588090000441298,None,,,,,,,,MW_th,001,2025-03-23_17h07.32.256,MainFlow,2024.2.4,144.12897810187465,2025-03-23 17h07.43.320394 +0700,
1,3,24,word/wordth0243.png,25,25,0,x,0.48441499995533377,None,0,25,25,25,47.12631030008197,,,,,,,47.12631030008197,47.12631030008197,48.1384344000835,48.142089800094254,48.142089800094254,48.142089800094254,48.142089800094254,48.62740480003413,x,0.48441499995533377,None,,,,,,,,MW_th,001,2025-03-23_17h07.32.256,MainFlow,2024.2.4,144.12897810187465,2025-03-23 17h07.43.320394 +0700,
1,1,87,word/wordth0871.png,26,26,0,z,0.526359900017269,None,0,26,26,26,48.63302720000502,,,,,,,48.63302720000502,48.63302720000502,49.647671499988064,49.6510486000916,49.6510486000916,49.6510486000916,49.6510486000916,50.18307440006174,z,0.526359900017269,None,,,,,,,,MW_th,001,2025-03-23_17h07.32.256,MainFlow,2024.2.4,144.12897810187465,2025-03-23 17h07.43.320394 +0700,
1,2,51,word/wordth0512.png,27,27,0,x,0.6415820999536663,None,0,27,27,27,50.188205900019966,,,,,,,50.188205900019966,50.188205900019966,51.200786700006574,51.20438040001318,51.20438040001318,51.20438040001318,51.20438040001318,51.84947750007268,x,0.6415820999536663,None,,,,,,,,MW_th,001,2025-03-23_17h07.32.256,MainFlow,2024.2.4,144.12897810187465,2025-03-23 17h07.43.320394 +0700,
1,3,27,word/wordth0273.png,28,28,0,x,0.6549798999913037,None,0,28,28,28,51.85464270005468,,,,,,,51.85464270005468,51.85464270005468,52.854731300030835,52.85756270005368,52.85756270005368,52.85756270005368,52.85756270005368,53.51576690003276,x,0.6549798999913037,None,,,,,,,,MW_th,001,2025-03-23_17h07.32.256,MainFlow,2024.2.4,144.12897810187465,2025-03-23 17h07.43.320394 +0700,
1,2,22,word/wordth0222.png,29,29,0,x,1.3393060000380501,None,0,29,29,29,53.52092280006036,,,,,,,53.52092280006036,53.52092280006036,54.52308080007788,54.52588269999251,54.52588269999251,54.52588269999251,54.52588269999251,55.86958990001585,x,1.3393060000380501,None,,,,,,,,MW_th,001,2025-03-23_17h07.32.256,MainFlow,2024.2.4,144.12897810187465,2025-03-23 17h07.43.320394 +0700,
1,3,23,word/wordth0233.png,30,30,0,x,0.6665693999966606,None,0,30,30,30,55.87472970003728,,,,,,,55.87472970003728,55.87472970003728,56.869293500087224,56.87213780009188,56.87213780009188,56.87213780009188,56.87213780009188,57.54269520007074,x,0.6665693999966606,None,,,,,,,,MW_th,001,2025-03-23_17h07.32.256,MainFlow,2024.2.4,144.12897810187465,2025-03-23 17h07.43.320394 +0700,
1,1,48,word/wordth0481.png,31,31,0,z,0.6442232000408694,None,0,31,31,31,57.547952600056306,,,,,,,57.547952600056306,57.547952600056306,58.561103800078854,58.56431720010005,58.56431720010005,58.56431720010005,58.56431720010005,59.21588979999069,z,0.6442232000408694,None,,,,,,,,MW_th,001,2025-03-23_17h07.32.256,MainFlow,2024.2.4,144.12897810187465,2025-03-23 17h07.43.320394 +0700,
1,2,10,word/wordth0102.png,32,32,0,x,0.9542735000140965,None,0,32,32,32,59.22128850000445,,,,,,,59.22128850000445,59.22128850000445,60.24013540009037,60.24362409999594,60.24362409999594,60.24362409999594,60.24362409999594,61.20108750008512,x,0.9542735000140965,None,,,,,,,,MW_th,001,2025-03-23_17h07.32.256,MainFlow,2024.2.4,144.12897810187465,2025-03-23 17h07.43.320394 +0700,
1,3,64,word/wordth0643.png,33,33,0,x,1.406185399973765,None,0,33,33,33,61.2068129000254,,,,,,,61.2068129000254,61.2068129000254,62.20735150005203,62.21027050004341,62.21027050004341,62.21027050004341,62.21027050004341,63.61817630007863,x,1.406185399973765,None,,,,,,,,MW_th,001,2025-03-23_17h07.32.256,MainFlow,2024.2.4,144.12897810187465,2025-03-23 17h07.43.320394 +0700,
1,3,22,word/wordth0223.png,34,34,0,x,0.7098018999677151,None,0,34,34,34,63.62320560007356,,,,,,,63.62320560007356,63.62320560007356,64.63506720005535,64.63895590009633,64.63895590009633,64.63895590009633,64.63895590009633,65.35303270001896,x,0.7098018999677151,None,,,,,,,,MW_th,001,2025-03-23_17h07.32.256,MainFlow,2024.2.4,144.12897810187465,2025-03-23 17h07.43.320394 +0700,
1,1,42,word/wordth0421.png,35,35,0,z,0.8636191000696272,None,0,35,35,35,65.3587970000226,,,,,,,65.3587970000226,65.3587970000226,66.37687020003796,66.38012830005027,66.38012830005027,66.38012830005027,66.38012830005027,67.25038089998998,z,0.8636191000696272,None,,,,,,,,MW_th,001,2025-03-23_17h07.32.256,MainFlow,2024.2.4,144.12897810187465,2025-03-23 17h07.43.320394 +0700,
1,2,1,word/wordth0012.png,36,36,0,x,0.9046628000214696,None,0,36,36,36,67.25606060004793,,,,,,,67.25606060004793,67.25606060004793,68.27080719999503,68.27424040006008,68.27424040006008,68.27424040006008,68.27424040006008,69.1860990000423,x,0.9046628000214696,None,,,,,,,,MW_th,001,2025-03-23_17h07.32.256,MainFlow,2024.2.4,144.12897810187465,2025-03-23 17h07.43.320394 +0700,
1,1,82,word/wordth0821.png,37,37,0,z,0.6562269000569358,None,0,37,37,37,69.1914619000163,,,,,,,69.1914619000163,69.1914619000163,70.19212490005884,70.19496910006274,70.19496910006274,70.19496910006274,70.19496910006274,70.85394010005984,z,0.6562269000569358,None,,,,,,,,MW_th,001,2025-03-23_17h07.32.256,MainFlow,2024.2.4,144.12897810187465,2025-03-23 17h07.43.320394 +0700,
1,2,3,word/wordth0032.png,38,38,0,x,0.6159983000252396,None,0,38,38,38,70.8595533000771,,,,,,,70.8595533000771,70.8595533000771,71.87537770008203,71.87881940009538,71.87881940009538,71.87881940009538,71.87881940009538,72.49954850005452,x,0.6159983000252396,None,,,,,,,,MW_th,001,2025-03-23_17h07.32.256,MainFlow,2024.2.4,144.12897810187465,2025-03-23 17h07.43.320394 +0700,
1,1,68,word/wordth0681.png,39,39,0,z,0.669115399941802,None,0,39,39,39,72.50475399999414,,,,,,,72.50475399999414,72.50475399999414,73.49838230002206,73.50120480009355,73.50120480009355,73.50120480009355,73.50120480009355,74.17202900000848,z,0.669115399941802,None,,,,,,,,MW_th,001,2025-03-23_17h07.32.256,MainFlow,2024.2.4,144.12897810187465,2025-03-23 17h07.43.320394 +0700,
1,1,66,word/wordth0661.png,40,40,0,z,0.7051217000698671,None,0,40,40,40,74.17668790009338,,,,,,,74.17668790009338,74.17668790009338,75.19513810006902,75.19853480008896,75.19853480008896,75.19853480008896,75.19853480008896,75.90735540003516,z,0.7051217000698671,None,,,,,,,,MW_th,001,2025-03-23_17h07.32.256,MainFlow,2024.2.4,144.12897810187465,2025-03-23 17h07.43.320394 +0700,
1,2,42,word/wordth0422.png,41,41,0,x,0.7891885000281036,None,0,41,41,41,75.91247430001386,,,,,,,75.91247430001386,75.91247430001386,76.93125940009486,76.93450750003103,76.93450750003103,76.93450750003103,76.93450750003103,77.72561319998931,x,0.7891885000281036,None,,,,,,,,MW_th,001,2025-03-23_17h07.32.256,MainFlow,2024.2.4,144.12897810187465,2025-03-23 17h07.43.320394 +0700,
1,3,93,word/wordth0933.png,42,42,0,x,1.0309328999137506,None,0,42,42,42,77.73141540004872,,,,,,,77.73141540004872,77.73141540004872,78.73556370008737,78.7383615000872,78.7383615000872,78.7383615000872,78.7383615000872,79.77440400002524,x,1.0309328999137506,None,,,,,,,,MW_th,001,2025-03-23_17h07.32.256,MainFlow,2024.2.4,144.12897810187465,2025-03-23 17h07.43.320394 +0700,
1,1,71,word/wordth0711.png,43,43,0,z,0.73304660001304,None,0,43,43,43,79.77972059999593,,,,,,,79.77972059999593,79.77972059999593,80.80022470001131,80.80353320005815,80.80353320005815,80.80353320005815,80.80353320005815,81.53946810006164,z,0.73304660001304,None,,,,,,,,MW_th,001,2025-03-23_17h07.32.256,MainFlow,2024.2.4,144.12897810187465,2025-03-23 17h07.43.320394 +0700,
1,1,64,word/wordth0641.png,44,44,0,z,1.2374193000141531,None,0,44,44,44,81.54504580004141,,,,,,,81.54504580004141,81.54504580004141,82.54042560001835,82.54323380009737,82.54323380009737,82.54323380009737,82.54323380009737,83.78822129999753,z,1.2374193000141531,None,,,,,,,,MW_th,001,2025-03-23_17h07.32.256,MainFlow,2024.2.4,144.12897810187465,2025-03-23 17h07.43.320394 +0700,
1,1,88,word/wordth0881.png,45,45,0,z,1.0472211999585852,None,0,45,45,45,83.79297960002441,,,,,,,83.79297960002441,83.79297960002441,84.80809870001394,84.8117140000686,84.8117140000686,84.8117140000686,84.8117140000686,85.86350700003095,z,1.0472211999585852,None,,,,,,,,MW_th,001,2025-03-23_17h07.32.256,MainFlow,2024.2.4,144.12897810187465,2025-03-23 17h07.43.320394 +0700,
1,3,87,word/wordth0873.png,46,46,0,x,0.8395746999885887,None,0,46,46,46,85.86879710003268,,,,,,,85.86879710003268,85.86879710003268,86.88613830006216,86.88940360001288,86.88940360001288,86.88940360001288,86.88940360001288,87.7313968000235,x,0.8395746999885887,None,,,,,,,,MW_th,001,2025-03-23_17h07.32.256,MainFlow,2024.2.4,144.12897810187465,2025-03-23 17h07.43.320394 +0700,
1,3,3,word/wordth0033.png,47,47,0,x,0.9567073999205604,None,0,47,47,47,87.73657459998503,,,,,,,87.73657459998503,87.73657459998503,88.73787589999847,88.74100400006864,88.74100400006864,88.74100400006864,88.74100400006864,89.70383840007707,x,0.9567073999205604,None,,,,,,,,MW_th,001,2025-03-23_17h07.32.256,MainFlow,2024.2.4,144.12897810187465,2025-03-23 17h07.43.320394 +0700,
1,2,95,word/wordth0952.png,48,48,0,x,0.6467547999927774,None,0,48,48,48,89.70834660006221,,,,,,,89.70834660006221,89.70834660006221,90.724017700064,90.72743329999503,90.72743329999503,90.72743329999503,90.72743329999503,91.37633040000219,x,0.6467547999927774,None,,,,,,,,MW_th,001,2025-03-23_17h07.32.256,MainFlow,2024.2.4,144.12897810187465,2025-03-23 17h07.43.320394 +0700,
1,1,11,word/wordth0111.png,49,49,0,z,0.7976912000449374,None,0,49,49,49,91.38162900006864,,,,,,,91.38162900006864,91.38162900006864,92.38567079999484,92.38867010001559,92.38867010001559,92.38867010001559,92.38867010001559,93.1886490000179,z,0.7976912000449374,None,,,,,,,,MW_th,001,2025-03-23_17h07.32.256,MainFlow,2024.2.4,144.12897810187465,2025-03-23 17h07.43.320394 +0700,
1,1,10,word/wordth0101.png,50,50,0,z,0.9973923000507057,None,0,50,50,50,93.19377720006742,,,,,,,93.19377720006742,93.19377720006742,94.19486190006137,94.19760489999317,94.19760489999317,94.19760489999317,94.19760489999317,95.20225680002477,z,0.9973923000507057,None,,,,,,,,MW_th,001,2025-03-23_17h07.32.256,MainFlow,2024.2.4,144.12897810187465,2025-03-23 17h07.43.320394 +0700,
1,1,44,word/wordth0441.png,51,51,0,z,0.6642461000010371,None,0,51,51,51,95.20732290006708,,,,,,,95.20732290006708,95.20732290006708,96.21961999998894,96.22331660008058,96.22331660008058,96.22331660008058,96.22331660008058,96.89086570008658,z,0.6642461000010371,None,,,,,,,,MW_th,001,2025-03-23_17h07.32.256,MainFlow,2024.2.4,144.12897810187465,2025-03-23 17h07.43.320394 +0700,
1,1,96,word/wordth0961.png,52,52,0,z,1.7447698999894783,None,0,52,52,52,96.89598060003482,,,,,,,96.89598060003482,96.89598060003482,97.8955690000439,97.89832570008002,97.89832570008002,97.89832570008002,97.89832570008002,99.64575410005637,z,1.7447698999894783,None,,,,,,,,MW_th,001,2025-03-23_17h07.32.256,MainFlow,2024.2.4,144.12897810187465,2025-03-23 17h07.43.320394 +0700,
1,2,27,word/wordth0272.png,53,53,0,x,0.7496413999469951,None,0,53,53,53,99.65090610005427,,,,,,,99.65090610005427,99.65090610005427,100.6663657000754,100.6697092000395,100.6697092000395,100.6697092000395,100.6697092000395,101.42321150004864,x,0.7496413999469951,None,,,,,,,,MW_th,001,2025-03-23_17h07.32.256,MainFlow,2024.2.4,144.12897810187465,2025-03-23 17h07.43.320394 +0700,
1,1,63,word/wordth0631.png,54,54,0,z,0.7013506999937817,None,0,54,54,54,101.42827320005745,,,,,,,101.42827320005745,101.42827320005745,102.43155730003491,102.43440500006545,102.43440500006545,102.43440500006545,102.43440500006545,103.13815180002712,z,0.7013506999937817,None,,,,,,,,MW_th,001,2025-03-23_17h07.32.256,MainFlow,2024.2.4,144.12897810187465,2025-03-23 17h07.43.320394 +0700,
1,3,66,word/wordth0663.png,55,55,0,x,1.2833768000127748,None,0,55,55,55,103.14323410007637,,,,,,,103.14323410007637,103.14323410007637,104.14740460005123,104.15028520009946,104.15028520009946,104.15028520009946,104.15028520009946,105.43685960001312,x,1.2833768000127748,None,,,,,,,,MW_th,001,2025-03-23_17h07.32.256,MainFlow,2024.2.4,144.12897810187465,2025-03-23 17h07.43.320394 +0700,
1,3,88,word/wordth0883.png,56,56,0,x,0.7797736000502482,None,0,56,56,56,105.44144269998651,,,,,,,105.44144269998651,105.44144269998651,106.45459079998545,106.4579676000867,106.4579676000867,106.4579676000867,106.4579676000867,107.24121650005691,x,0.7797736000502482,None,,,,,,,,MW_th,001,2025-03-23_17h07.32.256,MainFlow,2024.2.4,144.12897810187465,2025-03-23 17h07.43.320394 +0700,
1,3,96,word/wordth0963.png,57,57,0,x,0.6514673999045044,None,0,57,57,57,107.24657200009096,,,,,,,107.24657200009096,107.24657200009096,108.26853010000195,108.27184160007164,108.27184160007164,108.27184160007164,108.27184160007164,108.92929770005867,x,0.6514673999045044,None,,,,,,,,MW_th,001,2025-03-23_17h07.32.256,MainFlow,2024.2.4,144.12897810187465,2025-03-23 17h07.43.320394 +0700,
1,2,52,word/wordth0522.png,58,58,0,x,0.7022454000543803,None,0,58,58,58,108.9339689000044,,,,,,,108.9339689000044,108.9339689000044,109.9541465000948,109.95754139998462,109.95754139998462,109.95754139998462,109.95754139998462,110.66562370001338,x,0.7022454000543803,None,,,,,,,,MW_th,001,2025-03-23_17h07.32.256,MainFlow,2024.2.4,144.12897810187465,2025-03-23 17h07.43.320394 +0700,
1,3,50,word/wordth0503.png,59,59,0,x,0.6633879999862984,None,0,59,59,59,110.67135439999402,,,,,,,110.67135439999402,110.67135439999402,111.68322460004129,111.68674210004974,111.68674210004974,111.68674210004974,111.68674210004974,112.35177220008336,x,0.6633879999862984,None,,,,,,,,MW_th,001,2025-03-23_17h07.32.256,MainFlow,2024.2.4,144.12897810187465,2025-03-23 17h07.43.320394 +0700,
1,3,61,word/wordth0613.png,60,60,0,x,0.4819529999513179,None,0,60,60,60,112.35682510002516,,,,,,,112.35682510002516,112.35682510002516,113.37779920001049,113.38116049999371,113.38116049999371,113.38116049999371,113.38116049999371,113.8655807999894,x,0.4819529999513179,None,,,,,,,,MW_th,001,2025-03-23_17h07.32.256,MainFlow,2024.2.4,144.12897810187465,2025-03-23 17h07.43.320394 +0700,
1,2,46,word/wordth0462.png,61,61,0,x,0.7436790000647306,None,0,61,61,61,113.8704009000212,,,,,,,113.8704009000212,113.8704009000212,114.88756950001698,114.89072700007819,114.89072700007819,114.89072700007819,114.89072700007819,115.63637820002623,x,0.7436790000647306,None,,,,,,,,MW_th,001,2025-03-23_17h07.32.256,MainFlow,2024.2.4,144.12897810187465,2025-03-23 17h07.43.320394 +0700,
1,1,61,word/wordth0611.png,62,62,0,z,0.8662787999492139,None,0,62,62,62,115.64085289998911,,,,,,,115.64085289998911,115.64085289998911,116.65407080005389,116.65793109999504,116.65793109999504,116.65793109999504,116.65793109999504,117.53231660008896,z,0.8662787999492139,None,,,,,,,,MW_th,001,2025-03-23_17h07.32.256,MainFlow,2024.2.4,144.12897810187465,2025-03-23 17h07.43.320394 +0700,
1,1,24,word/wordth0241.png,63,63,0,z,0.8272986999945715,None,0,63,63,63,117.53793190000579,,,,,,,117.53793190000579,117.53793190000579,118.54828440002166,118.55193469999358,118.55193469999358,118.55193469999358,118.55193469999358,119.38424090004992,z,0.8272986999945715,None,,,,,,,,MW_th,001,2025-03-23_17h07.32.256,MainFlow,2024.2.4,144.12897810187465,2025-03-23 17h07.43.320394 +0700,
1,2,89,word/wordth0892.png,64,64,0,x,0.6780657999916002,None,0,64,64,64,119.39006730006076,,,,,,,119.39006730006076,119.39006730006076,120.4101084000431,120.4136778000975,120.4136778000975,120.4136778000975,120.4136778000975,121.0924185999902,x,0.6780657999916002,None,,,,,,,,MW_th,001,2025-03-23_17h07.32.256,MainFlow,2024.2.4,144.12897810187465,2025-03-23 17h07.43.320394 +0700,
1,1,30,word/wordth0301.png,65,65,0,z,0.9414624000201002,None,0,65,65,65,121.0979890000308,,,,,,,121.0979890000308,121.0979890000308,122.09508370002732,122.09797490003984,122.09797490003984,122.09797490003984,122.09797490003984,123.04364719998557,z,0.9414624000201002,None,,,,,,,,MW_th,001,2025-03-23_17h07.32.256,MainFlow,2024.2.4,144.12897810187465,2025-03-23 17h07.43.320394 +0700,
1,1,93,word/wordth0931.png,66,66,0,z,0.8579075000016019,None,0,66,66,66,123.04899140005,,,,,,,123.04899140005,123.04899140005,124.04979300010018,124.05264270002954,124.05264270002954,124.05264270002954,124.05264270002954,124.9119190000929,z,0.8579075000016019,None,,,,,,,,MW_th,001,2025-03-23_17h07.32.256,MainFlow,2024.2.4,144.12897810187465,2025-03-23 17h07.43.320394 +0700,
1,1,50,word/wordth0501.png,67,67,0,z,0.5685841999948025,None,0,67,67,67,124.91693659999873,,,,,,,124.91693659999873,124.91693659999873,125.93083510000724,125.93460690008942,125.93460690008942,125.93460690008942,125.93460690008942,126.50905900006182,z,0.5685841999948025,None,,,,,,,,MW_th,001,2025-03-23_17h07.32.256,MainFlow,2024.2.4,144.12897810187465,2025-03-23 17h07.43.320394 +0700,
1,3,82,word/wordth0823.png,68,68,0,z,0.7518500000005588,None,0,68,68,68,126.51373150001746,,,,,,,126.51373150001746,126.51373150001746,127.51461900002323,127.51763020001817,127.51763020001817,127.51763020001817,127.51763020001817,128.27215299999807,z,0.7518500000005588,None,,,,,,,,MW_th,001,2025-03-23_17h07.32.256,MainFlow,2024.2.4,144.12897810187465,2025-03-23 17h07.43.320394 +0700,
1,1,27,word/wordth0271.png,69,69,0,z,0.7459749000845477,None,0,69,69,69,128.27732820005622,,,,,,,128.27732820005622,128.27732820005622,129.291567999986,129.29479170008563,129.29479170008563,129.29479170008563,129.29479170008563,130.04367050004657,z,0.7459749000845477,None,,,,,,,,MW_th,001,2025-03-23_17h07.32.256,MainFlow,2024.2.4,144.12897810187465,2025-03-23 17h07.43.320394 +0700,
1,3,52,word/wordth0523.png,70,70,0,x,0.7323495999444276,None,0,70,70,70,130.04936470009852,,,,,,,130.04936470009852,130.04936470009852,131.06126620003488,131.064526900067,131.064526900067,131.064526900067,131.064526900067,131.7985852001002,x,0.7323495999444276,None,,,,,,,,MW_th,001,2025-03-23_17h07.32.256,MainFlow,2024.2.4,144.12897810187465,2025-03-23 17h07.43.320394 +0700,
1,1,22,word/wordth0221.png,71,71,0,z,0.6278981999494135,None,0,71,71,71,131.80427990003955,,,,,,,131.80427990003955,131.80427990003955,132.80460150004365,132.8077110000886,132.8077110000886,132.8077110000886,132.8077110000886,133.43839720007963,z,0.6278981999494135,None,,,,,,,,MW_th,001,2025-03-23_17h07.32.256,MainFlow,2024.2.4,144.12897810187465,2025-03-23 17h07.43.320394 +0700,
1,1,6,word/wordth0061.png,72,72,0,z,0.675597200053744,None,0,72,72,72,133.442973600002,,,,,,,133.442973600002,133.442973600002,134.45728420000523,134.46061340009328,134.46061340009328,134.46061340009328,134.46061340009328,135.1394685000414,z,0.675597200053744,None,,,,,,,,MW_th,001,2025-03-23_17h07.32.256,MainFlow,2024.2.4,144.12897810187465,2025-03-23 17h07.43.320394 +0700,
1,2,30,word/wordth0302.png,73,73,0,x,1.305779300048016,None,0,73,73,73,135.14403339999262,,,,,,,135.14403339999262,135.14403339999262,136.14498240000103,136.1479920001002,136.1479920001002,136.1479920001002,136.1479920001002,137.45757940004114,x,1.305779300048016,None,,,,,,,,MW_th,001,2025-03-23_17h07.32.256,MainFlow,2024.2.4,144.12897810187465,2025-03-23 17h07.43.320394 +0700,
1,1,51,word/wordth0511.png,74,74,0,z,0.7907588999951258,None,0,74,74,74,137.46295230009127,,,,,,,137.46295230009127,137.46295230009127,138.48160490009468,138.48526560002938,138.48526560002938,138.48526560002938,138.48526560002938,139.27730330009945,z,0.7907588999951258,None,,,,,,,,MW_th,001,2025-03-23_17h07.32.256,MainFlow,2024.2.4,144.12897810187465,2025-03-23 17h07.43.320394 +0700,
1,2,50,word/wordth0502.png,75,75,0,x,0.6637753000250086,None,0,75,75,75,139.2828074999852,,,,,,,139.2828074999852,139.2828074999852,140.28269800008275,140.28575090004597,140.28575090004597,140.28575090004597,140.28575090004597,140.95118040009402,x,0.6637753000250086,None,,,,,,,,MW_th,001,2025-03-23_17h07.32.256,MainFlow,2024.2.4,144.12897810187465,2025-03-23 17h07.43.320394 +0700,
1,3,95,word/wordth0953.png,76,76,0,x,1.4967521999496967,None,0,76,76,76,140.95550760009792,,,,,,,140.95550760009792,140.95550760009792,141.9572053999873,141.96001560008153,141.96001560008153,141.96001560008153,141.96001560008153,143.4637752000708,x,1.4967521999496967,None,,,,,,,,MW_th,001,2025-03-23_17h07.32.256,MainFlow,2024.2.4,144.12897810187465,2025-03-23 17h07.43.320394 +0700,
1,1,75,word/wordth0751.png,77,77,0,z,0.7285925999749452,None,0,77,77,77,143.46879360009916,,,,,,,143.46879360009916,143.46879360009916,144.4860852001002,144.48945340001956,144.48945340001956,144.48945340001956,144.48945340001956,145.22028960008174,z,0.7285925999749452,None,,,,,,,,MW_th,001,2025-03-23_17h07.32.256,MainFlow,2024.2.4,144.12897810187465,2025-03-23 17h07.43.320394 +0700,
1,1,95,word/wordth0951.png,78,78,0,z,0.8353806999512017,None,0,78,78,78,145.2253791000694,,,,,,,145.2253791000694,145.2253791000694,146.2412839999888,146.24472310009878,146.24472310009878,146.24472310009878,146.24472310009878,147.0874917000765,z,0.8353806999512017,None,,,,,,,,MW_th,001,2025-03-23_17h07.32.256,MainFlow,2024.2.4,144.12897810187465,2025-03-23 17h07.43.320394 +0700,
1,2,8,word/wordth0082.png,79,79,0,x,0.6742853000760078,None,0,79,79,79,147.09303580003325,,,,,,,147.09303580003325,147.09303580003325,148.11135810008273,148.1146926000947,148.1146926000947,148.1146926000947,148.1146926000947,148.79623410000931,x,0.6742853000760078,None,,,,,,,,MW_th,001,2025-03-23_17h07.32.256,MainFlow,2024.2.4,144.12897810187465,2025-03-23 17h07.43.320394 +0700,
1,3,75,word/wordth0753.png,80,80,0,x,1.0749269999796525,None,0,80,80,80,148.8011805000715,,,,,,,148.8011805000715,148.8011805000715,149.8092657000525,149.81295880000107,149.81295880000107,149.81295880000107,149.81295880000107,150.89285280008335,x,1.0749269999796525,None,,,,,,,,MW_th,001,2025-03-23_17h07.32.256,MainFlow,2024.2.4,144.12897810187465,2025-03-23 17h07.43.320394 +0700,
1,1,28,word/wordth0281.png,81,81,0,z,0.7584565000142902,None,0,81,81,81,150.89791380008683,,,,,,,150.89791380008683,150.89791380008683,151.91392260009889,151.91767360002268,151.91767360002268,151.91767360002268,151.91767360002268,152.68335980002303,z,0.7584565000142902,None,,,,,,,,MW_th,001,2025-03-23_17h07.32.256,MainFlow,2024.2.4,144.12897810187465,2025-03-23 17h07.43.320394 +0700,
1,3,42,word/wordth0423.png,82,82,0,x,1.3714400000171736,None,0,82,82,82,152.68923910008743,,,,,,,152.68923910008743,152.68923910008743,153.70712100004312,153.7103127000155,153.7103127000155,153.7103127000155,153.7103127000155,155.08738160005305,x,1.3714400000171736,None,,,,,,,,MW_th,001,2025-03-23_17h07.32.256,MainFlow,2024.2.4,144.12897810187465,2025-03-23 17h07.43.320394 +0700,
1,3,46,word/wordth0463.png,83,83,0,x,0.9309883000096306,None,0,83,83,83,155.09288370003924,,,,,,,155.09288370003924,155.09288370003924,156.10711069998797,156.11055510002188,156.11055510002188,156.11055510002188,156.11055510002188,157.04505040007643,x,0.9309883000096306,None,,,,,,,,MW_th,001,2025-03-23_17h07.32.256,MainFlow,2024.2.4,144.12897810187465,2025-03-23 17h07.43.320394 +0700,
1,3,1,word/wordth0013.png,84,84,0,x,0.5594345000572503,None,0,84,84,84,157.04946830007248,,,,,,,157.04946830007248,157.04946830007248,158.04898720001802,158.0518019000301,158.0518019000301,158.0518019000301,158.0518019000301,158.61354940000456,x,0.5594345000572503,None,,,,,,,,MW_th,001,2025-03-23_17h07.32.256,MainFlow,2024.2.4,144.12897810187465,2025-03-23 17h07.43.320394 +0700,
1,2,70,word/wordth0702.png,85,85,0,x,0.6595840000081807,None,0,85,85,85,158.61860130005516,,,,,,,158.61860130005516,158.61860130005516,159.6318770000944,159.63513050007168,159.63513050007168,159.63513050007168,159.63513050007168,160.30067460006103,x,0.6595840000081807,None,,,,,,,,MW_th,001,2025-03-23_17h07.32.256,MainFlow,2024.2.4,144.12897810187465,2025-03-23 17h07.43.320394 +0700,
1,1,7,word/wordth0071.png,86,86,0,z,0.7707805999089032,None,0,86,86,86,160.30590260005556,,,,,,,160.30590260005556,160.30590260005556,161.32373320008628,161.32733430003282,161.32733430003282,161.32733430003282,161.32733430003282,162.10549420001917,z,0.7707805999089032,None,,,,,,,,MW_th,001,2025-03-23_17h07.32.256,MainFlow,2024.2.4,144.12897810187465,2025-03-23 17h07.43.320394 +0700,
1,2,7,word/wordth0072.png,87,87,0,x,0.80920680006966,None,0,87,87,87,162.1109747000737,,,,,,,162.1109747000737,162.1109747000737,163.12242720008362,163.1257439000765,163.1257439000765,163.1257439000765,163.1257439000765,163.93868020002265,x,0.80920680006966,None,,,,,,,,MW_th,001,2025-03-23_17h07.32.256,MainFlow,2024.2.4,144.12897810187465,2025-03-23 17h07.43.320394 +0700,
1,2,24,word/wordth0242.png,88,88,0,x,0.7823095000348985,None,0,88,88,88,163.9439783000853,,,,,,,163.9439783000853,163.9439783000853,164.95669170003384,164.95992890000343,164.95992890000343,164.95992890000343,164.95992890000343,165.74458699999377,x,0.7823095000348985,None,,,,,,,,MW_th,001,2025-03-23_17h07.32.256,MainFlow,2024.2.4,144.12897810187465,2025-03-23 17h07.43.320394 +0700,
1,3,26,word/wordth0263.png,89,89,0,x,0.5892686999868602,None,0,89,89,89,165.7491788000334,,,,,,,165.7491788000334,165.7491788000334,166.7724013000261,166.7755231000483,166.7755231000483,166.7755231000483,166.7755231000483,167.3687707000645,x,0.5892686999868602,None,,,,,,,,MW_th,001,2025-03-23_17h07.32.256,MainFlow,2024.2.4,144.12897810187465,2025-03-23 17h07.43.320394 +0700,
1,2,23,word/wordth0232.png,90,90,0,x,0.5405817000428215,None,0,90,90,90,167.37388480000664,,,,,,,167.37388480000664,167.37388480000664,168.38952150009573,168.39297100005206,168.39297100005206,168.39297100005206,168.39297100005206,168.9377986000618,x,0.5405817000428215,None,,,,,,,,MW_th,001,2025-03-23_17h07.32.256,MainFlow,2024.2.4,144.12897810187465,2025-03-23 17h07.43.320394 +0700,
1,2,75,word/wordth0752.png,91,91,0,x,0.8440359000815079,None,0,91,91,91,168.9431146000279,,,,,,,168.9431146000279,168.9431146000279,169.95416170009412,169.95761630008928,169.95761630008928,169.95761630008928,169.95761630008928,170.80550880008377,x,0.8440359000815079,None,,,,,,,,MW_th,001,2025-03-23_17h07.32.256,MainFlow,2024.2.4,144.12897810187465,2025-03-23 17h07.43.320394 +0700,
1,2,6,word/wordth0062.png,92,92,0,x,0.6581806000322104,None,0,92,92,92,170.8106879000552,,,,,,,170.8106879000552,170.8106879000552,171.82535400008783,171.82892390002962,171.82892390002962,171.82892390002962,171.82892390002962,172.49274580006022,x,0.6581806000322104,None,,,,,,,,MW_th,001,2025-03-23_17h07.32.256,MainFlow,2024.2.4,144.12897810187465,2025-03-23 17h07.43.320394 +0700,
1,2,93,word/wordth0932.png,93,93,0,x,0.7372530000284314,None,0,93,93,93,172.4979434000561,,,,,,,172.4979434000561,172.4979434000561,173.49523180001415,173.49820490006823,173.49820490006823,173.49820490006823,173.49820490006823,174.2426333000185,x,0.7372530000284314,None,,,,,,,,MW_th,001,2025-03-23_17h07.32.256,MainFlow,2024.2.4,144.12897810187465,2025-03-23 17h07.43.320394 +0700,
1,2,48,word/wordth0482.png,94,94,0,x,0.4852013000054285,None,0,94,94,94,174.24754070001654,,,,,,,174.24754070001654,174.24754070001654,175.2637437999947,175.26719929999672,175.26719929999672,175.26719929999672,175.26719929999672,175.75604450004175,x,0.4852013000054285,None,,,,,,,,MW_th,001,2025-03-23_17h07.32.256,MainFlow,2024.2.4,144.12897810187465,2025-03-23 17h07.43.320394 +0700,
1,1,70,word/wordth0701.png,95,95,0,z,0.6641049000900239,None,0,95,95,95,175.76116910006385,,,,,,,175.76116910006385,175.76116910006385,176.76819630002137,176.77178370009642,176.77178370009642,176.77178370009642,176.77178370009642,177.44307160004973,z,0.6641049000900239,None,,,,,,,,MW_th,001,2025-03-23_17h07.32.256,MainFlow,2024.2.4,144.12897810187465,2025-03-23 17h07.43.320394 +0700,
1,2,66,word/wordth0662.png,96,96,0,x,0.5793061000294983,None,0,96,96,96,177.44834050000645,,,,,,,177.44834050000645,177.44834050000645,178.46483180008363,178.46830740000587,178.46830740000587,178.46830740000587,178.46830740000587,179.05469550006092,x,0.5793061000294983,None,,,,,,,,MW_th,001,2025-03-23_17h07.32.256,MainFlow,2024.2.4,144.12897810187465,2025-03-23 17h07.43.320394 +0700,
1,1,26,word/wordth0261.png,97,97,0,z,0.6732359000016004,None,0,97,97,97,179.05912410002202,,,,,,,179.05912410002202,179.05912410002202,180.07490690005943,180.07878570002504,180.07878570002504,180.07878570002504,180.07878570002504,180.7556783000473,z,0.6732359000016004,None,,,,,,,,MW_th,001,2025-03-23_17h07.32.256,MainFlow,2024.2.4,144.12897810187465,2025-03-23 17h07.43.320394 +0700,
1,3,9,word/wordth0093.png,98,98,0,x,0.49388389999512583,None,0,98,98,98,180.76039730000775,,,,,,,180.76039730000775,180.76039730000775,181.75727750000078,181.76010549999774,181.76010549999774,181.76010549999774,181.76010549999774,182.26152540009934,x,0.49388389999512583,None,,,,,,,,MW_th,001,2025-03-23_17h07.32.256,MainFlow,2024.2.4,144.12897810187465,2025-03-23 17h07.43.320394 +0700,
1,2,61,word/wordth0612.png,99,99,0,x,0.44857299991417676,None,0,99,99,99,182.26685600006022,,,,,,,182.26685600006022,182.26685600006022,183.28627230005804,183.28949650004506,183.28949650004506,183.28949650004506,183.28949650004506,183.74067770002875,x,0.44857299991417676,None,,,,,,,,MW_th,001,2025-03-23_17h07.32.256,MainFlow,2024.2.4,144.12897810187465,2025-03-23 17h07.43.320394 +0700,
1,3,8,word/wordth0083.png,100,100,0,x,0.5022347000194713,None,0,100,100,100,183.74570400000084,,,,,,,183.74570400000084,183.74570400000084,184.77102169999853,184.77467529999558,184.77467529999558,184.77467529999558,184.77467529999558,185.28180180001073,x,0.5022347000194713,None,,,,,,,,MW_th,001,2025-03-23_17h07.32.256,MainFlow,2024.2.4,144.12897810187465,2025-03-23 17h07.43.320394 +0700,
1,1,8,word/wordth0081.png,101,101,0,z,0.8907078999327496,None,0,101,101,101,185.28707200009376,,,,,,,185.28707200009376,185.28707200009376,186.30270250001922,186.30605040001683,186.30605040001683,186.30605040001683,186.30605040001683,187.19814290001523,z,0.8907078999327496,None,,,,,,,,MW_th,001,2025-03-23_17h07.32.256,MainFlow,2024.2.4,144.12897810187465,2025-03-23 17h07.43.320394 +0700,
1,2,44,word/wordth0442.png,102,102,0,x,0.7628810999449342,None,0,102,102,102,187.2033726000227,,,,,,,187.2033726000227,187.2033726000227,188.22545380005613,188.22915150003973,188.22915150003973,188.22915150003973,188.22915150003973,188.99679580004886,x,0.7628810999449342,None,,,,,,,,MW_th,001,2025-03-23_17h07.32.256,MainFlow,2024.2.4,144.12897810187465,2025-03-23 17h07.43.320394 +0700,
1,3,31,word/wordth0313.png,103,103,0,x,0.8240711000980809,None,0,103,103,103,189.00164070003666,,,,,,,189.00164070003666,189.00164070003666,189.99533549998887,189.9981332999887,189.9981332999887,189.9981332999887,189.9981332999887,190.83034650003538,x,0.8240711000980809,None,,,,,,,,MW_th,001,2025-03-23_17h07.32.256,MainFlow,2024.2.4,144.12897810187465,2025-03-23 17h07.43.320394 +0700,
1,1,89,word/wordth0891.png,104,104,0,z,0.9494572000112385,None,0,104,104,104,190.8352162000956,,,,,,,190.8352162000956,190.8352162000956,191.8355406000046,191.83838179998565,191.83838179998565,191.83838179998565,191.83838179998565,192.7947198000038,z,0.9494572000112385,None,,,,,,,,MW_th,001,2025-03-23_17h07.32.256,MainFlow,2024.2.4,144.12897810187465,2025-03-23 17h07.43.320394 +0700,
1,3,70,word/wordth0703.png,105,105,0,x,0.9150297999149188,None,0,105,105,105,192.7996134000132,,,,,,,192.7996134000132,192.7996134000132,193.81926930008922,193.82266679999884,193.82266679999884,193.82266679999884,193.82266679999884,194.73980470001698,x,0.9150297999149188,None,,,,,,,,MW_th,001,2025-03-23_17h07.32.256,MainFlow,2024.2.4,144.12897810187465,2025-03-23 17h07.43.320394 +0700,
1,3,68,word/wordth0683.png,106,106,0,x,0.7020364999771118,None,0,106,106,106,194.74521220009774,,,,,,,194.74521220009774,194.74521220009774,195.7585764999967,195.7620520000346,195.7620520000346,195.7620520000346,195.7620520000346,196.46855029999278,x,0.7020364999771118,None,,,,,,,,MW_th,001,2025-03-23_17h07.32.256,MainFlow,2024.2.4,144.12897810187465,2025-03-23 17h07.43.320394 +0700,
1,3,10,word/wordth0103.png,107,107,0,x,1.0962552999844775,None,0,107,107,107,196.47304439998697,,,,,,,196.47304439998697,196.47304439998697,197.48858350003138,197.49209350009914,197.49209350009914,197.49209350009914,197.49209350009914,198.59181340003852,x,1.0962552999844775,None,,,,,,,,MW_th,001,2025-03-23_17h07.32.256,MainFlow,2024.2.4,144.12897810187465,2025-03-23 17h07.43.320394 +0700,
1,3,94,word/wordth0943.png,108,108,0,x,0.9429912000196055,None,0,108,108,108,198.59699620003812,,,,,,,198.59699620003812,198.59699620003812,199.60418920009397,199.60705039999448,199.60705039999448,199.60705039999448,199.60705039999448,200.55793080001604,x,0.9429912000196055,None,,,,,,,,MW_th,001,2025-03-23_17h07.32.256,MainFlow,2024.2.4,144.12897810187465,2025-03-23 17h07.43.320394 +0700,
1,1,3,word/wordth0031.png,109,109,0,z,0.7040406999876723,None,0,109,109,109,200.5630167000927,,,,,,,200.5630167000927,200.5630167000927,201.57577800005674,201.57944250002038,201.57944250002038,201.57944250002038,201.57944250002038,202.28667070006486,z,0.7040406999876723,None,,,,,,,,MW_th,001,2025-03-23_17h07.32.256,MainFlow,2024.2.4,144.12897810187465,2025-03-23 17h07.43.320394 +0700,
1,3,63,word/wordth0633.png,110,110,0,x,0.6104451999999583,None,0,110,110,110,202.29212640004698,,,,,,,202.29212640004698,202.29212640004698,203.2878847999964,203.29069280007388,203.29069280007388,203.29069280007388,203.29069280007388,203.90463310002815,x,0.6104451999999583,None,,,,,,,,MW_th,001,2025-03-23_17h07.32.256,MainFlow,2024.2.4,144.12897810187465,2025-03-23 17h07.43.320394 +0700,
1,2,9,word/wordth0092.png,111,111,0,x,0.9032776999520138,None,0,111,111,111,203.9103563000681,,,,,,,203.9103563000681,203.9103563000681,204.90566050005145,204.90906239999458,204.90906239999458,204.90906239999458,204.90906239999458,205.819804900093,x,0.9032776999520138,None,,,,,,,,MW_th,001,2025-03-23_17h07.32.256,MainFlow,2024.2.4,144.12897810187465,2025-03-23 17h07.43.320394 +0700,
1,3,7,word/wordth0073.png,112,112,0,x,0.6328790000407025,None,0,112,112,112,205.8248362999875,,,,,,,205.8248362999875,205.8248362999875,206.86999690008815,206.873591999989,206.873591999989,206.873591999989,206.873591999989,207.5139710000949,x,0.6328790000407025,None,,,,,,,,MW_th,001,2025-03-23_17h07.32.256,MainFlow,2024.2.4,144.12897810187465,2025-03-23 17h07.43.320394 +0700,
1,2,41,word/wordth0412.png,113,113,0,x,0.5146040000254288,None,0,113,113,113,207.51889360009227,,,,,,,207.51889360009227,207.51889360009227,208.54604330006987,208.54973900003824,208.54973900003824,208.54973900003824,208.54973900003824,209.0698719000211,x,0.5146040000254288,None,,,,,,,,MW_th,001,2025-03-23_17h07.32.256,MainFlow,2024.2.4,144.12897810187465,2025-03-23 17h07.43.320394 +0700,
1,1,9,word/wordth0091.png,114,114,0,z,1.0765999000286683,None,0,114,114,114,209.07419449998997,,,,,,,209.07419449998997,209.07419449998997,210.0692096001003,210.07204660004936,210.07204660004936,210.07204660004936,210.07204660004936,211.15128680004273,z,1.0765999000286683,None,,,,,,,,MW_th,001,2025-03-23_17h07.32.256,MainFlow,2024.2.4,144.12897810187465,2025-03-23 17h07.43.320394 +0700,
1,1,94,word/wordth0941.png,115,115,0,z,0.6477924000937492,None,0,115,115,115,211.15694540005643,,,,,,,211.15694540005643,211.15694540005643,212.17610949999653,212.17962020006962,212.17962020006962,212.17962020006962,212.17962020006962,212.83325250004418,z,0.6477924000937492,None,,,,,,,,MW_th,001,2025-03-23_17h07.32.256,MainFlow,2024.2.4,144.12897810187465,2025-03-23 17h07.43.320394 +0700,
1,1,52,word/wordth0521.png,116,116,0,z,0.5620788000524044,None,0,116,116,116,212.83751800004393,,,,,,,212.83751800004393,212.83751800004393,213.8556548000779,213.85897340008523,213.85897340008523,213.85897340008523,213.85897340008523,214.42232150002383,z,0.5620788000524044,None,,,,,,,,MW_th,001,2025-03-23_17h07.32.256,MainFlow,2024.2.4,144.12897810187465,2025-03-23 17h07.43.320394 +0700,
1,2,88,word/wordth0882.png,117,117,0,x,1.0472366000758484,None,0,117,117,117,214.42726860009134,,,,,,,214.42726860009134,214.42726860009134,215.46266130008735,215.46605390007608,215.46605390007608,215.46605390007608,215.46605390007608,216.51851710001938,x,1.0472366000758484,None,,,,,,,,MW_th,001,2025-03-23_17h07.32.256,MainFlow,2024.2.4,144.12897810187465,2025-03-23 17h07.43.320394 +0700,
1,1,41,word/wordth0411.png,118,118,0,z,1.0326667999615893,None,0,118,118,118,216.5240357000148,,,,,,,216.5240357000148,216.5240357000148,217.52427390008233,217.52720020001289,217.52720020001289,217.52720020001289,217.52720020001289,218.56652750005014,z,1.0326667999615893,None,,,,,,,,MW_th,001,2025-03-23_17h07.32.256,MainFlow,2024.2.4,144.12897810187465,2025-03-23 17h07.43.320394 +0700,
1,3,30,word/wordth0303.png,119,119,0,x,1.0464258999563754,None,0,119,119,119,218.57225670001935,,,,,,,218.57225670001935,218.57225670001935,219.5773217000533,219.58090770000126,219.58090770000126,219.58090770000126,219.58090770000126,220.6285487000132,x,1.0464258999563754,None,,,,,,,,MW_th,001,2025-03-23_17h07.32.256,MainFlow,2024.2.4,144.12897810187465,2025-03-23 17h07.43.320394 +0700,
,,,,,,,,,,,,,,,,,,,,,,,,,,,,,,,,220.62863560009282,220.63428300002124,220.63428300002124,227.60598850005772,space,6.968367499997839,None,MW_th,001,2025-03-23_17h07.32.256,MainFlow,2024.2.4,144.12897810187465,2025-03-23 17h07.43.320394 +0700,
