lang,stimuli,imageid,worddir,thisN,thisTrialN,thisRepN,key_resp.keys,key_resp.rt,key_resp.duration,trials.thisRepN,trials.thisTrialN,trials.thisN,trials.thisIndex,thisRow.t,notes,tutorial.started,tutorial.stopped,key_instruct.keys,key_instruct.rt,key_instruct.duration,instructblank.started,cross1.started,letterselect.started,imageword.started,text_2.started,cross2.started,key_resp.started,letterselect.stopped,trials.key_resp.keys,trials.key_resp.rt,trials.key_resp.duration,instructblank.stopped,cross1.stopped,ending.started,text_3.started,ending_key.started,ending.stopped,ending_key.keys,ending_key.rt,ending_key.duration,participant,session,date,expName,psychopyVersion,frameRate,expStart,
,,,,,,,,,,,,,,,,0.0063771999994060025,6.1349756999998135,space,6.076025899999877,None,,,,,,,,,,,,,,,,,,,,,NU_en,001,2025-03-07_12h15.15.622,MainFlow,2024.2.4,144.15661174336302,2025-03-07 12h15.41.917474 +0700,
2,1,66,word/worden0661.png,0,0,0,z,2.58165469999949,None,0,0,0,0,6.244009699999879,,,,,,,6.244009699999879,6.244009699999879,7.166169799999807,7.208838499999729,7.208838499999729,7.208838499999729,7.208838499999729,9.800435000000107,z,2.58165469999949,None,,,,,,,,,,NU_en,001,2025-03-07_12h15.15.622,MainFlow,2024.2.4,144.15661174336302,2025-03-07 12h15.41.917474 +0700,
2,1,3,word/worden0031.png,1,1,0,z,1.0058250000001863,None,0,1,1,1,9.805736599999364,,,,,,,9.805736599999364,9.805736599999364,10.824339300000247,10.831143700000212,10.831143700000212,10.831143700000212,10.831143700000212,11.839302299999872,z,1.0058250000001863,None,10.831143700000212,10.831143700000212,,,,,,,,NU_en,001,2025-03-07_12h15.15.622,MainFlow,2024.2.4,144.15661174336302,2025-03-07 12h15.41.917474 +0700,
2,2,71,word/worden0712.png,2,2,0,x,1.0101688000004287,None,0,2,2,2,11.844681800000217,,,,,,,11.844681800000217,11.844681800000217,12.85632429999987,12.863140399999793,12.863140399999793,12.863140399999793,12.863140399999793,13.882670799999687,x,1.0101688000004287,None,,,,,,,,,,NU_en,001,2025-03-07_12h15.15.622,MainFlow,2024.2.4,144.15661174336302,2025-03-07 12h15.41.917474 +0700,
2,3,27,word/worden0273.png,3,3,0,x,0.9768440000007104,None,0,3,3,3,13.888715799999773,,,,,,,13.888715799999773,13.888715799999773,14.904557899999418,14.911263699999836,14.911263699999836,14.911263699999836,14.911263699999836,15.895174899999802,x,0.9768440000007104,None,14.911263699999836,14.911263699999836,,,,,,,,NU_en,001,2025-03-07_12h15.15.622,MainFlow,2024.2.4,144.15661174336302,2025-03-07 12h15.41.917474 +0700,
2,3,88,word/worden0883.png,4,4,0,x,1.0579391999999643,None,0,4,4,4,15.900495199999568,,,,,,,15.900495199999568,15.900495199999568,16.912064299999656,16.919003500000144,16.919003500000144,16.919003500000144,16.919003500000144,17.986583699999755,x,1.0579391999999643,None,,,,,,,,,,NU_en,001,2025-03-07_12h15.15.622,MainFlow,2024.2.4,144.15661174336302,2025-03-07 12h15.41.917474 +0700,
2,1,28,word/worden0281.png,5,5,0,z,0.8796385000005102,None,0,5,5,5,17.991790899999614,,,,,,,17.991790899999614,17.991790899999614,19.011285699999462,19.017974299999878,19.017974299999878,19.017974299999878,19.017974299999878,19.901042399999824,z,0.8796385000005102,None,19.017974299999878,19.017974299999878,,,,,,,,NU_en,001,2025-03-07_12h15.15.622,MainFlow,2024.2.4,144.15661174336302,2025-03-07 12h15.41.917474 +0700,
2,1,50,word/worden0501.png,6,6,0,z,1.7832005999998728,None,0,6,6,6,19.908549400000084,,,,,,,19.908549400000084,19.908549400000084,20.91944220000005,20.926166199999898,20.926166199999898,20.926166199999898,20.926166199999898,22.713257399999748,z,1.7832005999998728,None,,,,,,,,,,NU_en,001,2025-03-07_12h15.15.622,MainFlow,2024.2.4,144.15661174336302,2025-03-07 12h15.41.917474 +0700,
2,1,41,word/worden0411.png,7,7,0,z,1.0091120999995837,None,0,7,7,7,22.719445599999744,,,,,,,22.719445599999744,22.719445599999744,23.729308599999968,23.735999800000172,23.735999800000172,23.735999800000172,23.735999800000172,24.74824929999977,z,1.0091120999995837,None,,,,,,,,,,NU_en,001,2025-03-07_12h15.15.622,MainFlow,2024.2.4,144.15661174336302,2025-03-07 12h15.41.917474 +0700,
2,2,52,word/worden0522.png,8,8,0,x,0.8998074999999517,None,0,8,8,8,24.754210999999486,,,,,,,24.754210999999486,24.754210999999486,25.77147960000002,25.77818860000025,25.77818860000025,25.77818860000025,25.77818860000025,26.686023899999782,x,0.8998074999999517,None,25.77818860000025,25.77818860000025,,,,,,,,NU_en,001,2025-03-07_12h15.15.622,MainFlow,2024.2.4,144.15661174336302,2025-03-07 12h15.41.917474 +0700,
2,3,6,word/worden0063.png,9,9,0,x,1.5215159999997923,None,0,9,9,9,26.691276300000027,,,,,,,26.691276300000027,26.691276300000027,27.708343299999797,27.714922099999967,27.714922099999967,27.714922099999967,27.714922099999967,29.239528199999768,x,1.5215159999997923,None,27.714922099999967,27.714922099999967,,,,,,,,NU_en,001,2025-03-07_12h15.15.622,MainFlow,2024.2.4,144.15661174336302,2025-03-07 12h15.41.917474 +0700,
2,3,46,word/worden0463.png,10,10,0,x,2.37990389999959,None,0,10,10,10,29.24713520000023,,,,,,,29.24713520000023,29.24713520000023,30.25884640000004,30.265499199999795,30.265499199999795,30.265499199999795,30.265499199999795,32.64969349999956,x,2.37990389999959,None,,,,,,,,,,NU_en,001,2025-03-07_12h15.15.622,MainFlow,2024.2.4,144.15661174336302,2025-03-07 12h15.41.917474 +0700,
2,2,30,word/worden0302.png,11,11,0,x,1.2732137000002695,None,0,11,11,11,32.65624479999951,,,,,,,32.65624479999951,32.65624479999951,33.67381690000002,33.680685399999675,33.680685399999675,33.680685399999675,33.680685399999675,34.95947249999972,x,1.2732137000002695,None,,,,,,,,,,NU_en,001,2025-03-07_12h15.15.622,MainFlow,2024.2.4,144.15661174336302,2025-03-07 12h15.41.917474 +0700,
2,2,46,word/worden0462.png,12,12,0,x,1.283858999999211,None,0,12,12,12,34.96427929999936,,,,,,,34.96427929999936,34.96427929999936,35.97801579999941,35.984671100000014,35.984671100000014,35.984671100000014,35.984671100000014,37.27294949999941,x,1.283858999999211,None,,,,,,,,,,NU_en,001,2025-03-07_12h15.15.622,MainFlow,2024.2.4,144.15661174336302,2025-03-07 12h15.41.917474 +0700,
2,2,70,word/worden0702.png,13,13,0,x,1.116001999999753,None,0,13,13,13,37.27960079999957,,,,,,,37.27960079999957,37.27960079999957,38.28322549999939,38.28807229999984,38.28807229999984,38.28807229999984,38.28807229999984,39.41193639999983,x,1.116001999999753,None,38.28807229999984,38.28807229999984,,,,,,,,NU_en,001,2025-03-07_12h15.15.622,MainFlow,2024.2.4,144.15661174336302,2025-03-07 12h15.41.917474 +0700,
2,1,70,word/worden0701.png,14,14,0,z,0.9296922999992603,None,0,14,14,14,39.417252799999915,,,,,,,39.417252799999915,39.417252799999915,40.43625809999958,40.44307959999969,40.44307959999969,40.44307959999969,40.44307959999969,41.376143699999375,z,0.9296922999992603,None,40.44307959999969,40.44307959999969,,,,,,,,NU_en,001,2025-03-07_12h15.15.622,MainFlow,2024.2.4,144.15661174336302,2025-03-07 12h15.41.917474 +0700,
2,1,8,word/worden0081.png,15,15,0,z,1.2922796000002563,None,0,15,15,15,41.382087999999385,,,,,,,41.382087999999385,41.382087999999385,42.39265379999961,42.39921259999937,42.39921259999937,42.39921259999937,42.39921259999937,43.695098099999996,z,1.2922796000002563,None,,,,,,,,,,NU_en,001,2025-03-07_12h15.15.622,MainFlow,2024.2.4,144.15661174336302,2025-03-07 12h15.41.917474 +0700,
2,3,61,word/worden0613.png,16,16,0,x,1.1558588999996573,None,0,16,16,16,43.701430600000094,,,,,,,43.701430600000094,43.701430600000094,44.71272489999956,44.71950359999937,44.71950359999937,44.71950359999937,44.71950359999937,45.88297289999991,x,1.1558588999996573,None,,,,,,,,,,NU_en,001,2025-03-07_12h15.15.622,MainFlow,2024.2.4,144.15661174336302,2025-03-07 12h15.41.917474 +0700,
2,3,10,word/worden0103.png,17,17,0,x,1.1297543000000587,None,0,17,17,17,45.888645,,,,,,,45.888645,45.888645,46.90696149999985,46.91368919999968,46.91368919999968,46.91368919999968,46.91368919999968,48.04894839999997,x,1.1297543000000587,None,46.91368919999968,46.91368919999968,,,,,,,,NU_en,001,2025-03-07_12h15.15.622,MainFlow,2024.2.4,144.15661174336302,2025-03-07 12h15.41.917474 +0700,
2,3,75,word/worden0753.png,18,18,0,x,0.8758978999994724,None,0,18,18,18,48.05598949999967,,,,,,,48.05598949999967,48.05598949999967,49.065304099999594,49.07192049999958,49.07192049999958,49.07192049999958,49.07192049999958,49.951591899999585,x,0.8758978999994724,None,,,,,,,,,,NU_en,001,2025-03-07_12h15.15.622,MainFlow,2024.2.4,144.15661174336302,2025-03-07 12h15.41.917474 +0700,
2,2,63,word/worden0632.png,19,19,0,x,0.6798500999993848,None,0,19,19,19,49.9573163999994,,,,,,,49.9573163999994,49.9573163999994,50.973097199999756,50.979704200000015,50.979704200000015,50.979704200000015,50.979704200000015,51.66464519999954,x,0.6798500999993848,None,50.979704200000015,50.979704200000015,,,,,,,,NU_en,001,2025-03-07_12h15.15.622,MainFlow,2024.2.4,144.15661174336302,2025-03-07 12h15.41.917474 +0700,
2,3,11,word/worden0113.png,20,20,0,x,0.8077744000001985,None,0,20,20,20,51.66941229999975,,,,,,,51.66941229999975,51.66941229999975,52.68218609999985,52.68873299999996,52.68873299999996,52.68873299999996,52.68873299999996,53.5002513999998,x,0.8077744000001985,None,,,,,,,,,,NU_en,001,2025-03-07_12h15.15.622,MainFlow,2024.2.4,144.15661174336302,2025-03-07 12h15.41.917474 +0700,
2,2,89,word/worden0892.png,21,21,0,x,0.6730335000002015,None,0,21,21,21,53.506364400000166,,,,,,,53.506364400000166,53.506364400000166,54.521710600000006,54.528652999999395,54.528652999999395,54.528652999999395,54.528652999999395,55.2067092999996,x,0.6730335000002015,None,,,,,,,,,,NU_en,001,2025-03-07_12h15.15.622,MainFlow,2024.2.4,144.15661174336302,2025-03-07 12h15.41.917474 +0700,
2,1,9,word/worden0091.png,22,22,0,z,0.9344491000001653,None,0,22,22,22,55.21255719999954,,,,,,,55.21255719999954,55.21255719999954,56.209340899999916,56.21412499999951,56.21412499999951,56.21412499999951,56.21412499999951,57.15190009999969,z,0.9344491000001653,None,,,,,,,,,,NU_en,001,2025-03-07_12h15.15.622,MainFlow,2024.2.4,144.15661174336302,2025-03-07 12h15.41.917474 +0700,
2,3,28,word/worden0283.png,23,23,0,x,2.971076300000277,None,0,23,23,23,57.157867899999474,,,,,,,57.157867899999474,57.157867899999474,58.179377399999794,58.18609550000019,58.18609550000019,58.18609550000019,58.18609550000019,61.164492699999755,x,2.971076300000277,None,58.18609550000019,58.18609550000019,,,,,,,,NU_en,001,2025-03-07_12h15.15.622,MainFlow,2024.2.4,144.15661174336302,2025-03-07 12h15.41.917474 +0700,
2,1,82,word/worden0821.png,24,24,0,z,0.983149499999854,None,0,24,24,24,61.1719906999997,,,,,,,61.1719906999997,61.1719906999997,62.187855399999535,62.19428189999962,62.19428189999962,62.19428189999962,62.19428189999962,63.185657699999865,z,0.983149499999854,None,,,,,,,,,,NU_en,001,2025-03-07_12h15.15.622,MainFlow,2024.2.4,144.15661174336302,2025-03-07 12h15.41.917474 +0700,
2,2,28,word/worden0282.png,25,25,0,x,0.9270003999999972,None,0,25,25,25,63.19074039999941,,,,,,,63.19074039999941,63.19074039999941,64.20834089999971,64.21486019999975,64.21486019999975,64.21486019999975,64.21486019999975,65.14829459999964,x,0.9270003999999972,None,64.21486019999975,64.21486019999975,,,,,,,,NU_en,001,2025-03-07_12h15.15.622,MainFlow,2024.2.4,144.15661174336302,2025-03-07 12h15.41.917474 +0700,
2,1,23,word/worden0231.png,26,26,0,z,1.7889387999994142,None,0,26,26,26,65.1529972999997,,,,,,,65.1529972999997,65.1529972999997,66.16833009999937,66.17513609999969,66.17513609999969,66.17513609999969,66.17513609999969,67.96864670000014,z,1.7889387999994142,None,,,,,,,,,,NU_en,001,2025-03-07_12h15.15.622,MainFlow,2024.2.4,144.15661174336302,2025-03-07 12h15.41.917474 +0700,
2,2,42,word/worden0422.png,27,27,0,x,0.6728708000000552,None,0,27,27,27,67.9747196999997,,,,,,,67.9747196999997,67.9747196999997,68.98538779999944,68.99203140000009,68.99203140000009,68.99203140000009,68.99203140000009,69.66937989999951,x,0.6728708000000552,None,,,,,,,,,,NU_en,001,2025-03-07_12h15.15.622,MainFlow,2024.2.4,144.15661174336302,2025-03-07 12h15.41.917474 +0700,
2,2,93,word/worden0932.png,28,28,0,x,0.6949776999999813,None,0,28,28,28,69.67575500000021,,,,,,,69.67575500000021,69.67575500000021,70.68443829999978,70.69151719999991,70.69151719999991,70.69151719999991,70.69151719999991,71.39109589999953,x,0.6949776999999813,None,,,,,,,,,,NU_en,001,2025-03-07_12h15.15.622,MainFlow,2024.2.4,144.15661174336302,2025-03-07 12h15.41.917474 +0700,
2,1,88,word/worden0881.png,29,29,0,z,1.2923005999991801,None,0,29,29,29,71.39704829999937,,,,,,,71.39704829999937,71.39704829999937,72.4077226999998,72.41453079999974,72.41453079999974,72.41453079999974,72.41453079999974,73.71068800000012,z,1.2923005999991801,None,,,,,,,,,,NU_en,001,2025-03-07_12h15.15.622,MainFlow,2024.2.4,144.15661174336302,2025-03-07 12h15.41.917474 +0700,
2,3,31,word/worden0313.png,30,30,0,x,0.6944825999999011,None,0,30,30,30,73.7174656999996,,,,,,,73.7174656999996,73.7174656999996,74.73346459999993,74.73990369999956,74.73990369999956,74.73990369999956,74.73990369999956,75.43915920000018,x,0.6944825999999011,None,74.73990369999956,74.73990369999956,,,,,,,,NU_en,001,2025-03-07_12h15.15.622,MainFlow,2024.2.4,144.15661174336302,2025-03-07 12h15.41.917474 +0700,
2,2,75,word/worden0752.png,31,31,0,x,1.619914400000198,None,0,31,31,31,75.44515429999956,,,,,,,75.44515429999956,75.44515429999956,76.45559129999947,76.46227720000024,76.46227720000024,76.46227720000024,76.46227720000024,78.08491589999994,x,1.619914400000198,None,,,,,,,,,,NU_en,001,2025-03-07_12h15.15.622,MainFlow,2024.2.4,144.15661174336302,2025-03-07 12h15.41.917474 +0700,
2,2,48,word/worden0482.png,32,32,0,x,1.5948748000000705,None,0,32,32,32,78.09135189999961,,,,,,,78.09135189999961,78.09135189999961,79.10790399999951,79.11456999999973,79.11456999999973,79.11456999999973,79.11456999999973,80.71710540000004,x,1.5948748000000705,None,79.11456999999973,79.11456999999973,,,,,,,,NU_en,001,2025-03-07_12h15.15.622,MainFlow,2024.2.4,144.15661174336302,2025-03-07 12h15.41.917474 +0700,
2,1,26,word/worden0261.png,33,33,0,z,1.175345899999229,None,0,33,33,33,80.72231089999968,,,,,,,80.72231089999968,80.72231089999968,81.7391361,81.74607949999972,81.74607949999972,81.74607949999972,81.74607949999972,82.92938979999963,z,1.175345899999229,None,81.74607949999972,81.74607949999972,,,,,,,,NU_en,001,2025-03-07_12h15.15.622,MainFlow,2024.2.4,144.15661174336302,2025-03-07 12h15.41.917474 +0700,
2,2,41,word/worden0412.png,34,34,0,x,0.7703757999997833,None,0,34,34,34,82.9342117999995,,,,,,,82.9342117999995,82.9342117999995,83.94723499999964,83.95377749999989,83.95377749999989,83.95377749999989,83.95377749999989,84.72894279999946,x,0.7703757999997833,None,,,,,,,,,,NU_en,001,2025-03-07_12h15.15.622,MainFlow,2024.2.4,144.15661174336302,2025-03-07 12h15.41.917474 +0700,
2,3,66,word/worden0663.png,35,35,0,x,1.319766200000231,None,0,35,35,35,84.73553139999967,,,,,,,84.73553139999967,84.73553139999967,85.7446659999996,85.75135059999957,85.75135059999957,85.75135059999957,85.75135059999957,87.0745723,x,1.319766200000231,None,,,,,,,,,,NU_en,001,2025-03-07_12h15.15.622,MainFlow,2024.2.4,144.15661174336302,2025-03-07 12h15.41.917474 +0700,
2,1,6,word/worden0061.png,36,36,0,z,0.8350946000000476,None,0,36,36,36,87.07916759999989,,,,,,,87.07916759999989,87.07916759999989,88.09136539999963,88.09811179999997,88.09811179999997,88.09811179999997,88.09811179999997,88.93710490000012,z,0.8350946000000476,None,,,,,,,,,,NU_en,001,2025-03-07_12h15.15.622,MainFlow,2024.2.4,144.15661174336302,2025-03-07 12h15.41.917474 +0700,
2,1,42,word/worden0421.png,37,37,0,z,1.265247499999532,None,0,37,37,37,88.9438995999999,,,,,,,88.9438995999999,88.9438995999999,89.95943809999972,89.96655109999938,89.96655109999938,89.96655109999938,89.96655109999938,91.23474249999981,z,1.265247499999532,None,89.96655109999938,89.96655109999938,,,,,,,,NU_en,001,2025-03-07_12h15.15.622,MainFlow,2024.2.4,144.15661174336302,2025-03-07 12h15.41.917474 +0700,
2,3,41,word/worden0413.png,38,38,0,x,0.8213570000007167,None,0,38,38,38,91.2405192999995,,,,,,,91.2405192999995,91.2405192999995,92.25164640000003,92.25854119999985,92.25854119999985,92.25854119999985,92.25854119999985,93.0885687,x,0.8213570000007167,None,,,,,,,,,,NU_en,001,2025-03-07_12h15.15.622,MainFlow,2024.2.4,144.15661174336302,2025-03-07 12h15.41.917474 +0700,
2,2,23,word/worden0232.png,39,39,0,x,1.2205426999998963,None,0,39,39,39,93.09463119999964,,,,,,,93.09463119999964,93.09463119999964,94.10565609999958,94.11216409999997,94.11216409999997,94.11216409999997,94.11216409999997,95.33768640000017,x,1.2205426999998963,None,,,,,,,,,,NU_en,001,2025-03-07_12h15.15.622,MainFlow,2024.2.4,144.15661174336302,2025-03-07 12h15.41.917474 +0700,
2,3,96,word/worden0963.png,40,40,0,x,1.3365678000000116,None,0,40,40,40,95.34377330000007,,,,,,,95.34377330000007,95.34377330000007,96.3546368999996,96.36130039999989,96.36130039999989,96.36130039999989,96.36130039999989,97.70672039999954,x,1.3365678000000116,None,,,,,,,,,,NU_en,001,2025-03-07_12h15.15.622,MainFlow,2024.2.4,144.15661174336302,2025-03-07 12h15.41.917474 +0700,
2,1,61,word/worden0611.png,41,41,0,z,1.0007952999994814,None,0,41,41,41,97.71201000000019,,,,,,,97.71201000000019,97.71201000000019,98.72894970000016,98.73549600000024,98.73549600000024,98.73549600000024,98.73549600000024,99.74014929999976,z,1.0007952999994814,None,98.73549600000024,98.73549600000024,,,,,,,,NU_en,001,2025-03-07_12h15.15.622,MainFlow,2024.2.4,144.15661174336302,2025-03-07 12h15.41.917474 +0700,
2,3,9,word/worden0093.png,42,42,0,x,1.0911882000000332,None,0,42,42,42,99.74757749999935,,,,,,,99.74757749999935,99.74757749999935,100.76136619999943,100.76814319999994,100.76814319999994,100.76814319999994,100.76814319999994,101.86444659999961,x,1.0911882000000332,None,,,,,,,,,,NU_en,001,2025-03-07_12h15.15.622,MainFlow,2024.2.4,144.15661174336302,2025-03-07 12h15.41.917474 +0700,
2,3,63,word/worden0633.png,43,43,0,x,1.6861300000000483,None,0,43,43,43,101.87050799999997,,,,,,,101.87050799999997,101.87050799999997,102.88041749999957,102.88687010000012,102.88687010000012,102.88687010000012,102.88687010000012,104.58058239999991,x,1.6861300000000483,None,,,,,,,,,,NU_en,001,2025-03-07_12h15.15.622,MainFlow,2024.2.4,144.15661174336302,2025-03-07 12h15.41.917474 +0700,
2,3,50,word/worden0503.png,44,44,0,x,0.7249369000001025,None,0,44,44,44,104.58590249999997,,,,,,,104.58590249999997,104.58590249999997,105.60447099999965,105.6110093999996,105.6110093999996,105.6110093999996,105.6110093999996,106.34352729999955,x,0.7249369000001025,None,105.6110093999996,105.6110093999996,,,,,,,,NU_en,001,2025-03-07_12h15.15.622,MainFlow,2024.2.4,144.15661174336302,2025-03-07 12h15.41.917474 +0700,
2,2,27,word/worden0272.png,45,45,0,x,0.6164200000002893,None,0,45,45,45,106.3483354,,,,,,,106.3483354,106.3483354,107.36481589999948,107.37130869999964,107.37130869999964,107.37130869999964,107.37130869999964,107.99527260000013,x,0.6164200000002893,None,107.37130869999964,107.37130869999964,,,,,,,,NU_en,001,2025-03-07_12h15.15.622,MainFlow,2024.2.4,144.15661174336302,2025-03-07 12h15.41.917474 +0700,
2,2,61,word/worden0612.png,46,46,0,x,1.129647499999919,None,0,46,46,46,108.00109109999994,,,,,,,108.00109109999994,108.00109109999994,109.01253290000022,109.01938439999958,109.01938439999958,109.01938439999958,109.01938439999958,110.1543729999994,x,1.129647499999919,None,,,,,,,,,,NU_en,001,2025-03-07_12h15.15.622,MainFlow,2024.2.4,144.15661174336302,2025-03-07 12h15.41.917474 +0700,
2,3,7,word/worden0073.png,47,47,0,x,0.7109759000004487,None,0,47,47,47,110.16116199999942,,,,,,,110.16116199999942,110.16116199999942,111.17139690000022,111.17785540000023,111.17785540000023,111.17785540000023,111.17785540000023,111.89755939999941,x,0.7109759000004487,None,,,,,,,,,,NU_en,001,2025-03-07_12h15.15.622,MainFlow,2024.2.4,144.15661174336302,2025-03-07 12h15.41.917474 +0700,
2,3,23,word/worden0233.png,48,48,0,x,1.0693614000001617,None,0,48,48,48,111.90425629999936,,,,,,,111.90425629999936,111.90425629999936,112.91291309999997,112.91966129999946,112.91966129999946,112.91966129999946,112.91966129999946,113.99328249999962,x,1.0693614000001617,None,,,,,,,,,,NU_en,001,2025-03-07_12h15.15.622,MainFlow,2024.2.4,144.15661174336302,2025-03-07 12h15.41.917474 +0700,
2,1,95,word/worden0951.png,49,49,0,z,0.9164584000000104,None,0,49,49,49,113.99885240000003,,,,,,,113.99885240000003,113.99885240000003,115.00987319999967,115.01644599999963,115.01644599999963,115.01644599999963,115.01644599999963,115.9379915999998,z,0.9164584000000104,None,,,,,,,,,,NU_en,001,2025-03-07_12h15.15.622,MainFlow,2024.2.4,144.15661174336302,2025-03-07 12h15.41.917474 +0700,
2,3,42,word/worden0423.png,50,50,0,x,0.8931710000006206,None,0,50,50,50,115.94473990000006,,,,,,,115.94473990000006,115.94473990000006,116.9538308000001,116.96048729999984,116.96048729999984,116.96048729999984,116.96048729999984,117.86196399999972,x,0.8931710000006206,None,,,,,,,,,,NU_en,001,2025-03-07_12h15.15.622,MainFlow,2024.2.4,144.15661174336302,2025-03-07 12h15.41.917474 +0700,
2,1,30,word/worden0301.png,51,51,0,z,1.883501599999363,None,0,51,51,51,117.86739699999998,,,,,,,117.86739699999998,117.86739699999998,118.8902393999997,118.89681070000006,118.89681070000006,118.89681070000006,118.89681070000006,120.78448879999996,z,1.883501599999363,None,118.89681070000006,118.89681070000006,,,,,,,,NU_en,001,2025-03-07_12h15.15.622,MainFlow,2024.2.4,144.15661174336302,2025-03-07 12h15.41.917474 +0700,
2,3,87,word/worden0873.png,52,52,0,x,2.6196095999994213,None,0,52,52,52,120.79048189999958,,,,,,,120.79048189999958,120.79048189999958,121.8013363,121.8082930999999,121.8082930999999,121.8082930999999,121.8082930999999,124.43710120000014,x,2.6196095999994213,None,,,,,,,,,,NU_en,001,2025-03-07_12h15.15.622,MainFlow,2024.2.4,144.15661174336302,2025-03-07 12h15.41.917474 +0700,
2,2,6,word/worden0062.png,53,53,0,x,0.9861156999995728,None,0,53,53,53,124.44296759999997,,,,,,,124.44296759999997,124.44296759999997,125.45968489999996,125.46644120000019,125.46644120000019,125.46644120000019,125.46644120000019,126.45699139999942,x,0.9861156999995728,None,125.46644120000019,125.46644120000019,,,,,,,,NU_en,001,2025-03-07_12h15.15.622,MainFlow,2024.2.4,144.15661174336302,2025-03-07 12h15.41.917474 +0700,
2,2,68,word/worden0682.png,54,54,0,x,0.800336199999947,None,0,54,54,54,126.46281139999974,,,,,,,126.46281139999974,126.46281139999974,127.45993809999982,127.46473659999992,127.46473659999992,127.46473659999992,127.46473659999992,128.26927890000024,x,0.800336199999947,None,,,,,,,,,,NU_en,001,2025-03-07_12h15.15.622,MainFlow,2024.2.4,144.15661174336302,2025-03-07 12h15.41.917474 +0700,
2,3,1,word/worden0013.png,55,55,0,x,1.9716457999993509,None,0,55,55,55,128.27515309999944,,,,,,,128.27515309999944,128.27515309999944,129.28745479999998,129.29411829999935,129.29411829999935,129.29411829999935,129.29411829999935,131.26931030000014,x,1.9716457999993509,None,,,,,,,,,,NU_en,001,2025-03-07_12h15.15.622,MainFlow,2024.2.4,144.15661174336302,2025-03-07 12h15.41.917474 +0700,
2,2,94,word/worden0942.png,56,56,0,x,1.6590212000000975,None,0,56,56,56,131.27537889999985,,,,,,,131.27537889999985,131.27537889999985,132.2933296000001,132.29993419999937,132.29993419999937,132.29993419999937,132.29993419999937,133.9629374999995,x,1.6590212000000975,None,132.29993419999937,132.29993419999937,,,,,,,,NU_en,001,2025-03-07_12h15.15.622,MainFlow,2024.2.4,144.15661174336302,2025-03-07 12h15.41.917474 +0700,
2,3,82,word/worden0823.png,57,57,0,x,2.7384468999998717,None,0,57,57,57,133.96922579999955,,,,,,,133.96922579999955,133.96922579999955,134.98640609999984,134.99286269999993,134.99286269999993,134.99286269999993,134.99286269999993,137.74045560000013,x,2.7384468999998717,None,134.99286269999993,134.99286269999993,,,,,,,,NU_en,001,2025-03-07_12h15.15.622,MainFlow,2024.2.4,144.15661174336302,2025-03-07 12h15.41.917474 +0700,
2,1,89,word/worden0891.png,58,58,0,z,0.7798321999998734,None,0,58,58,58,137.74713859999974,,,,,,,137.74713859999974,137.74713859999974,138.7632463,138.7697350999997,138.7697350999997,138.7697350999997,138.7697350999997,139.55223639999986,z,0.7798321999998734,None,,,,,,,,,,NU_en,001,2025-03-07_12h15.15.622,MainFlow,2024.2.4,144.15661174336302,2025-03-07 12h15.41.917474 +0700,
2,1,31,word/worden0311.png,59,59,0,z,0.7189365000003818,None,0,59,59,59,139.55881429999954,,,,,,,139.55881429999954,139.55881429999954,140.57459149999977,140.5815507999996,140.5815507999996,140.5815507999996,140.5815507999996,141.3085916,z,0.7189365000003818,None,140.5815507999996,140.5815507999996,,,,,,,,NU_en,001,2025-03-07_12h15.15.622,MainFlow,2024.2.4,144.15661174336302,2025-03-07 12h15.41.917474 +0700,
2,2,51,word/worden0512.png,60,60,0,x,0.7609100999998191,None,0,60,60,60,141.31476800000019,,,,,,,141.31476800000019,141.31476800000019,142.3252321,142.33169309999994,142.33169309999994,142.33169309999994,142.33169309999994,143.09973079999963,x,0.7609100999998191,None,,,,,,,,,,NU_en,001,2025-03-07_12h15.15.622,MainFlow,2024.2.4,144.15661174336302,2025-03-07 12h15.41.917474 +0700,
2,3,44,word/worden0443.png,61,61,0,x,1.6360207000006994,None,0,61,61,61,143.10566949999975,,,,,,,143.10566949999975,143.10566949999975,144.11718870000004,144.12472029999935,144.12472029999935,144.12472029999935,144.12472029999935,145.76619579999988,x,1.6360207000006994,None,,,,,,,,,,NU_en,001,2025-03-07_12h15.15.622,MainFlow,2024.2.4,144.15661174336302,2025-03-07 12h15.41.917474 +0700,
2,1,1,word/worden0011.png,62,62,0,z,0.9757869999994,None,0,62,62,62,145.77218900000025,,,,,,,145.77218900000025,145.77218900000025,146.79043349999938,146.7969852999995,146.7969852999995,146.7969852999995,146.7969852999995,147.77978789999997,z,0.9757869999994,None,146.7969852999995,146.7969852999995,,,,,,,,NU_en,001,2025-03-07_12h15.15.622,MainFlow,2024.2.4,144.15661174336302,2025-03-07 12h15.41.917474 +0700,
2,1,96,word/worden0961.png,63,63,0,z,0.8789821000000302,None,0,63,63,63,147.78498070000023,,,,,,,147.78498070000023,147.78498070000023,148.8047773999997,148.8116814999994,148.8116814999994,148.8116814999994,148.8116814999994,149.6939622,z,0.8789821000000302,None,148.8116814999994,148.8116814999994,,,,,,,,NU_en,001,2025-03-07_12h15.15.622,MainFlow,2024.2.4,144.15661174336302,2025-03-07 12h15.41.917474 +0700,
2,1,11,word/worden0111.png,64,64,0,x,0.8547971999996662,None,0,64,64,64,149.69914999999946,,,,,,,149.69914999999946,149.69914999999946,150.7132987999994,150.7199767000002,150.7199767000002,150.7199767000002,150.7199767000002,151.57789760000014,x,0.8547971999996662,None,,,,,,,,,,NU_en,001,2025-03-07_12h15.15.622,MainFlow,2024.2.4,144.15661174336302,2025-03-07 12h15.41.917474 +0700,
2,3,70,word/worden0703.png,65,65,0,x,2.403431300000193,None,0,65,65,65,151.58395409999957,,,,,,,151.58395409999957,151.58395409999957,152.6016357999997,152.60831119999966,152.60831119999966,152.60831119999966,152.60831119999966,155.01428169999963,x,2.403431300000193,None,152.60831119999966,152.60831119999966,,,,,,,,NU_en,001,2025-03-07_12h15.15.622,MainFlow,2024.2.4,144.15661174336302,2025-03-07 12h15.41.917474 +0700,
2,3,71,word/worden0713.png,66,66,0,x,0.9083240999998452,None,0,66,66,66,155.02005399999962,,,,,,,155.02005399999962,155.02005399999962,156.03097869999965,156.0372798999997,156.0372798999997,156.0372798999997,156.0372798999997,156.95117669999945,x,0.9083240999998452,None,,,,,,,,,,NU_en,001,2025-03-07_12h15.15.622,MainFlow,2024.2.4,144.15661174336302,2025-03-07 12h15.41.917474 +0700,
2,1,68,word/worden0681.png,67,67,0,z,0.8499013000000559,None,0,67,67,67,156.95724119999977,,,,,,,156.95724119999977,156.95724119999977,157.97017219999998,157.9770182000002,157.9770182000002,157.9770182000002,157.9770182000002,158.8315703999997,z,0.8499013000000559,None,,,,,,,,,,NU_en,001,2025-03-07_12h15.15.622,MainFlow,2024.2.4,144.15661174336302,2025-03-07 12h15.41.917474 +0700,
2,2,88,word/worden0882.png,68,68,0,x,1.324317499999779,None,0,68,68,68,158.83622959999957,,,,,,,158.83622959999957,158.83622959999957,159.85036899999977,159.85681469999963,159.85681469999963,159.85681469999963,159.85681469999963,161.18639519999942,x,1.324317499999779,None,,,,,,,,,,NU_en,001,2025-03-07_12h15.15.622,MainFlow,2024.2.4,144.15661174336302,2025-03-07 12h15.41.917474 +0700,
2,2,50,word/worden0502.png,69,69,0,x,1.0026257999998052,None,0,69,69,69,161.19263339999998,,,,,,,161.19263339999998,161.19263339999998,162.1914981,162.19708979999996,162.19708979999996,162.19708979999996,162.19708979999996,163.20547119999992,x,1.0026257999998052,None,,,,,,,,,,NU_en,001,2025-03-07_12h15.15.622,MainFlow,2024.2.4,144.15661174336302,2025-03-07 12h15.41.917474 +0700,
2,3,93,word/worden0933.png,70,70,0,x,3.0055249999995794,None,0,70,70,70,163.21036989999993,,,,,,,163.21036989999993,163.21036989999993,164.22127209999962,164.22782519999964,164.22782519999964,164.22782519999964,164.22782519999964,167.2407505000001,x,3.0055249999995794,None,,,,,,,,,,NU_en,001,2025-03-07_12h15.15.622,MainFlow,2024.2.4,144.15661174336302,2025-03-07 12h15.41.917474 +0700,
2,1,63,word/worden0631.png,71,71,0,z,0.8533373000000211,None,0,71,71,71,167.24627220000002,,,,,,,167.24627220000002,167.24627220000002,168.2547525,168.26137299999937,168.26137299999937,168.26137299999937,168.26137299999937,169.12273899999946,z,0.8533373000000211,None,,,,,,,,,,NU_en,001,2025-03-07_12h15.15.622,MainFlow,2024.2.4,144.15661174336302,2025-03-07 12h15.41.917474 +0700,
2,2,7,word/worden0072.png,72,72,0,x,0.6528917000005094,None,0,72,72,72,169.12809319999997,,,,,,,169.12809319999997,169.12809319999997,170.13775859999987,170.14453890000004,170.14453890000004,170.14453890000004,170.14453890000004,170.8024433999999,x,0.6528917000005094,None,,,,,,,,,,NU_en,001,2025-03-07_12h15.15.622,MainFlow,2024.2.4,144.15661174336302,2025-03-07 12h15.41.917474 +0700,
2,2,64,word/worden0642.png,73,73,0,x,0.7988776000001963,None,0,73,73,73,170.80981809999957,,,,,,,170.80981809999957,170.80981809999957,171.81794530000025,171.8243655999995,171.8243655999995,171.8243655999995,171.8243655999995,172.6290528999998,x,0.7988776000001963,None,,,,,,,,,,NU_en,001,2025-03-07_12h15.15.622,MainFlow,2024.2.4,144.15661174336302,2025-03-07 12h15.41.917474 +0700,
2,1,24,word/worden0241.png,74,74,0,z,0.9433605000003809,None,0,74,74,74,172.63484160000007,,,,,,,172.63484160000007,172.63484160000007,173.64401089999956,173.6506849999996,173.6506849999996,173.6506849999996,173.6506849999996,174.60053609999977,z,0.9433605000003809,None,,,,,,,,,,NU_en,001,2025-03-07_12h15.15.622,MainFlow,2024.2.4,144.15661174336302,2025-03-07 12h15.41.917474 +0700,
2,2,1,word/worden0012.png,75,75,0,x,0.6706781000002593,None,0,75,75,75,174.60644649999995,,,,,,,174.60644649999995,174.60644649999995,175.61502399999972,175.62146740000026,175.62146740000026,175.62146740000026,175.62146740000026,176.2953120000002,x,0.6706781000002593,None,,,,,,,,,,NU_en,001,2025-03-07_12h15.15.622,MainFlow,2024.2.4,144.15661174336302,2025-03-07 12h15.41.917474 +0700,
2,1,46,word/worden0461.png,76,76,0,z,1.3652070999996795,None,0,76,76,76,176.30108930000006,,,,,,,176.30108930000006,176.30108930000006,177.31584359999943,177.32248459999937,177.32248459999937,177.32248459999937,177.32248459999937,178.69116250000025,z,1.3652070999996795,None,177.32248459999937,177.32248459999937,,,,,,,,NU_en,001,2025-03-07_12h15.15.622,MainFlow,2024.2.4,144.15661174336302,2025-03-07 12h15.41.917474 +0700,
2,3,52,word/worden0523.png,77,77,0,x,1.0578875000001062,None,0,77,77,77,178.69698119999975,,,,,,,178.69698119999975,178.69698119999975,179.71200989999943,179.71853929999997,179.71853929999997,179.71853929999997,179.71853929999997,180.77879219999977,x,1.0578875000001062,None,179.71853929999997,179.71853929999997,,,,,,,,NU_en,001,2025-03-07_12h15.15.622,MainFlow,2024.2.4,144.15661174336302,2025-03-07 12h15.41.917474 +0700,
2,2,31,word/worden0312.png,78,78,0,x,0.7956846999995832,None,0,78,78,78,180.7834127999995,,,,,,,180.7834127999995,180.7834127999995,181.79521599999953,181.80244630000016,181.80244630000016,181.80244630000016,181.80244630000016,182.6062565000002,x,0.7956846999995832,None,,,,,,,,,,NU_en,001,2025-03-07_12h15.15.622,MainFlow,2024.2.4,144.15661174336302,2025-03-07 12h15.41.917474 +0700,
2,2,95,word/worden0952.png,79,79,0,x,0.930117899999459,None,0,79,79,79,182.61183459999938,,,,,,,182.61183459999938,182.61183459999938,183.62744199999997,183.63399769999978,183.63399769999978,183.63399769999978,183.63399769999978,184.57123919999958,x,0.930117899999459,None,183.63399769999978,183.63399769999978,,,,,,,,NU_en,001,2025-03-07_12h15.15.622,MainFlow,2024.2.4,144.15661174336302,2025-03-07 12h15.41.917474 +0700,
2,1,93,word/worden0931.png,80,80,0,z,10.835502099999758,None,0,80,80,80,184.57845219999945,,,,,,,184.57845219999945,184.57845219999945,185.57938639999975,185.58427740000025,185.58427740000025,185.58427740000025,185.58427740000025,196.4232409999995,z,10.835502099999758,None,,,,,,,,,,NU_en,001,2025-03-07_12h15.15.622,MainFlow,2024.2.4,144.15661174336302,2025-03-07 12h15.41.917474 +0700,
2,1,71,word/worden0711.png,81,81,0,z,0.7356824999997116,None,0,81,81,81,196.42913129999943,,,,,,,196.42913129999943,196.42913129999943,197.4466281999994,197.45351539999956,197.45351539999956,197.45351539999956,197.45351539999956,198.1932683999994,z,0.7356824999997116,None,197.45351539999956,197.45351539999956,,,,,,,,NU_en,001,2025-03-07_12h15.15.622,MainFlow,2024.2.4,144.15661174336302,2025-03-07 12h15.41.917474 +0700,
2,1,48,word/worden0481.png,82,82,0,z,0.5683316000004197,None,0,82,82,82,198.19953799999985,,,,,,,198.19953799999985,198.19953799999985,199.20688489999975,199.21325629999956,199.21325629999956,199.21325629999956,199.21325629999956,199.79041809999944,z,0.5683316000004197,None,,,,,,,,,,NU_en,001,2025-03-07_12h15.15.622,MainFlow,2024.2.4,144.15661174336302,2025-03-07 12h15.41.917474 +0700,
2,1,94,word/worden0941.png,83,83,0,z,1.177483299999949,None,0,83,83,83,199.7962491999997,,,,,,,199.7962491999997,199.7962491999997,200.8077433999997,200.81439359999968,200.81439359999968,200.81439359999968,200.81439359999968,201.99972789999993,z,1.177483299999949,None,,,,,,,,,,NU_en,001,2025-03-07_12h15.15.622,MainFlow,2024.2.4,144.15661174336302,2025-03-07 12h15.41.917474 +0700,
2,3,68,word/worden0683.png,84,84,0,x,0.9244994999999108,None,0,84,84,84,202.00508629999968,,,,,,,202.00508629999968,202.00508629999968,203.0237729999999,203.03045649999967,203.03045649999967,203.03045649999967,203.03045649999967,203.96260579999944,x,0.9244994999999108,None,203.03045649999967,203.03045649999967,,,,,,,,NU_en,001,2025-03-07_12h15.15.622,MainFlow,2024.2.4,144.15661174336302,2025-03-07 12h15.41.917474 +0700,
2,2,66,word/worden0662.png,85,85,0,x,1.1307936000002883,None,0,85,85,85,203.9681756,,,,,,,203.9681756,203.9681756,204.97784989999946,204.98450090000006,204.98450090000006,204.98450090000006,204.98450090000006,206.1227205999994,x,1.1307936000002883,None,,,,,,,,,,NU_en,001,2025-03-07_12h15.15.622,MainFlow,2024.2.4,144.15661174336302,2025-03-07 12h15.41.917474 +0700,
2,3,95,word/worden0953.png,86,86,0,x,2.048635099999956,None,0,86,86,86,206.12804249999954,,,,,,,206.12804249999954,206.12804249999954,207.14382409999962,207.1503461000002,207.1503461000002,207.1503461000002,207.1503461000002,209.2050774999998,x,2.048635099999956,None,207.1503461000002,207.1503461000002,,,,,,,,NU_en,001,2025-03-07_12h15.15.622,MainFlow,2024.2.4,144.15661174336302,2025-03-07 12h15.41.917474 +0700,
2,3,30,word/worden0303.png,87,87,0,x,0.9497584999999162,None,0,87,87,87,209.21117080000022,,,,,,,209.21117080000022,209.21117080000022,210.22017959999994,210.22721319999982,210.22721319999982,210.22721319999982,210.22721319999982,211.18359619999956,x,0.9497584999999162,None,,,,,,,,,,NU_en,001,2025-03-07_12h15.15.622,MainFlow,2024.2.4,144.15661174336302,2025-03-07 12h15.41.917474 +0700,
2,3,22,word/worden0223.png,88,88,0,x,0.7751970999997866,None,0,88,88,88,211.18975049999972,,,,,,,211.18975049999972,211.18975049999972,212.18601339999987,212.1908182999996,212.1908182999996,212.1908182999996,212.1908182999996,212.96934950000013,x,0.7751970999997866,None,,,,,,,,,,NU_en,001,2025-03-07_12h15.15.622,MainFlow,2024.2.4,144.15661174336302,2025-03-07 12h15.41.917474 +0700,
2,1,75,word/worden0751.png,89,89,0,z,0.8078440999997838,None,0,89,89,89,212.97541730000012,,,,,,,212.97541730000012,212.97541730000012,213.99044739999954,213.99735749999945,213.99735749999945,213.99735749999945,213.99735749999945,214.80864269999984,z,0.8078440999997838,None,213.99735749999945,213.99735749999945,,,,,,,,NU_en,001,2025-03-07_12h15.15.622,MainFlow,2024.2.4,144.15661174336302,2025-03-07 12h15.41.917474 +0700,
2,1,64,word/worden0641.png,90,90,0,z,1.0835642000001826,None,0,90,90,90,214.81468889999996,,,,,,,214.81468889999996,214.81468889999996,215.8304664999996,215.83679779999966,215.83679779999966,215.83679779999966,215.83679779999966,216.9247421,z,1.0835642000001826,None,215.83679779999966,215.83679779999966,,,,,,,,NU_en,001,2025-03-07_12h15.15.622,MainFlow,2024.2.4,144.15661174336302,2025-03-07 12h15.41.917474 +0700,
2,1,27,word/worden0271.png,91,91,0,z,0.608797500000037,None,0,91,91,91,216.92971969999962,,,,,,,216.92971969999962,216.92971969999962,217.93957339999997,217.9461057999997,217.9461057999997,217.9461057999997,217.9461057999997,218.5580871000002,z,0.608797500000037,None,,,,,,,,,,NU_en,001,2025-03-07_12h15.15.622,MainFlow,2024.2.4,144.15661174336302,2025-03-07 12h15.41.917474 +0700,
2,2,24,word/worden0242.png,92,92,0,x,0.7218096000005971,None,0,92,92,92,218.56405629999972,,,,,,,218.56405629999972,218.56405629999972,219.57927990000007,219.5856107999998,219.5856107999998,219.5856107999998,219.5856107999998,220.31473949999963,x,0.7218096000005971,None,219.5856107999998,219.5856107999998,,,,,,,,NU_en,001,2025-03-07_12h15.15.622,MainFlow,2024.2.4,144.15661174336302,2025-03-07 12h15.41.917474 +0700,
2,1,87,word/worden0871.png,93,93,0,z,0.8637149000005593,None,0,93,93,93,220.3202935999998,,,,,,,220.3202935999998,220.3202935999998,221.32817160000013,221.3330761999996,221.3330761999996,221.3330761999996,221.3330761999996,222.20306359999995,z,0.8637149000005593,None,221.3330761999996,221.3330761999996,,,,,,,,NU_en,001,2025-03-07_12h15.15.622,MainFlow,2024.2.4,144.15661174336302,2025-03-07 12h15.41.917474 +0700,
2,1,7,word/worden0071.png,94,94,0,z,0.5955602999993062,None,0,94,94,94,222.20921959999941,,,,,,,222.20921959999941,222.20921959999941,223.2243755999998,223.23088999999982,223.23088999999982,223.23088999999982,223.23088999999982,223.8338907999996,z,0.5955602999993062,None,223.23088999999982,223.23088999999982,,,,,,,,NU_en,001,2025-03-07_12h15.15.622,MainFlow,2024.2.4,144.15661174336302,2025-03-07 12h15.41.917474 +0700,
2,2,9,word/worden0092.png,95,95,0,x,0.7212988999999652,None,0,95,95,95,223.83942949999982,,,,,,,223.83942949999982,223.83942949999982,224.848481,224.8551477000001,224.8551477000001,224.8551477000001,224.8551477000001,225.58244449999984,x,0.7212988999999652,None,,,,,,,,,,NU_en,001,2025-03-07_12h15.15.622,MainFlow,2024.2.4,144.15661174336302,2025-03-07 12h15.41.917474 +0700,
2,1,44,word/worden0441.png,96,96,0,z,0.9491556000002674,None,0,96,96,96,225.58724059999986,,,,,,,225.58724059999986,225.58724059999986,226.59903080000004,226.6054792999994,226.6054792999994,226.6054792999994,226.6054792999994,227.56274529999973,z,0.9491556000002674,None,,,,,,,,,,NU_en,001,2025-03-07_12h15.15.622,MainFlow,2024.2.4,144.15661174336302,2025-03-07 12h15.41.917474 +0700,
2,2,10,word/worden0102.png,97,97,0,x,0.7085161999993943,None,0,97,97,97,227.56798960000015,,,,,,,227.56798960000015,227.56798960000015,228.58607510000002,228.59332219999942,228.59332219999942,228.59332219999942,228.59332219999942,229.30541959999937,x,0.7085161999993943,None,228.59332219999942,228.59332219999942,,,,,,,,NU_en,001,2025-03-07_12h15.15.622,MainFlow,2024.2.4,144.15661174336302,2025-03-07 12h15.41.917474 +0700,
2,2,82,word/worden0822.png,98,98,0,x,1.432531299999937,None,0,98,98,98,229.3120589,,,,,,,229.3120589,229.3120589,230.31736809999984,230.32242140000017,230.32242140000017,230.32242140000017,230.32242140000017,231.76244279999992,x,1.432531299999937,None,230.32242140000017,230.32242140000017,,,,,,,,NU_en,001,2025-03-07_12h15.15.622,MainFlow,2024.2.4,144.15661174336302,2025-03-07 12h15.41.917474 +0700,
2,3,89,word/worden0893.png,99,99,0,x,1.160024799999519,None,0,99,99,99,231.76726379999945,,,,,,,231.76726379999945,231.76726379999945,232.78208199999972,232.78859659999944,232.78859659999944,232.78859659999944,232.78859659999944,233.95840940000016,x,1.160024799999519,None,,,,,,,,,,NU_en,001,2025-03-07_12h15.15.622,MainFlow,2024.2.4,144.15661174336302,2025-03-07 12h15.41.917474 +0700,
2,2,44,word/worden0442.png,100,100,0,x,0.7111542000002373,None,0,100,100,100,233.96429780000017,,,,,,,233.96429780000017,233.96429780000017,234.98115880000023,234.98838710000018,234.98838710000018,234.98838710000018,234.98838710000018,235.70518029999948,x,0.7111542000002373,None,234.98838710000018,234.98838710000018,,,,,,,,NU_en,001,2025-03-07_12h15.15.622,MainFlow,2024.2.4,144.15661174336302,2025-03-07 12h15.41.917474 +0700,
2,1,52,word/worden0521.png,101,101,0,z,1.8578489000001355,None,0,101,101,101,235.71019859999979,,,,,,,235.71019859999979,235.71019859999979,236.7262426999996,236.73286329999974,236.73286329999974,236.73286329999974,236.73286329999974,238.5949154,z,1.8578489000001355,None,,,,,,,,,,NU_en,001,2025-03-07_12h15.15.622,MainFlow,2024.2.4,144.15661174336302,2025-03-07 12h15.41.917474 +0700,
2,1,51,word/worden0511.png,102,102,0,z,0.6667882000001555,None,0,102,102,102,238.6007007999997,,,,,,,238.6007007999997,238.6007007999997,239.61347019999994,239.62007209999956,239.62007209999956,239.62007209999956,239.62007209999956,240.28944189999947,z,0.6667882000001555,None,,,,,,,,,,NU_en,001,2025-03-07_12h15.15.622,MainFlow,2024.2.4,144.15661174336302,2025-03-07 12h15.41.917474 +0700,
2,3,51,word/worden0513.png,103,103,0,x,0.8762019000005239,None,0,103,103,103,240.29580889999943,,,,,,,240.29580889999943,240.29580889999943,241.30643599999985,241.3131139999996,241.3131139999996,241.3131139999996,241.3131139999996,242.19199579999986,x,0.8762019000005239,None,,,,,,,,,,NU_en,001,2025-03-07_12h15.15.622,MainFlow,2024.2.4,144.15661174336302,2025-03-07 12h15.41.917474 +0700,
2,2,8,word/worden0082.png,104,104,0,x,0.6236969000001409,None,0,104,104,104,242.1984510000002,,,,,,,242.1984510000002,242.1984510000002,243.21735029999945,243.22402069999953,243.22402069999953,243.22402069999953,243.22402069999953,243.85105719999956,x,0.6236969000001409,None,243.22402069999953,243.22402069999953,,,,,,,,NU_en,001,2025-03-07_12h15.15.622,MainFlow,2024.2.4,144.15661174336302,2025-03-07 12h15.41.917474 +0700,
2,2,3,word/worden0032.png,105,105,0,x,0.6780774999997448,None,0,105,105,105,243.85771459999978,,,,,,,243.85771459999978,243.85771459999978,244.87066640000012,244.87778960000014,244.87778960000014,244.87778960000014,244.87778960000014,245.5595472999994,x,0.6780774999997448,None,,,,,,,,,,NU_en,001,2025-03-07_12h15.15.622,MainFlow,2024.2.4,144.15661174336302,2025-03-07 12h15.41.917474 +0700,
2,3,3,word/worden0033.png,106,106,0,x,0.8489676999997755,None,0,106,106,106,245.56645130000015,,,,,,,245.56645130000015,245.56645130000015,246.58435910000026,246.59092799999962,246.59092799999962,246.59092799999962,246.59092799999962,247.44755669999995,x,0.8489676999997755,None,,,,,,,,,,NU_en,001,2025-03-07_12h15.15.622,MainFlow,2024.2.4,144.15661174336302,2025-03-07 12h15.41.917474 +0700,
2,3,64,word/worden0643.png,107,107,0,x,0.6660119999996823,None,0,107,107,107,247.45360710000023,,,,,,,247.45360710000023,247.45360710000023,248.46595369999977,248.47264939999968,248.47264939999968,248.47264939999968,248.47264939999968,249.14237589999993,x,0.6660119999996823,None,,,,,,,,,,NU_en,001,2025-03-07_12h15.15.622,MainFlow,2024.2.4,144.15661174336302,2025-03-07 12h15.41.917474 +0700,
2,3,26,word/worden0263.png,108,108,0,x,0.6275328000001537,None,0,108,108,108,249.14891029999944,,,,,,,249.14891029999944,249.14891029999944,250.1664936999996,250.17347109999992,250.17347109999992,250.17347109999992,250.17347109999992,250.80817860000025,x,0.6275328000001537,None,250.17347109999992,250.17347109999992,,,,,,,,NU_en,001,2025-03-07_12h15.15.622,MainFlow,2024.2.4,144.15661174336302,2025-03-07 12h15.41.917474 +0700,
2,2,96,word/worden0962.png,109,109,0,x,1.5645958000004612,None,0,109,109,109,250.81358079999973,,,,,,,250.81358079999973,250.81358079999973,251.82698660000005,251.83353709999938,251.83353709999938,251.83353709999938,251.83353709999938,253.40551809999943,x,1.5645958000004612,None,,,,,,,,,,NU_en,001,2025-03-07_12h15.15.622,MainFlow,2024.2.4,144.15661174336302,2025-03-07 12h15.41.917474 +0700,
2,1,22,word/worden0221.png,110,110,0,z,0.6407612999992125,None,0,110,110,110,253.41099269999995,,,,,,,253.41099269999995,253.41099269999995,254.42911569999978,254.43564059999972,254.43564059999972,254.43564059999972,254.43564059999972,255.08526549999988,z,0.6407612999992125,None,254.43564059999972,254.43564059999972,,,,,,,,NU_en,001,2025-03-07_12h15.15.622,MainFlow,2024.2.4,144.15661174336302,2025-03-07 12h15.41.917474 +0700,
2,2,22,word/worden0222.png,111,111,0,x,0.8987256999998863,None,0,111,111,111,255.0910060999995,,,,,,,255.0910060999995,255.0910060999995,256.1096625,256.1161591,256.1161591,256.1161591,256.1161591,257.02094489999945,x,0.8987256999998863,None,256.1161591,256.1161591,,,,,,,,NU_en,001,2025-03-07_12h15.15.622,MainFlow,2024.2.4,144.15661174336302,2025-03-07 12h15.41.917474 +0700,
2,2,26,word/worden0262.png,112,112,0,x,0.7185189000001628,None,0,112,112,112,257.0256770999995,,,,,,,257.0256770999995,257.0256770999995,258.04099419999966,258.04781769999954,258.04781769999954,258.04781769999954,258.04781769999954,258.77184429999943,x,0.7185189000001628,None,,,,,,,,,,NU_en,001,2025-03-07_12h15.15.622,MainFlow,2024.2.4,144.15661174336302,2025-03-07 12h15.41.917474 +0700,
2,3,48,word/worden0483.png,113,113,0,x,1.2573097999993479,None,0,113,113,113,258.77787420000004,,,,,,,258.77787420000004,258.77787420000004,259.7894766999998,259.79606259999946,259.79606259999946,259.79606259999946,259.79606259999946,261.0562374000001,x,1.2573097999993479,None,,,,,,,,,,NU_en,001,2025-03-07_12h15.15.622,MainFlow,2024.2.4,144.15661174336302,2025-03-07 12h15.41.917474 +0700,
2,2,87,word/worden0872.png,114,114,0,x,0.7775268999994296,None,0,114,114,114,261.0635013000001,,,,,,,261.0635013000001,261.0635013000001,262.07287110000016,262.07949499999995,262.07949499999995,262.07949499999995,262.07949499999995,262.8615046999994,x,0.7775268999994296,None,,,,,,,,,,NU_en,001,2025-03-07_12h15.15.622,MainFlow,2024.2.4,144.15661174336302,2025-03-07 12h15.41.917474 +0700,
2,1,10,word/worden0101.png,115,115,0,z,0.9269598999999289,None,0,115,115,115,262.86728570000014,,,,,,,262.86728570000014,262.86728570000014,263.8783509999994,263.88464789999944,263.88464789999944,263.88464789999944,263.88464789999944,264.8191294999997,z,0.9269598999999289,None,,,,,,,,,,NU_en,001,2025-03-07_12h15.15.622,MainFlow,2024.2.4,144.15661174336302,2025-03-07 12h15.41.917474 +0700,
2,3,8,word/worden0083.png,116,116,0,x,0.591100099999494,None,0,116,116,116,264.8250428000001,,,,,,,264.8250428000001,264.8250428000001,265.82201369999984,265.8268240999996,265.8268240999996,265.8268240999996,265.8268240999996,266.4228525999997,x,0.591100099999494,None,,,,,,,,,,NU_en,001,2025-03-07_12h15.15.622,MainFlow,2024.2.4,144.15661174336302,2025-03-07 12h15.41.917474 +0700,
2,3,94,word/worden0943.png,117,117,0,x,0.9439970999992511,None,0,117,117,117,266.42857860000004,,,,,,,266.42857860000004,266.42857860000004,267.4421158999994,267.4486121,267.4486121,267.4486121,267.4486121,268.3952694999998,x,0.9439970999992511,None,,,,,,,,,,NU_en,001,2025-03-07_12h15.15.622,MainFlow,2024.2.4,144.15661174336302,2025-03-07 12h15.41.917474 +0700,
2,2,11,word/worden0112.png,118,118,0,x,0.5810898999998244,None,0,118,118,118,268.40137400000003,,,,,,,268.40137400000003,268.40137400000003,269.4130629000001,269.4196345999999,269.4196345999999,269.4196345999999,269.4196345999999,270.00600979999945,x,0.5810898999998244,None,,,,,,,,,,NU_en,001,2025-03-07_12h15.15.622,MainFlow,2024.2.4,144.15661174336302,2025-03-07 12h15.41.917474 +0700,
2,3,24,word/worden0243.png,119,119,0,x,0.7350103999997373,None,0,119,119,119,270.0129216999994,,,,,,,270.0129216999994,270.0129216999994,271.02348729999994,271.0300957999998,271.0300957999998,271.0300957999998,271.0300957999998,271.7690683999999,x,0.7350103999997373,None,,,,,,,,,,NU_en,001,2025-03-07_12h15.15.622,MainFlow,2024.2.4,144.15661174336302,2025-03-07 12h15.41.917474 +0700,
,,,,,,,,,,,,,,,,,,,,,,,,,,,,,,,,,,271.7694110000002,271.77791519999937,271.77791519999937,274.6692901999995,space,2.8839779999998427,None,NU_en,001,2025-03-07_12h15.15.622,MainFlow,2024.2.4,144.15661174336302,2025-03-07 12h15.41.917474 +0700,
