lang,stimuli,imageid,worddir,thisN,thisTrialN,thisRepN,key_resp.keys,key_resp.rt,key_resp.duration,trials.thisRepN,trials.thisTrialN,trials.thisN,trials.thisIndex,thisRow.t,notes,tutorial.started,tutorial.stopped,key_instruct.keys,key_instruct.rt,key_instruct.duration,instructblank.started,cross1.started,letterselect.started,imageword.started,text_2.started,cross2.started,key_resp.started,letterselect.stopped,trials.key_resp.keys,trials.key_resp.rt,trials.key_resp.duration,instructblank.stopped,cross1.stopped,ending.started,text_3.started,ending_key.started,ending.stopped,ending_key.keys,ending_key.rt,ending_key.duration,participant,session,date,expName,psychopyVersion,frameRate,expStart,
,,,,,,,,,,,,,,,,0.002995099999679951,54.16405539999687,space,54.13070720000178,None,,,,,,,,,,,,,,,,,,,,,OAT_en,001,2025-03-12_16h28.31.399,MainFlow,2024.2.4,143.73474615496625,2025-03-12 16h28.43.096174 +0700,
2,1,66,word/worden0661.png,0,0,0,z,0.5017420000003767,None,0,0,0,0,54.202313899997534,,,,,,,54.202313899997534,54.202313899997534,55.18702080000003,55.212005899997166,55.212005899997166,55.212005899997166,55.212005899997166,55.71914289999768,z,0.5017420000003767,None,,,,,,,,,,OAT_en,001,2025-03-12_16h28.31.399,MainFlow,2024.2.4,143.73474615496625,2025-03-12 16h28.43.096174 +0700,
2,1,3,word/worden0031.png,1,1,0,z,0.46135960000174236,None,0,1,1,1,55.724805699999706,,,,,,,55.724805699999706,55.724805699999706,56.72354219999761,56.72641579999981,56.72641579999981,56.72641579999981,56.72641579999981,57.190289699999994,z,0.46135960000174236,None,,,,,,,,,,OAT_en,001,2025-03-12_16h28.31.399,MainFlow,2024.2.4,143.73474615496625,2025-03-12 16h28.43.096174 +0700,
2,2,71,word/worden0712.png,2,2,0,x,0.5796061999972153,None,0,2,2,2,57.195162699998036,,,,,,,57.195162699998036,57.195162699998036,58.196980699998676,58.20006499999727,58.20006499999727,58.20006499999727,58.20006499999727,58.78732079999827,x,0.5796061999972153,None,,,,,,,,,,OAT_en,001,2025-03-12_16h28.31.399,MainFlow,2024.2.4,143.73474615496625,2025-03-12 16h28.43.096174 +0700,
2,3,27,word/worden0273.png,3,3,0,x,0.630910900003073,None,0,3,3,3,58.79207029999816,,,,,,,58.79207029999816,58.79207029999816,59.79836729999806,59.80133729999943,59.80133729999943,59.80133729999943,59.80133729999943,60.439798999999766,x,0.630910900003073,None,,,,,,,,,,OAT_en,001,2025-03-12_16h28.31.399,MainFlow,2024.2.4,143.73474615496625,2025-03-12 16h28.43.096174 +0700,
2,3,88,word/worden0883.png,4,4,0,x,0.625017400001525,None,0,4,4,4,60.44450849999703,,,,,,,60.44450849999703,60.44450849999703,61.463417499999196,61.466719599997305,61.466719599997305,61.466719599997305,61.466719599997305,62.099830199997086,x,0.625017400001525,None,,,,,,,,,,OAT_en,001,2025-03-12_16h28.31.399,MainFlow,2024.2.4,143.73474615496625,2025-03-12 16h28.43.096174 +0700,
2,1,28,word/worden0281.png,5,5,0,z,0.5971347999984573,None,0,5,5,5,62.10399609999877,,,,,,,62.10399609999877,62.10399609999877,63.109956399999646,63.113130899997486,63.113130899997486,63.113130899997486,63.113130899997486,63.716267299998435,z,0.5971347999984573,None,,,,,,,,,,OAT_en,001,2025-03-12_16h28.31.399,MainFlow,2024.2.4,143.73474615496625,2025-03-12 16h28.43.096174 +0700,
2,1,50,word/worden0501.png,6,6,0,z,0.4810135999978229,None,0,6,6,6,63.7214959999983,,,,,,,63.7214959999983,63.7214959999983,64.72229759999755,64.7252281000001,64.7252281000001,64.7252281000001,64.7252281000001,65.20841579999978,z,0.4810135999978229,None,,,,,,,,,,OAT_en,001,2025-03-12_16h28.31.399,MainFlow,2024.2.4,143.73474615496625,2025-03-12 16h28.43.096174 +0700,
2,1,41,word/worden0411.png,7,7,0,z,0.49479259999861824,None,0,7,7,7,65.2142058999998,,,,,,,65.2142058999998,65.2142058999998,66.21937709999838,66.2224776999974,66.2224776999974,66.2224776999974,66.2224776999974,66.72266249999666,z,0.49479259999861824,None,,,,,,,,,,OAT_en,001,2025-03-12_16h28.31.399,MainFlow,2024.2.4,143.73474615496625,2025-03-12 16h28.43.096174 +0700,
2,2,52,word/worden0522.png,8,8,0,x,0.642061400001694,None,0,8,8,8,66.72796989999915,,,,,,,66.72796989999915,66.72796989999915,67.74667769999724,67.74984229999973,67.74984229999973,67.74984229999973,67.74984229999973,68.39668269999675,x,0.642061400001694,None,,,,,,,,,,OAT_en,001,2025-03-12_16h28.31.399,MainFlow,2024.2.4,143.73474615496625,2025-03-12 16h28.43.096174 +0700,
2,3,6,word/worden0063.png,9,9,0,x,0.8228206000021601,None,0,9,9,9,68.40118089999669,,,,,,,68.40118089999669,68.40118089999669,69.40230959999826,69.40518410000004,69.40518410000004,69.40518410000004,69.40518410000004,70.22903399999996,x,0.8228206000021601,None,,,,,,,,,,OAT_en,001,2025-03-12_16h28.31.399,MainFlow,2024.2.4,143.73474615496625,2025-03-12 16h28.43.096174 +0700,
2,3,46,word/worden0463.png,10,10,0,x,0.7122345000025234,None,0,10,10,10,70.23417199999676,,,,,,,70.23417199999676,70.23417199999676,71.24738189999698,71.25097749999986,71.25097749999986,71.25097749999986,71.25097749999986,71.96462499999689,x,0.7122345000025234,None,,,,,,,,,,OAT_en,001,2025-03-12_16h28.31.399,MainFlow,2024.2.4,143.73474615496625,2025-03-12 16h28.43.096174 +0700,
2,2,30,word/worden0302.png,11,11,0,x,0.551026199998887,None,0,11,11,11,71.9699056999998,,,,,,,71.9699056999998,71.9699056999998,72.98866819999967,72.99193159999777,72.99193159999777,72.99193159999777,72.99193159999777,73.54749609999999,x,0.551026199998887,None,,,,,,,,,,OAT_en,001,2025-03-12_16h28.31.399,MainFlow,2024.2.4,143.73474615496625,2025-03-12 16h28.43.096174 +0700,
2,2,46,word/worden0462.png,12,12,0,x,0.538044799999625,None,0,12,12,12,73.55292459999691,,,,,,,73.55292459999691,73.55292459999691,74.55677399999695,74.55986459999986,74.55986459999986,74.55986459999986,74.55986459999986,75.10397309999826,x,0.538044799999625,None,,,,,,,,,,OAT_en,001,2025-03-12_16h28.31.399,MainFlow,2024.2.4,143.73474615496625,2025-03-12 16h28.43.096174 +0700,
2,2,70,word/worden0702.png,13,13,0,x,0.49494419999973616,None,0,13,13,13,75.10827059999792,,,,,,,75.10827059999792,75.10827059999792,76.1099123999993,76.1129148,76.1129148,76.1129148,76.1129148,76.61040510000021,x,0.49494419999973616,None,,,,,,,,,,OAT_en,001,2025-03-12_16h28.31.399,MainFlow,2024.2.4,143.73474615496625,2025-03-12 16h28.43.096174 +0700,
2,1,70,word/worden0701.png,14,14,0,z,0.6209511000015482,None,0,14,14,14,76.61518009999781,,,,,,,76.61518009999781,76.61518009999781,77.61354589999974,77.6165028999967,77.6165028999967,77.6165028999967,77.6165028999967,78.24267039999904,z,0.6209511000015482,None,,,,,,,,,,OAT_en,001,2025-03-12_16h28.31.399,MainFlow,2024.2.4,143.73474615496625,2025-03-12 16h28.43.096174 +0700,
2,1,8,word/worden0081.png,15,15,0,z,0.5353594000007433,None,0,15,15,15,78.24917569999889,,,,,,,78.24917569999889,78.24917569999889,79.26481090000016,79.26880220000021,79.26880220000021,79.26880220000021,79.26880220000021,79.8102805999988,z,0.5353594000007433,None,,,,,,,,,,OAT_en,001,2025-03-12_16h28.31.399,MainFlow,2024.2.4,143.73474615496625,2025-03-12 16h28.43.096174 +0700,
2,3,61,word/worden0613.png,16,16,0,x,0.5600841000014043,None,0,16,16,16,79.8155998000002,,,,,,,79.8155998000002,79.8155998000002,80.8264242999976,80.82992329999979,80.82992329999979,80.82992329999979,80.82992329999979,81.39330229999905,x,0.5600841000014043,None,,,,,,,,,,OAT_en,001,2025-03-12_16h28.31.399,MainFlow,2024.2.4,143.73474615496625,2025-03-12 16h28.43.096174 +0700,
2,3,10,word/worden0103.png,17,17,0,x,0.7588788000030036,None,0,17,17,17,81.39865859999918,,,,,,,81.39865859999918,81.39865859999918,82.40022200000021,82.40338989999873,82.40338989999873,82.40338989999873,82.40338989999873,83.16405609999856,x,0.7588788000030036,None,,,,,,,,,,OAT_en,001,2025-03-12_16h28.31.399,MainFlow,2024.2.4,143.73474615496625,2025-03-12 16h28.43.096174 +0700,
2,3,75,word/worden0753.png,18,18,0,x,0.4696484000014607,None,0,18,18,18,83.16914839999663,,,,,,,83.16914839999663,83.16914839999663,84.17741919999753,84.18062639999698,84.18062639999698,84.18062639999698,84.18062639999698,84.65686379999897,x,0.4696484000014607,None,,,,,,,,,,OAT_en,001,2025-03-12_16h28.31.399,MainFlow,2024.2.4,143.73474615496625,2025-03-12 16h28.43.096174 +0700,
2,2,63,word/worden0632.png,19,19,0,x,0.5042943000007654,None,0,19,19,19,84.66194479999831,,,,,,,84.66194479999831,84.66194479999831,85.67878319999727,85.68180149999898,85.68180149999898,85.68180149999898,85.68180149999898,86.19057659999817,x,0.5042943000007654,None,,,,,,,,,,OAT_en,001,2025-03-12_16h28.31.399,MainFlow,2024.2.4,143.73474615496625,2025-03-12 16h28.43.096174 +0700,
2,3,11,word/worden0113.png,20,20,0,x,0.5509549000016705,None,0,20,20,20,86.196288799998,,,,,,,86.196288799998,86.196288799998,87.20447659999991,87.2080077999999,87.2080077999999,87.2080077999999,87.2080077999999,87.76035859999683,x,0.5509549000016705,None,,,,,,,,,,OAT_en,001,2025-03-12_16h28.31.399,MainFlow,2024.2.4,143.73474615496625,2025-03-12 16h28.43.096174 +0700,
2,2,89,word/worden0892.png,21,21,0,x,0.5722850000020117,None,0,21,21,21,87.76541689999794,,,,,,,87.76541689999794,87.76541689999794,88.78002839999681,88.78349459999663,88.78349459999663,88.78349459999663,88.78349459999663,89.3588865999991,x,0.5722850000020117,None,,,,,,,,,,OAT_en,001,2025-03-12_16h28.31.399,MainFlow,2024.2.4,143.73474615496625,2025-03-12 16h28.43.096174 +0700,
2,1,9,word/worden0091.png,22,22,0,z,0.4665757000002486,None,0,22,22,22,89.36368369999764,,,,,,,89.36368369999764,89.36368369999764,90.36004889999822,90.36315009999817,90.36315009999817,90.36315009999817,90.36315009999817,90.83627919999708,z,0.4665757000002486,None,,,,,,,,,,OAT_en,001,2025-03-12_16h28.31.399,MainFlow,2024.2.4,143.73474615496625,2025-03-12 16h28.43.096174 +0700,
2,3,28,word/worden0283.png,23,23,0,x,0.5396560000008321,None,0,23,23,23,90.84140709999701,,,,,,,90.84140709999701,90.84140709999701,91.85833479999928,91.86185549999936,91.86185549999936,91.86185549999936,91.86185549999936,92.40517790000013,x,0.5396560000008321,None,,,,,,,,,,OAT_en,001,2025-03-12_16h28.31.399,MainFlow,2024.2.4,143.73474615496625,2025-03-12 16h28.43.096174 +0700,
2,1,82,word/worden0821.png,24,24,0,x,1.0904903000009654,None,0,24,24,24,92.41041029999906,,,,,,,92.41041029999906,92.41041029999906,93.42891879999661,93.43231639999794,93.43231639999794,93.43231639999794,93.43231639999794,94.52928449999672,x,1.0904903000009654,None,,,,,,,,,,OAT_en,001,2025-03-12_16h28.31.399,MainFlow,2024.2.4,143.73474615496625,2025-03-12 16h28.43.096174 +0700,
2,2,28,word/worden0282.png,25,25,0,x,0.5173405999994429,None,0,25,25,25,94.53500949999943,,,,,,,94.53500949999943,94.53500949999943,95.54281949999859,95.54636839999876,95.54636839999876,95.54636839999876,95.54636839999876,96.0708670999993,x,0.5173405999994429,None,,,,,,,,,,OAT_en,001,2025-03-12_16h28.31.399,MainFlow,2024.2.4,143.73474615496625,2025-03-12 16h28.43.096174 +0700,
2,1,23,word/worden0231.png,26,26,0,z,0.9219478000013623,None,0,26,26,26,96.07631810000021,,,,,,,96.07631810000021,96.07631810000021,97.09083439999813,97.09461149999697,97.09461149999697,97.09461149999697,97.09461149999697,98.02234349999708,z,0.9219478000013623,None,,,,,,,,,,OAT_en,001,2025-03-12_16h28.31.399,MainFlow,2024.2.4,143.73474615496625,2025-03-12 16h28.43.096174 +0700,
2,2,42,word/worden0422.png,27,27,0,x,0.526657400001568,None,0,27,27,27,98.02742109999963,,,,,,,98.02742109999963,98.02742109999963,99.04290969999784,99.04671519999829,99.04671519999829,99.04671519999829,99.04671519999829,99.57799439999872,x,0.526657400001568,None,,,,,,,,,,OAT_en,001,2025-03-12_16h28.31.399,MainFlow,2024.2.4,143.73474615496625,2025-03-12 16h28.43.096174 +0700,
2,2,93,word/worden0932.png,28,28,0,x,0.5673643000009179,None,0,28,28,28,99.582688399998,,,,,,,99.582688399998,99.582688399998,100.60227630000009,100.60589199999959,100.60589199999959,100.60589199999959,100.60589199999959,101.17452330000015,x,0.5673643000009179,None,,,,,,,,,,OAT_en,001,2025-03-12_16h28.31.399,MainFlow,2024.2.4,143.73474615496625,2025-03-12 16h28.43.096174 +0700,
2,1,88,word/worden0881.png,29,29,0,z,0.5635747999986052,None,0,29,29,29,101.17951289999837,,,,,,,101.17951289999837,101.17951289999837,102.19241709999915,102.19622509999681,102.19622509999681,102.19622509999681,102.19622509999681,102.76427169999806,z,0.5635747999986052,None,,,,,,,,,,OAT_en,001,2025-03-12_16h28.31.399,MainFlow,2024.2.4,143.73474615496625,2025-03-12 16h28.43.096174 +0700,
2,3,31,word/worden0313.png,30,30,0,x,0.5643425999987812,None,0,30,30,30,102.7696008999992,,,,,,,102.7696008999992,102.7696008999992,103.78049699999974,103.78422999999748,103.78422999999748,103.78422999999748,103.78422999999748,104.35484339999675,x,0.5643425999987812,None,,,,,,,,,,OAT_en,001,2025-03-12_16h28.31.399,MainFlow,2024.2.4,143.73474615496625,2025-03-12 16h28.43.096174 +0700,
2,2,75,word/worden0752.png,31,31,0,x,0.4733004000008805,None,0,31,31,31,104.35947929999747,,,,,,,104.35947929999747,104.35947929999747,105.3644878999985,105.36743279999791,105.36743279999791,105.36743279999791,105.36743279999791,105.84857139999804,x,0.4733004000008805,None,,,,,,,,,,OAT_en,001,2025-03-12_16h28.31.399,MainFlow,2024.2.4,143.73474615496625,2025-03-12 16h28.43.096174 +0700,
2,2,48,word/worden0482.png,32,32,0,x,0.4818898999983503,None,0,32,32,32,105.85249179999664,,,,,,,105.85249179999664,105.85249179999664,106.86928819999957,106.87273229999846,106.87273229999846,106.87273229999846,106.87273229999846,107.36113639999894,x,0.4818898999983503,None,,,,,,,,,,OAT_en,001,2025-03-12_16h28.31.399,MainFlow,2024.2.4,143.73474615496625,2025-03-12 16h28.43.096174 +0700,
2,1,26,word/worden0261.png,33,33,0,x,0.34408710000207066,None,0,33,33,33,107.36585329999798,,,,,,,107.36585329999798,107.36585329999798,108.37949379999918,108.38286059999882,108.38286059999882,108.38286059999882,108.38286059999882,108.72833869999886,x,0.34408710000207066,None,,,,,,,,,,OAT_en,001,2025-03-12_16h28.31.399,MainFlow,2024.2.4,143.73474615496625,2025-03-12 16h28.43.096174 +0700,
2,2,41,word/worden0412.png,34,34,0,x,0.43490299999757553,None,0,34,34,34,108.73359009999695,,,,,,,108.73359009999695,108.73359009999695,109.74456599999758,109.74812919999749,109.74812919999749,109.74812919999749,109.74812919999749,110.18664279999939,x,0.43490299999757553,None,,,,,,,,,,OAT_en,001,2025-03-12_16h28.31.399,MainFlow,2024.2.4,143.73474615496625,2025-03-12 16h28.43.096174 +0700,
2,3,66,word/worden0663.png,35,35,0,x,0.36974199999895063,None,0,35,35,35,110.19173849999788,,,,,,,110.19173849999788,110.19173849999788,111.18946069999947,111.19261049999841,111.19261049999841,111.19261049999841,111.19261049999841,111.56867809999676,x,0.36974199999895063,None,,,,,,,,,,OAT_en,001,2025-03-12_16h28.31.399,MainFlow,2024.2.4,143.73474615496625,2025-03-12 16h28.43.096174 +0700,
2,1,6,word/worden0061.png,36,36,0,z,0.5663395000010496,None,0,36,36,36,111.57342669999707,,,,,,,111.57342669999707,111.57342669999707,112.58939669999745,112.59267999999793,112.59267999999793,112.59267999999793,112.59267999999793,113.16509379999843,z,0.5663395000010496,None,,,,,,,,,,OAT_en,001,2025-03-12_16h28.31.399,MainFlow,2024.2.4,143.73474615496625,2025-03-12 16h28.43.096174 +0700,
2,1,42,word/worden0421.png,37,37,0,z,0.5283853000000818,None,0,37,37,37,113.17028049999863,,,,,,,113.17028049999863,113.17028049999863,114.18175469999915,114.18550109999705,114.18550109999705,114.18550109999705,114.18550109999705,114.72096619999866,z,0.5283853000000818,None,,,,,,,,,,OAT_en,001,2025-03-12_16h28.31.399,MainFlow,2024.2.4,143.73474615496625,2025-03-12 16h28.43.096174 +0700,
2,3,41,word/worden0413.png,38,38,0,x,0.49223279999932856,None,0,38,38,38,114.72561379999752,,,,,,,114.72561379999752,114.72561379999752,115.74270319999778,115.74655259999781,115.74655259999781,115.74655259999781,115.74655259999781,116.24146629999814,x,0.49223279999932856,None,,,,,,,,,,OAT_en,001,2025-03-12_16h28.31.399,MainFlow,2024.2.4,143.73474615496625,2025-03-12 16h28.43.096174 +0700,
2,2,23,word/worden0232.png,39,39,0,x,0.5864916999998968,None,0,39,39,39,116.24609229999987,,,,,,,116.24609229999987,116.24609229999987,117.24712879999788,117.25008369999705,117.25008369999705,117.25008369999705,117.25008369999705,117.8393204999993,x,0.5864916999998968,None,,,,,,,,,,OAT_en,001,2025-03-12_16h28.31.399,MainFlow,2024.2.4,143.73474615496625,2025-03-12 16h28.43.096174 +0700,
2,3,96,word/worden0963.png,40,40,0,x,0.682465099998808,None,0,40,40,40,117.84494039999845,,,,,,,117.84494039999845,117.84494039999845,118.86285199999838,118.86638779999703,118.86638779999703,118.86638779999703,118.86638779999703,119.55206889999681,x,0.682465099998808,None,,,,,,,,,,OAT_en,001,2025-03-12_16h28.31.399,MainFlow,2024.2.4,143.73474615496625,2025-03-12 16h28.43.096174 +0700,
2,1,61,word/worden0611.png,41,41,0,z,0.5083154999992985,None,0,41,41,41,119.55782739999995,,,,,,,119.55782739999995,119.55782739999995,120.56261159999849,120.56556060000003,120.56556060000003,120.56556060000003,120.56556060000003,121.08023719999983,z,0.5083154999992985,None,,,,,,,,,,OAT_en,001,2025-03-12_16h28.31.399,MainFlow,2024.2.4,143.73474615496625,2025-03-12 16h28.43.096174 +0700,
2,3,9,word/worden0093.png,42,42,0,x,0.6666956000008213,None,0,42,42,42,121.08538559999943,,,,,,,121.08538559999943,121.08538559999943,122.09665369999857,122.10064649999913,122.10064649999913,122.10064649999913,122.10064649999913,122.77490949999992,x,0.6666956000008213,None,,,,,,,,,,OAT_en,001,2025-03-12_16h28.31.399,MainFlow,2024.2.4,143.73474615496625,2025-03-12 16h28.43.096174 +0700,
2,3,63,word/worden0633.png,43,43,0,x,0.5442870000006224,None,0,43,43,43,122.77953089999937,,,,,,,122.77953089999937,122.77953089999937,123.77789689999918,123.78084169999784,123.78084169999784,123.78084169999784,123.78084169999784,124.32949889999873,x,0.5442870000006224,None,,,,,,,,,,OAT_en,001,2025-03-12_16h28.31.399,MainFlow,2024.2.4,143.73474615496625,2025-03-12 16h28.43.096174 +0700,
2,3,50,word/worden0503.png,44,44,0,x,0.5448637999979837,None,0,44,44,44,124.33474749999732,,,,,,,124.33474749999732,124.33474749999732,125.35385099999985,125.35714409999855,125.35714409999855,125.35714409999855,125.35714409999855,125.90736879999895,x,0.5448637999979837,None,,,,,,,,,,OAT_en,001,2025-03-12_16h28.31.399,MainFlow,2024.2.4,143.73474615496625,2025-03-12 16h28.43.096174 +0700,
2,2,27,word/worden0272.png,45,45,0,x,0.5835563000000548,None,0,45,45,45,125.91296479999801,,,,,,,125.91296479999801,125.91296479999801,126.92857739999818,126.93216190000021,126.93216190000021,126.93216190000021,126.93216190000021,127.51727589999791,x,0.5835563000000548,None,,,,,,,,,,OAT_en,001,2025-03-12_16h28.31.399,MainFlow,2024.2.4,143.73474615496625,2025-03-12 16h28.43.096174 +0700,
2,2,61,word/worden0612.png,46,46,0,x,0.7150703000006615,None,0,46,46,46,127.52163749999818,,,,,,,127.52163749999818,127.52163749999818,128.54262239999662,128.54597049999938,128.54597049999938,128.54597049999938,128.54597049999938,129.26742789999844,x,0.7150703000006615,None,,,,,,,,,,OAT_en,001,2025-03-12_16h28.31.399,MainFlow,2024.2.4,143.73474615496625,2025-03-12 16h28.43.096174 +0700,
2,3,7,word/worden0073.png,47,47,0,x,0.5847364000001107,None,0,47,47,47,129.27220239999951,,,,,,,129.27220239999951,129.27220239999951,130.28535629999897,130.28888959999676,130.28888959999676,130.28888959999676,130.28888959999676,130.87716719999662,x,0.5847364000001107,None,,,,,,,,,,OAT_en,001,2025-03-12_16h28.31.399,MainFlow,2024.2.4,143.73474615496625,2025-03-12 16h28.43.096174 +0700,
2,3,23,word/worden0233.png,48,48,0,x,0.44664190000185044,None,0,48,48,48,130.8823096999986,,,,,,,130.8823096999986,130.8823096999986,131.897892099998,131.90140099999917,131.90140099999917,131.90140099999917,131.90140099999917,132.35083010000017,x,0.44664190000185044,None,,,,,,,,,,OAT_en,001,2025-03-12_16h28.31.399,MainFlow,2024.2.4,143.73474615496625,2025-03-12 16h28.43.096174 +0700,
2,1,95,word/worden0951.png,49,49,0,z,0.512860400001955,None,0,49,49,49,132.3565475999967,,,,,,,132.3565475999967,132.3565475999967,133.36475999999675,133.36773149999863,133.36773149999863,133.36773149999863,133.36773149999863,133.88343079999686,z,0.512860400001955,None,133.36773149999863,133.36773149999863,,,,,,,,OAT_en,001,2025-03-12_16h28.31.399,MainFlow,2024.2.4,143.73474615496625,2025-03-12 16h28.43.096174 +0700,
2,3,42,word/worden0423.png,50,50,0,x,0.609818400000222,None,0,50,50,50,133.8884810999989,,,,,,,133.8884810999989,133.8884810999989,134.90143039999748,134.90539109999736,134.90539109999736,134.90539109999736,134.90539109999736,135.52166469999793,x,0.609818400000222,None,,,,,,,,,,OAT_en,001,2025-03-12_16h28.31.399,MainFlow,2024.2.4,143.73474615496625,2025-03-12 16h28.43.096174 +0700,
2,1,30,word/worden0301.png,51,51,0,x,0.7554338999980246,None,0,51,51,51,135.5269292999983,,,,,,,135.5269292999983,135.5269292999983,136.54752799999915,136.55090740000014,136.55090740000014,136.55090740000014,136.55090740000014,137.31509439999718,x,0.7554338999980246,None,,,,,,,,,,OAT_en,001,2025-03-12_16h28.31.399,MainFlow,2024.2.4,143.73474615496625,2025-03-12 16h28.43.096174 +0700,
2,3,87,word/worden0873.png,52,52,0,x,1.2698858999974618,None,0,52,52,52,137.31913689999783,,,,,,,137.31913689999783,137.31913689999783,138.334099599997,138.33769849999953,138.33769849999953,138.33769849999953,138.33769849999953,139.6124138999985,x,1.2698858999974618,None,138.33769849999953,138.33769849999953,,,,,,,,OAT_en,001,2025-03-12_16h28.31.399,MainFlow,2024.2.4,143.73474615496625,2025-03-12 16h28.43.096174 +0700,
2,2,6,word/worden0062.png,53,53,0,x,1.1420782000022882,None,0,53,53,53,139.61844039999778,,,,,,,139.61844039999778,139.61844039999778,140.63733099999808,140.64075799999773,140.64075799999773,140.64075799999773,140.64075799999773,141.78462349999973,x,1.1420782000022882,None,,,,,,,,,,OAT_en,001,2025-03-12_16h28.31.399,MainFlow,2024.2.4,143.73474615496625,2025-03-12 16h28.43.096174 +0700,
2,2,68,word/worden0682.png,54,54,0,x,0.6159630000001926,None,0,54,54,54,141.7897641999989,,,,,,,141.7897641999989,141.7897641999989,142.80693769999925,142.8104518,142.8104518,142.8104518,142.8104518,143.4300758999998,x,0.6159630000001926,None,,,,,,,,,,OAT_en,001,2025-03-12_16h28.31.399,MainFlow,2024.2.4,143.73474615496625,2025-03-12 16h28.43.096174 +0700,
2,3,1,word/worden0013.png,55,55,0,x,0.806870100001106,None,0,55,55,55,143.43520349999744,,,,,,,143.43520349999744,143.43520349999744,144.45225949999804,144.4557399999976,144.4557399999976,144.4557399999976,144.4557399999976,145.269650299997,x,0.806870100001106,None,,,,,,,,,,OAT_en,001,2025-03-12_16h28.31.399,MainFlow,2024.2.4,143.73474615496625,2025-03-12 16h28.43.096174 +0700,
2,2,94,word/worden0942.png,56,56,0,x,0.5747974000005343,None,0,56,56,56,145.27514169999995,,,,,,,145.27514169999995,145.27514169999995,146.2900716999975,146.29349389999697,146.29349389999697,146.29349389999697,146.29349389999697,146.87376099999892,x,0.5747974000005343,None,,,,,,,,,,OAT_en,001,2025-03-12_16h28.31.399,MainFlow,2024.2.4,143.73474615496625,2025-03-12 16h28.43.096174 +0700,
2,3,82,word/worden0823.png,57,57,0,x,0.5127763000018604,None,0,57,57,57,146.87910779999947,,,,,,,146.87910779999947,146.87910779999947,147.8908518999997,147.89439949999723,147.89439949999723,147.89439949999723,147.89439949999723,148.4085884999986,x,0.5127763000018604,None,,,,,,,,,,OAT_en,001,2025-03-12_16h28.31.399,MainFlow,2024.2.4,143.73474615496625,2025-03-12 16h28.43.096174 +0700,
2,1,89,word/worden0891.png,58,58,0,x,0.438345800001116,None,0,58,58,58,148.4134465999996,,,,,,,148.4134465999996,148.4134465999996,149.42154689999734,149.42510489999768,149.42510489999768,149.42510489999768,149.42510489999768,149.8670542999971,x,0.438345800001116,None,,,,,,,,,,OAT_en,001,2025-03-12_16h28.31.399,MainFlow,2024.2.4,143.73474615496625,2025-03-12 16h28.43.096174 +0700,
2,1,31,word/worden0311.png,59,59,0,z,0.7296476999981678,None,0,59,59,59,149.8716164999969,,,,,,,149.8716164999969,149.8716164999969,150.88886379999894,150.89199729999746,150.89199729999746,150.89199729999746,150.89199729999746,151.62442849999934,z,0.7296476999981678,None,,,,,,,,,,OAT_en,001,2025-03-12_16h28.31.399,MainFlow,2024.2.4,143.73474615496625,2025-03-12 16h28.43.096174 +0700,
2,2,51,word/worden0512.png,60,60,0,x,0.5816148000012618,None,0,60,60,60,151.63000109999848,,,,,,,151.63000109999848,151.63000109999848,152.64825949999795,152.6515991999986,152.6515991999986,152.6515991999986,152.6515991999986,153.24043539999911,x,0.5816148000012618,None,,,,,,,,,,OAT_en,001,2025-03-12_16h28.31.399,MainFlow,2024.2.4,143.73474615496625,2025-03-12 16h28.43.096174 +0700,
2,3,44,word/worden0443.png,61,61,0,x,0.7574483000025793,None,0,61,61,61,153.24579660000018,,,,,,,153.24579660000018,153.24579660000018,154.265161299998,154.2689498999971,154.2689498999971,154.2689498999971,154.2689498999971,155.0334245999984,x,0.7574483000025793,None,,,,,,,,,,OAT_en,001,2025-03-12_16h28.31.399,MainFlow,2024.2.4,143.73474615496625,2025-03-12 16h28.43.096174 +0700,
2,1,1,word/worden0011.png,62,62,0,z,0.42794620000131545,None,0,62,62,62,155.03919589999714,,,,,,,155.03919589999714,155.03919589999714,156.04216679999809,156.0456189999968,156.0456189999968,156.0456189999968,156.0456189999968,156.4759954000001,z,0.42794620000131545,None,,,,,,,,,,OAT_en,001,2025-03-12_16h28.31.399,MainFlow,2024.2.4,143.73474615496625,2025-03-12 16h28.43.096174 +0700,
2,1,96,word/worden0961.png,63,63,0,z,0.5238883999991231,None,0,63,63,63,156.48128949999955,,,,,,,156.48128949999955,156.48128949999955,157.49636759999703,157.4999465999972,157.4999465999972,157.4999465999972,157.4999465999972,158.02589049999733,z,0.5238883999991231,None,,,,,,,,,,OAT_en,001,2025-03-12_16h28.31.399,MainFlow,2024.2.4,143.73474615496625,2025-03-12 16h28.43.096174 +0700,
2,1,11,word/worden0111.png,64,64,0,z,0.4217759000021033,None,0,64,64,64,158.03110549999838,,,,,,,158.03110549999838,158.03110549999838,159.0493738999976,159.0528618999997,159.0528618999997,159.0528618999997,159.0528618999997,159.47624609999912,z,0.4217759000021033,None,,,,,,,,,,OAT_en,001,2025-03-12_16h28.31.399,MainFlow,2024.2.4,143.73474615496625,2025-03-12 16h28.43.096174 +0700,
2,3,70,word/worden0703.png,65,65,0,x,0.6604522999987239,None,0,65,65,65,159.48074769999948,,,,,,,159.48074769999948,159.48074769999948,160.49921109999923,160.50254139999743,160.50254139999743,160.50254139999743,160.50254139999743,161.16891929999838,x,0.6604522999987239,None,,,,,,,,,,OAT_en,001,2025-03-12_16h28.31.399,MainFlow,2024.2.4,143.73474615496625,2025-03-12 16h28.43.096174 +0700,
2,3,71,word/worden0713.png,66,66,0,x,0.5727416999980051,None,0,66,66,66,161.1747491999995,,,,,,,161.1747491999995,161.1747491999995,162.1925530999979,162.19598609999957,162.19598609999957,162.19598609999957,162.19598609999957,162.77376189999995,x,0.5727416999980051,None,,,,,,,,,,OAT_en,001,2025-03-12_16h28.31.399,MainFlow,2024.2.4,143.73474615496625,2025-03-12 16h28.43.096174 +0700,
2,1,68,word/worden0681.png,67,67,0,x,0.5067311000020709,None,0,67,67,67,162.77877089999674,,,,,,,162.77877089999674,162.77877089999674,163.79226079999717,163.79590149999785,163.79590149999785,163.79590149999785,163.79590149999785,164.309216499998,x,0.5067311000020709,None,,,,,,,,,,OAT_en,001,2025-03-12_16h28.31.399,MainFlow,2024.2.4,143.73474615496625,2025-03-12 16h28.43.096174 +0700,
2,2,88,word/worden0882.png,68,68,0,x,0.514509900000121,None,0,68,68,68,164.31519039999694,,,,,,,164.31519039999694,164.31519039999694,165.31117129999984,165.31414099999893,165.31414099999893,165.31414099999893,165.31414099999893,165.83735999999772,x,0.514509900000121,None,,,,,,,,,,OAT_en,001,2025-03-12_16h28.31.399,MainFlow,2024.2.4,143.73474615496625,2025-03-12 16h28.43.096174 +0700,
2,2,50,word/worden0502.png,69,69,0,x,0.5432016000013391,None,0,69,69,69,165.8414464999987,,,,,,,165.8414464999987,165.8414464999987,166.85977679999996,166.86319619999995,166.86319619999995,166.86319619999995,166.86319619999995,167.41160649999802,x,0.5432016000013391,None,,,,,,,,,,OAT_en,001,2025-03-12_16h28.31.399,MainFlow,2024.2.4,143.73474615496625,2025-03-12 16h28.43.096174 +0700,
2,3,93,word/worden0933.png,70,70,0,x,0.5335553999975673,None,0,70,70,70,167.4167422999999,,,,,,,167.4167422999999,167.4167422999999,168.43424389999927,168.4375697999967,168.4375697999967,168.4375697999967,168.4375697999967,168.97344789999988,x,0.5335553999975673,None,,,,,,,,,,OAT_en,001,2025-03-12_16h28.31.399,MainFlow,2024.2.4,143.73474615496625,2025-03-12 16h28.43.096174 +0700,
2,1,63,word/worden0631.png,71,71,0,z,0.5968796000015573,None,0,71,71,71,168.97886709999875,,,,,,,168.97886709999875,168.97886709999875,169.9827323999998,169.9860701999969,169.9860701999969,169.9860701999969,169.9860701999969,170.58603389999917,z,0.5968796000015573,None,,,,,,,,,,OAT_en,001,2025-03-12_16h28.31.399,MainFlow,2024.2.4,143.73474615496625,2025-03-12 16h28.43.096174 +0700,
2,2,7,word/worden0072.png,72,72,0,x,0.4916933999993489,None,0,72,72,72,170.59162199999992,,,,,,,170.59162199999992,170.59162199999992,171.60887139999977,171.61214029999974,171.61214029999974,171.61214029999974,171.61214029999974,172.1066370999979,x,0.4916933999993489,None,,,,,,,,,,OAT_en,001,2025-03-12_16h28.31.399,MainFlow,2024.2.4,143.73474615496625,2025-03-12 16h28.43.096174 +0700,
2,2,64,word/worden0642.png,73,73,0,x,0.5065351000012015,None,0,73,73,73,172.11250289999953,,,,,,,172.11250289999953,172.11250289999953,173.1235428,173.12706219999745,173.12706219999745,173.12706219999745,173.12706219999745,173.63883910000004,x,0.5065351000012015,None,,,,,,,,,,OAT_en,001,2025-03-12_16h28.31.399,MainFlow,2024.2.4,143.73474615496625,2025-03-12 16h28.43.096174 +0700,
2,1,24,word/worden0241.png,74,74,0,z,0.5372158999998646,None,0,74,74,74,173.64460939999844,,,,,,,173.64460939999844,173.64460939999844,174.65727349999725,174.66122939999696,174.66122939999696,174.66122939999696,174.66122939999696,175.20162209999762,z,0.5372158999998646,None,,,,,,,,,,OAT_en,001,2025-03-12_16h28.31.399,MainFlow,2024.2.4,143.73474615496625,2025-03-12 16h28.43.096174 +0700,
2,2,1,word/worden0012.png,75,75,0,x,0.47120619999986957,None,0,75,75,75,175.2069472999974,,,,,,,175.2069472999974,175.2069472999974,176.22060999999667,176.22435889999906,176.22435889999906,176.22435889999906,176.22435889999906,176.7023792,x,0.47120619999986957,None,,,,,,,,,,OAT_en,001,2025-03-12_16h28.31.399,MainFlow,2024.2.4,143.73474615496625,2025-03-12 16h28.43.096174 +0700,
2,1,46,word/worden0461.png,76,76,0,z,0.5047217000028468,None,0,76,76,76,176.70666879999771,,,,,,,176.70666879999771,176.70666879999771,177.72064820000014,177.72415399999954,177.72415399999954,177.72415399999954,177.72415399999954,178.23669659999723,z,0.5047217000028468,None,,,,,,,,,,OAT_en,001,2025-03-12_16h28.31.399,MainFlow,2024.2.4,143.73474615496625,2025-03-12 16h28.43.096174 +0700,
2,3,52,word/worden0523.png,77,77,0,x,0.4797891000016534,None,0,77,77,77,178.24109820000012,,,,,,,178.24109820000012,178.24109820000012,179.25826089999828,179.26182249999692,179.26182249999692,179.26182249999692,179.26182249999692,179.74307789999875,x,0.4797891000016534,None,,,,,,,,,,OAT_en,001,2025-03-12_16h28.31.399,MainFlow,2024.2.4,143.73474615496625,2025-03-12 16h28.43.096174 +0700,
2,2,31,word/worden0312.png,78,78,0,x,0.5533364000002621,None,0,78,78,78,179.74766289999752,,,,,,,179.74766289999752,179.74766289999752,180.76448099999834,180.76777909999873,180.76777909999873,180.76777909999873,180.76777909999873,181.32563079999818,x,0.5533364000002621,None,,,,,,,,,,OAT_en,001,2025-03-12_16h28.31.399,MainFlow,2024.2.4,143.73474615496625,2025-03-12 16h28.43.096174 +0700,
2,2,95,word/worden0952.png,79,79,0,x,0.6734021000011126,None,0,79,79,79,181.33073509999667,,,,,,,181.33073509999667,181.33073509999667,182.34472429999732,182.34818389999782,182.34818389999782,182.34818389999782,182.34818389999782,183.02810939999836,x,0.6734021000011126,None,,,,,,,,,,OAT_en,001,2025-03-12_16h28.31.399,MainFlow,2024.2.4,143.73474615496625,2025-03-12 16h28.43.096174 +0700,
2,1,93,word/worden0931.png,80,80,0,z,0.752562300000136,None,0,80,80,80,183.033072299997,,,,,,,183.033072299997,183.033072299997,184.04879710000023,184.05221079999683,184.05221079999683,184.05221079999683,184.05221079999683,184.81081389999963,z,0.752562300000136,None,,,,,,,,,,OAT_en,001,2025-03-12_16h28.31.399,MainFlow,2024.2.4,143.73474615496625,2025-03-12 16h28.43.096174 +0700,
2,1,71,word/worden0711.png,81,81,0,z,0.660152599997673,None,0,81,81,81,184.8161102999984,,,,,,,184.8161102999984,184.8161102999984,185.8286036999998,185.83215469999777,185.83215469999777,185.83215469999777,185.83215469999777,186.49837509999998,z,0.660152599997673,None,,,,,,,,,,OAT_en,001,2025-03-12_16h28.31.399,MainFlow,2024.2.4,143.73474615496625,2025-03-12 16h28.43.096174 +0700,
2,1,48,word/worden0481.png,82,82,0,z,0.6842560000004596,None,0,82,82,82,186.50336479999896,,,,,,,186.50336479999896,186.50336479999896,187.51519729999927,187.5186165999985,187.5186165999985,187.5186165999985,187.5186165999985,188.20656729999973,z,0.6842560000004596,None,,,,,,,,,,OAT_en,001,2025-03-12_16h28.31.399,MainFlow,2024.2.4,143.73474615496625,2025-03-12 16h28.43.096174 +0700,
2,1,94,word/worden0941.png,83,83,0,z,0.8254412000023876,None,0,83,83,83,188.21128569999928,,,,,,,188.21128569999928,188.21128569999928,189.21545389999665,189.21841949999725,189.21841949999725,189.21841949999725,189.21841949999725,190.0462152,z,0.8254412000023876,None,,,,,,,,,,OAT_en,001,2025-03-12_16h28.31.399,MainFlow,2024.2.4,143.73474615496625,2025-03-12 16h28.43.096174 +0700,
2,3,68,word/worden0683.png,84,84,0,x,0.8281838000002608,None,0,84,84,84,190.0512824999969,,,,,,,190.0512824999969,190.0512824999969,191.0690951999968,191.07272539999758,191.07272539999758,191.07272539999758,191.07272539999758,191.9083658999989,x,0.8281838000002608,None,,,,,,,,,,OAT_en,001,2025-03-12_16h28.31.399,MainFlow,2024.2.4,143.73474615496625,2025-03-12 16h28.43.096174 +0700,
2,2,66,word/worden0662.png,85,85,0,x,0.6770345999975689,None,0,85,85,85,191.9128614000001,,,,,,,191.9128614000001,191.9128614000001,192.9249646999997,192.92821019999974,192.92821019999974,192.92821019999974,192.92821019999974,193.60796219999975,x,0.6770345999975689,None,,,,,,,,,,OAT_en,001,2025-03-12_16h28.31.399,MainFlow,2024.2.4,143.73474615496625,2025-03-12 16h28.43.096174 +0700,
2,3,95,word/worden0953.png,86,86,0,x,0.6892525000002934,None,0,86,86,86,193.61302029999933,,,,,,,193.61302029999933,193.61302029999933,194.61339260000022,194.61645399999907,194.61645399999907,194.61645399999907,194.61645399999907,195.30908060000002,x,0.6892525000002934,None,,,,,,,,,,OAT_en,001,2025-03-12_16h28.31.399,MainFlow,2024.2.4,143.73474615496625,2025-03-12 16h28.43.096174 +0700,
2,3,30,word/worden0303.png,87,87,0,x,0.5565610000012384,None,0,87,87,87,195.31419509999978,,,,,,,195.31419509999978,195.31419509999978,196.32292649999727,196.32596379999814,196.32596379999814,196.32596379999814,196.32596379999814,196.88516449999952,x,0.5565610000012384,None,,,,,,,,,,OAT_en,001,2025-03-12_16h28.31.399,MainFlow,2024.2.4,143.73474615496625,2025-03-12 16h28.43.096174 +0700,
2,3,22,word/worden0223.png,88,88,0,x,0.5925692000018898,None,0,88,88,88,196.89012349999757,,,,,,,196.89012349999757,196.89012349999757,197.89747499999794,197.9006597999978,197.9006597999978,197.9006597999978,197.9006597999978,198.4958243000001,x,0.5925692000018898,None,,,,,,,,,,OAT_en,001,2025-03-12_16h28.31.399,MainFlow,2024.2.4,143.73474615496625,2025-03-12 16h28.43.096174 +0700,
2,1,75,word/worden0751.png,89,89,0,x,0.5155377000010049,None,0,89,89,89,198.50100419999944,,,,,,,198.50100419999944,198.50100419999944,199.5192324999989,199.52250899999854,199.52250899999854,199.52250899999854,199.52250899999854,200.04408909999984,x,0.5155377000010049,None,,,,,,,,,,OAT_en,001,2025-03-12_16h28.31.399,MainFlow,2024.2.4,143.73474615496625,2025-03-12 16h28.43.096174 +0700,
2,1,64,word/worden0641.png,90,90,0,z,0.49487490000319667,None,0,90,90,90,200.0492884999985,,,,,,,200.0492884999985,200.0492884999985,201.06380119999812,201.0671087999981,201.0671087999981,201.0671087999981,201.0671087999981,201.56467169999814,z,0.49487490000319667,None,,,,,,,,,,OAT_en,001,2025-03-12_16h28.31.399,MainFlow,2024.2.4,143.73474615496625,2025-03-12 16h28.43.096174 +0700,
2,1,27,word/worden0271.png,91,91,0,z,0.818401200001972,None,0,91,91,91,201.56986929999766,,,,,,,201.56986929999766,201.56986929999766,202.57504789999803,202.57873349999863,202.57873349999863,202.57873349999863,202.57873349999863,203.39927859999807,z,0.818401200001972,None,,,,,,,,,,OAT_en,001,2025-03-12_16h28.31.399,MainFlow,2024.2.4,143.73474615496625,2025-03-12 16h28.43.096174 +0700,
2,2,24,word/worden0242.png,92,92,0,x,0.7035432000011497,None,0,92,92,92,203.4053931999988,,,,,,,203.4053931999988,203.4053931999988,204.42161990000022,204.42492799999673,204.42492799999673,204.42492799999673,204.42492799999673,205.13384659999792,x,0.7035432000011497,None,,,,,,,,,,OAT_en,001,2025-03-12_16h28.31.399,MainFlow,2024.2.4,143.73474615496625,2025-03-12 16h28.43.096174 +0700,
2,1,87,word/worden0871.png,93,93,0,z,0.6062710999976844,None,0,93,93,93,205.13863239999773,,,,,,,205.13863239999773,205.13863239999773,206.15717059999952,206.16076879999673,206.16076879999673,206.16076879999673,206.16076879999673,206.7720491,z,0.6062710999976844,None,,,,,,,,,,OAT_en,001,2025-03-12_16h28.31.399,MainFlow,2024.2.4,143.73474615496625,2025-03-12 16h28.43.096174 +0700,
2,1,7,word/worden0071.png,94,94,0,z,0.48660759999984293,None,0,94,94,94,206.77722589999757,,,,,,,206.77722589999757,206.77722589999757,207.7900974999975,207.79339189999882,207.79339189999882,207.79339189999882,207.79339189999882,208.28552219999983,z,0.48660759999984293,None,,,,,,,,,,OAT_en,001,2025-03-12_16h28.31.399,MainFlow,2024.2.4,143.73474615496625,2025-03-12 16h28.43.096174 +0700,
2,2,9,word/worden0092.png,95,95,0,x,0.6207393000004231,None,0,95,95,95,208.290727399999,,,,,,,208.290727399999,208.290727399999,209.30564830000003,209.30885419999686,209.30885419999686,209.30885419999686,209.30885419999686,209.93127749999985,x,0.6207393000004231,None,,,,,,,,,,OAT_en,001,2025-03-12_16h28.31.399,MainFlow,2024.2.4,143.73474615496625,2025-03-12 16h28.43.096174 +0700,
2,1,44,word/worden0441.png,96,96,0,z,0.7159864000022935,None,0,96,96,96,209.93628519999766,,,,,,,209.93628519999766,209.93628519999766,210.94641959999717,210.95016069999838,210.95016069999838,210.95016069999838,210.95016069999838,211.67366169999877,z,0.7159864000022935,None,,,,,,,,,,OAT_en,001,2025-03-12_16h28.31.399,MainFlow,2024.2.4,143.73474615496625,2025-03-12 16h28.43.096174 +0700,
2,2,10,word/worden0102.png,97,97,0,x,0.5161189999998896,None,0,97,97,97,211.67905849999806,,,,,,,211.67905849999806,211.67905849999806,212.69845609999902,212.70174909999696,212.70174909999696,212.70174909999696,212.70174909999696,213.22352239999964,x,0.5161189999998896,None,,,,,,,,,,OAT_en,001,2025-03-12_16h28.31.399,MainFlow,2024.2.4,143.73474615496625,2025-03-12 16h28.43.096174 +0700,
2,2,82,word/worden0822.png,98,98,0,x,0.8293962999996438,None,0,98,98,98,213.22901779999665,,,,,,,213.22901779999665,213.22901779999665,214.23667639999985,214.24051129999862,214.24051129999862,214.24051129999862,214.24051129999862,215.07650920000015,x,0.8293962999996438,None,,,,,,,,,,OAT_en,001,2025-03-12_16h28.31.399,MainFlow,2024.2.4,143.73474615496625,2025-03-12 16h28.43.096174 +0700,
2,3,89,word/worden0893.png,99,99,0,x,0.49576840000008815,None,0,99,99,99,215.08127519999834,,,,,,,215.08127519999834,215.08127519999834,216.0955929999982,216.09909329999937,216.09909329999937,216.09909329999937,216.09909329999937,216.59789399999863,x,0.49576840000008815,None,,,,,,,,,,OAT_en,001,2025-03-12_16h28.31.399,MainFlow,2024.2.4,143.73474615496625,2025-03-12 16h28.43.096174 +0700,
2,2,44,word/worden0442.png,100,100,0,x,0.49842770000032033,None,0,100,100,100,216.60338149999734,,,,,,,216.60338149999734,216.60338149999734,217.61577199999738,217.61928879999687,217.61928879999687,217.61928879999687,217.61928879999687,218.1244461999995,x,0.49842770000032033,None,,,,,,,,,,OAT_en,001,2025-03-12_16h28.31.399,MainFlow,2024.2.4,143.73474615496625,2025-03-12 16h28.43.096174 +0700,
2,1,52,word/worden0521.png,101,101,0,x,0.44911119999960647,None,0,101,101,101,218.1292539999995,,,,,,,218.1292539999995,218.1292539999995,219.1506445999985,219.1546761999998,219.1546761999998,219.1546761999998,219.1546761999998,219.61083419999704,x,0.44911119999960647,None,,,,,,,,,,OAT_en,001,2025-03-12_16h28.31.399,MainFlow,2024.2.4,143.73474615496625,2025-03-12 16h28.43.096174 +0700,
2,1,51,word/worden0511.png,102,102,0,z,0.5691482999973232,None,0,102,102,102,219.61547489999793,,,,,,,219.61547489999793,219.61547489999793,220.62233930000002,220.62527979999868,220.62527979999868,220.62527979999868,220.62527979999868,221.19955849999678,z,0.5691482999973232,None,,,,,,,,,,OAT_en,001,2025-03-12_16h28.31.399,MainFlow,2024.2.4,143.73474615496625,2025-03-12 16h28.43.096174 +0700,
2,3,51,word/worden0513.png,103,103,0,x,0.7996824000001652,None,0,103,103,103,221.2050700999971,,,,,,,221.2050700999971,221.2050700999971,222.22623639999802,222.22990989999744,222.22990989999744,222.22990989999744,222.22990989999744,223.03343089999908,x,0.7996824000001652,None,,,,,,,,,,OAT_en,001,2025-03-12_16h28.31.399,MainFlow,2024.2.4,143.73474615496625,2025-03-12 16h28.43.096174 +0700,
2,2,8,word/worden0082.png,104,104,0,x,0.9272514000003866,None,0,104,104,104,223.03813669999727,,,,,,,223.03813669999727,223.03813669999727,224.0535278999996,224.05714929999885,224.05714929999885,224.05714929999885,224.05714929999885,224.99165009999706,x,0.9272514000003866,None,,,,,,,,,,OAT_en,001,2025-03-12_16h28.31.399,MainFlow,2024.2.4,143.73474615496625,2025-03-12 16h28.43.096174 +0700,
2,2,3,word/worden0032.png,105,105,0,x,0.6112154000002192,None,0,105,105,105,224.99638429999686,,,,,,,224.99638429999686,224.99638429999686,226.0172722999996,226.02083349999884,226.02083349999884,226.02083349999884,226.02083349999884,226.63676759999726,x,0.6112154000002192,None,,,,,,,,,,OAT_en,001,2025-03-12_16h28.31.399,MainFlow,2024.2.4,143.73474615496625,2025-03-12 16h28.43.096174 +0700,
2,3,3,word/worden0033.png,106,106,0,x,0.6486976999985927,None,0,106,106,106,226.64158809999935,,,,,,,226.64158809999935,226.64158809999935,227.65493929999866,227.65877499999988,227.65877499999988,227.65877499999988,227.65877499999988,228.30950630000007,x,0.6486976999985927,None,,,,,,,,,,OAT_en,001,2025-03-12_16h28.31.399,MainFlow,2024.2.4,143.73474615496625,2025-03-12 16h28.43.096174 +0700,
2,3,64,word/worden0643.png,107,107,0,x,0.6193526000024576,None,0,107,107,107,228.31464399999822,,,,,,,228.31464399999822,228.31464399999822,229.33033259999866,229.3337216,229.3337216,229.3337216,229.3337216,229.95481049999944,x,0.6193526000024576,None,,,,,,,,,,OAT_en,001,2025-03-12_16h28.31.399,MainFlow,2024.2.4,143.73474615496625,2025-03-12 16h28.43.096174 +0700,
2,3,26,word/worden0263.png,108,108,0,x,0.5148962000021129,None,0,108,108,108,229.9601836999973,,,,,,,229.9601836999973,229.9601836999973,230.97863669999788,230.98210560000007,230.98210560000007,230.98210560000007,230.98210560000007,231.50429189999704,x,0.5148962000021129,None,,,,,,,,,,OAT_en,001,2025-03-12_16h28.31.399,MainFlow,2024.2.4,143.73474615496625,2025-03-12 16h28.43.096174 +0700,
2,2,96,word/worden0962.png,109,109,0,x,0.5649732000019867,None,0,109,109,109,231.50896250000005,,,,,,,231.50896250000005,231.50896250000005,232.52191859999948,232.525744999999,232.525744999999,232.525744999999,232.525744999999,233.09448039999916,x,0.5649732000019867,None,,,,,,,,,,OAT_en,001,2025-03-12_16h28.31.399,MainFlow,2024.2.4,143.73474615496625,2025-03-12 16h28.43.096174 +0700,
2,1,22,word/worden0221.png,110,110,0,z,0.5552027000012458,None,0,110,110,110,233.10012730000017,,,,,,,233.10012730000017,233.10012730000017,234.11037099999885,234.11350299999685,234.11350299999685,234.11350299999685,234.11350299999685,234.67118239999763,z,0.5552027000012458,None,,,,,,,,,,OAT_en,001,2025-03-12_16h28.31.399,MainFlow,2024.2.4,143.73474615496625,2025-03-12 16h28.43.096174 +0700,
2,2,22,word/worden0222.png,111,111,0,x,0.45223299999997835,None,0,111,111,111,234.67682879999848,,,,,,,234.67682879999848,234.67682879999848,235.69283879999784,235.69615829999748,235.69615829999748,235.69615829999748,235.69615829999748,236.1544329999997,x,0.45223299999997835,None,,,,,,,,,,OAT_en,001,2025-03-12_16h28.31.399,MainFlow,2024.2.4,143.73474615496625,2025-03-12 16h28.43.096174 +0700,
2,2,26,word/worden0262.png,112,112,0,x,0.4404619000015373,None,0,112,112,112,236.16021629999886,,,,,,,236.16021629999886,236.16021629999886,237.17896459999974,237.18216429999666,237.18216429999666,237.18216429999666,237.18216429999666,237.6282128999992,x,0.4404619000015373,None,,,,,,,,,,OAT_en,001,2025-03-12_16h28.31.399,MainFlow,2024.2.4,143.73474615496625,2025-03-12 16h28.43.096174 +0700,
2,3,48,word/worden0483.png,113,113,0,x,0.7449266000003263,None,0,113,113,113,237.63363109999773,,,,,,,237.63363109999773,237.63363109999773,238.64916869999797,238.65278279999984,238.65278279999984,238.65278279999984,238.65278279999984,239.40405759999703,x,0.7449266000003263,None,,,,,,,,,,OAT_en,001,2025-03-12_16h28.31.399,MainFlow,2024.2.4,143.73474615496625,2025-03-12 16h28.43.096174 +0700,
2,2,87,word/worden0872.png,114,114,0,x,0.5705247000005329,None,0,114,114,114,239.40987329999916,,,,,,,239.40987329999916,239.40987329999916,240.40406109999822,240.40712669999994,240.40712669999994,240.40712669999994,240.40712669999994,240.98107519999758,x,0.5705247000005329,None,,,,,,,,,,OAT_en,001,2025-03-12_16h28.31.399,MainFlow,2024.2.4,143.73474615496625,2025-03-12 16h28.43.096174 +0700,
2,1,10,word/worden0101.png,115,115,0,z,0.49612139999953797,None,0,115,115,115,240.98582339999848,,,,,,,240.98582339999848,240.98582339999848,242.00293839999722,242.00641389999873,242.00641389999873,242.00641389999873,242.00641389999873,242.50851059999695,z,0.49612139999953797,None,,,,,,,,,,OAT_en,001,2025-03-12_16h28.31.399,MainFlow,2024.2.4,143.73474615496625,2025-03-12 16h28.43.096174 +0700,
2,3,8,word/worden0083.png,116,116,0,x,0.5622753999996348,None,0,116,116,116,242.51349899999695,,,,,,,242.51349899999695,242.51349899999695,243.53239509999912,243.5359107999975,243.5359107999975,243.5359107999975,243.5359107999975,244.10480469999675,x,0.5622753999996348,None,,,,,,,,,,OAT_en,001,2025-03-12_16h28.31.399,MainFlow,2024.2.4,143.73474615496625,2025-03-12 16h28.43.096174 +0700,
2,3,94,word/worden0943.png,117,117,0,x,0.5694849000028626,None,0,117,117,117,244.11022289999892,,,,,,,244.11022289999892,244.11022289999892,245.12335359999997,245.12642269999924,245.12642269999924,245.12642269999924,245.12642269999924,245.70195769999918,x,0.5694849000028626,None,,,,,,,,,,OAT_en,001,2025-03-12_16h28.31.399,MainFlow,2024.2.4,143.73474615496625,2025-03-12 16h28.43.096174 +0700,
2,2,11,word/worden0112.png,118,118,0,x,0.7768739999992249,None,0,118,118,118,245.70713669999896,,,,,,,245.70713669999896,245.70713669999896,246.72773099999904,246.73119589999988,246.73119589999988,246.73119589999988,246.73119589999988,247.51414349999686,x,0.7768739999992249,None,,,,,,,,,,OAT_en,001,2025-03-12_16h28.31.399,MainFlow,2024.2.4,143.73474615496625,2025-03-12 16h28.43.096174 +0700,
2,3,24,word/worden0243.png,119,119,0,x,0.7452674000014667,None,0,119,119,119,247.51926009999806,,,,,,,247.51926009999806,247.51926009999806,248.5348516999984,248.5380914999987,248.5380914999987,248.5380914999987,248.5380914999987,249.28536639999948,x,0.7452674000014667,None,,,,,,,,,,OAT_en,001,2025-03-12_16h28.31.399,MainFlow,2024.2.4,143.73474615496625,2025-03-12 16h28.43.096174 +0700,
,,,,,,,,,,,,,,,,,,,,,,,,,,,,,,,,,,249.28563179999765,249.29164299999684,249.29164299999684,251.12510469999688,space,1.826298300002236,None,OAT_en,001,2025-03-12_16h28.31.399,MainFlow,2024.2.4,143.73474615496625,2025-03-12 16h28.43.096174 +0700,
