lang,stimuli,imageid,worddir,thisN,thisTrialN,thisRepN,key_resp.keys,key_resp.rt,key_resp.duration,trials.thisRepN,trials.thisTrialN,trials.thisN,trials.thisIndex,thisRow.t,notes,tutorial.started,tutorial.stopped,key_instruct.keys,key_instruct.rt,key_instruct.duration,instructblank.started,cross1.started,letterselect.started,imageword.started,text_2.started,cross2.started,key_resp.started,letterselect.stopped,trials.key_resp.keys,trials.key_resp.rt,trials.key_resp.duration,instructblank.stopped,cross1.stopped,ending.started,text_3.started,ending_key.started,ending.stopped,ending_key.keys,ending_key.rt,ending_key.duration,participant,session,date,expName,psychopyVersion,frameRate,expStart,
,,,,,,,,,,,,,,,,0.003110999999989872,680.6579847999983,space,680.6271965000014,None,,,,,,,,,,,,,,,,,,,,,OAT_th,001,2025-03-12_16h13.11.514,MainFlow,2024.2.4,141.6161804997742,2025-03-12 16h13.22.100187 +0700,
1,3,89,word/wordth0893.png,0,0,0,x,1.3506902999979502,None,0,0,0,0,680.6881044999991,,,,,,,680.6881044999991,680.6881044999991,681.7147660999999,681.739878800001,681.739878800001,681.739878800001,681.739878800001,683.0978019000013,x,1.3506902999979502,None,,,,,,,,,,OAT_th,001,2025-03-12_16h13.11.514,MainFlow,2024.2.4,141.6161804997742,2025-03-12 16h13.22.100187 +0700,
1,3,28,word/wordth0283.png,1,1,0,x,0.7098389999991923,None,0,1,1,1,683.1034582999982,,,,,,,683.1034582999982,683.1034582999982,684.1157709999989,684.119155800001,684.119155800001,684.119155800001,684.119155800001,684.8326298000011,x,0.7098389999991923,None,,,,,,,,,,OAT_th,001,2025-03-12_16h13.11.514,MainFlow,2024.2.4,141.6161804997742,2025-03-12 16h13.22.100187 +0700,
1,2,87,word/wordth0872.png,2,2,0,x,0.9216070000002219,None,0,2,2,2,684.8377851999994,,,,,,,684.8377851999994,684.8377851999994,685.8566658,685.8602725000001,685.8602725000001,685.8602725000001,685.8602725000001,686.7846674000011,x,0.9216070000002219,None,,,,,,,,,,OAT_th,001,2025-03-12_16h13.11.514,MainFlow,2024.2.4,141.6161804997742,2025-03-12 16h13.22.100187 +0700,
1,2,68,word/wordth0682.png,3,3,0,z,0.737033600002178,None,0,3,3,3,686.7902185000003,,,,,,,686.7902185000003,686.7902185000003,687.8057668999991,687.8090640999999,687.8090640999999,687.8090640999999,687.8090640999999,688.5474301999984,z,0.737033600002178,None,,,,,,,,,,OAT_th,001,2025-03-12_16h13.11.514,MainFlow,2024.2.4,141.6161804997742,2025-03-12 16h13.22.100187 +0700,
1,2,11,word/wordth0112.png,4,4,0,x,0.6912621000010404,None,0,4,4,4,688.5523492000011,,,,,,,688.5523492000011,688.5523492000011,689.5673130999985,689.5706719999998,689.5706719999998,689.5706719999998,689.5706719999998,690.2692176,x,0.6912621000010404,None,,,,,,,,,,OAT_th,001,2025-03-12_16h13.11.514,MainFlow,2024.2.4,141.6161804997742,2025-03-12 16h13.22.100187 +0700,
1,3,11,word/wordth0113.png,5,5,0,x,0.7625752000021748,None,0,5,5,5,690.2740986000008,,,,,,,690.2740986000008,690.2740986000008,691.289277599999,691.2925448000005,691.2925448000005,691.2925448000005,691.2925448000005,692.0603001,x,0.7625752000021748,None,,,,,,,,,,OAT_th,001,2025-03-12_16h13.11.514,MainFlow,2024.2.4,141.6161804997742,2025-03-12 16h13.22.100187 +0700,
1,2,71,word/wordth0712.png,6,6,0,x,0.681566200000816,None,0,6,6,6,692.0654468999983,,,,,,,692.0654468999983,692.0654468999983,693.0816385999988,693.0850098999999,693.0850098999999,693.0850098999999,693.0850098999999,693.7685680999984,x,0.681566200000816,None,,,,,,,,,,OAT_th,001,2025-03-12_16h13.11.514,MainFlow,2024.2.4,141.6161804997742,2025-03-12 16h13.22.100187 +0700,
1,3,44,word/wordth0443.png,7,7,0,x,0.5848867999993672,None,0,7,7,7,693.7733845999992,,,,,,,693.7733845999992,693.7733845999992,694.769545000001,694.7724441000009,694.7724441000009,694.7724441000009,694.7724441000009,695.3592474999987,x,0.5848867999993672,None,,,,,,,,,,OAT_th,001,2025-03-12_16h13.11.514,MainFlow,2024.2.4,141.6161804997742,2025-03-12 16h13.22.100187 +0700,
1,2,82,word/wordth0822.png,8,8,0,x,0.6885318999993615,None,0,8,8,8,695.3639205000018,,,,,,,695.3639205000018,695.3639205000018,696.3756672,696.3791763999998,696.3791763999998,696.3791763999998,696.3791763999998,697.0733358999987,x,0.6885318999993615,None,,,,,,,,,,OAT_th,001,2025-03-12_16h13.11.514,MainFlow,2024.2.4,141.6161804997742,2025-03-12 16h13.22.100187 +0700,
1,2,28,word/wordth0282.png,9,9,0,x,0.7292338000006566,None,0,9,9,9,697.0784441000014,,,,,,,697.0784441000014,697.0784441000014,698.0901617,698.0937471999987,698.0937471999987,698.0937471999987,698.0937471999987,698.8293738000011,x,0.7292338000006566,None,,,,,,,,,,OAT_th,001,2025-03-12_16h13.11.514,MainFlow,2024.2.4,141.6161804997742,2025-03-12 16h13.22.100187 +0700,
1,1,23,word/wordth0231.png,10,10,0,z,0.7990816000019549,None,0,10,10,10,698.8348593999999,,,,,,,698.8348593999999,698.8348593999999,699.8329705000015,699.836060399999,699.836060399999,699.836060399999,699.836060399999,700.6416841000009,z,0.7990816000019549,None,,,,,,,,,,OAT_th,001,2025-03-12_16h13.11.514,MainFlow,2024.2.4,141.6161804997742,2025-03-12 16h13.22.100187 +0700,
1,2,63,word/wordth0632.png,11,11,0,x,0.5421368999996048,None,0,11,11,11,700.6471350000011,,,,,,,700.6471350000011,700.6471350000011,701.6644662999988,701.6676986000002,701.6676986000002,701.6676986000002,701.6676986000002,702.2107917000012,x,0.5421368999996048,None,,,,,,,,,,OAT_th,001,2025-03-12_16h13.11.514,MainFlow,2024.2.4,141.6161804997742,2025-03-12 16h13.22.100187 +0700,
1,3,71,word/wordth0713.png,12,12,0,x,0.5902051999983087,None,0,12,12,12,702.2161213999989,,,,,,,702.2161213999989,702.2161213999989,703.2214761000014,703.2246436000005,703.2246436000005,703.2246436000005,703.2246436000005,703.8228330000002,x,0.5902051999983087,None,,,,,,,,,,OAT_th,001,2025-03-12_16h13.11.514,MainFlow,2024.2.4,141.6161804997742,2025-03-12 16h13.22.100187 +0700,
1,1,1,word/wordth0011.png,13,13,0,z,0.702567899999849,None,0,13,13,13,703.8272325000016,,,,,,,703.8272325000016,703.8272325000016,704.8486570000005,704.8522971000002,704.8522971000002,704.8522971000002,704.8522971000002,705.5574084000018,z,0.702567899999849,None,,,,,,,,,,OAT_th,001,2025-03-12_16h13.11.514,MainFlow,2024.2.4,141.6161804997742,2025-03-12 16h13.22.100187 +0700,
1,3,41,word/wordth0413.png,14,14,0,x,0.5444522999969195,None,0,14,14,14,705.5627359000009,,,,,,,705.5627359000009,705.5627359000009,706.5677109000007,706.5705628000014,706.5705628000014,706.5705628000014,706.5705628000014,707.1195539000018,x,0.5444522999969195,None,,,,,,,,,,OAT_th,001,2025-03-12_16h13.11.514,MainFlow,2024.2.4,141.6161804997742,2025-03-12 16h13.22.100187 +0700,
1,2,64,word/wordth0642.png,15,15,0,x,0.491560100002971,None,0,15,15,15,707.1249149999985,,,,,,,707.1249149999985,707.1249149999985,708.136984499999,708.140459799999,708.140459799999,708.140459799999,708.140459799999,708.6333849999992,x,0.491560100002971,None,,,,,,,,,,OAT_th,001,2025-03-12_16h13.11.514,MainFlow,2024.2.4,141.6161804997742,2025-03-12 16h13.22.100187 +0700,
1,3,6,word/wordth0063.png,16,16,0,x,0.5682974999981525,None,0,16,16,16,708.6385852000003,,,,,,,708.6385852000003,708.6385852000003,709.6470050000007,709.6504622999983,709.6504622999983,709.6504622999983,709.6504622999983,710.2246876000008,x,0.5682974999981525,None,,,,,,,,,,OAT_th,001,2025-03-12_16h13.11.514,MainFlow,2024.2.4,141.6161804997742,2025-03-12 16h13.22.100187 +0700,
1,2,31,word/wordth0312.png,17,17,0,x,0.5530298000012408,None,0,17,17,17,710.2307701000009,,,,,,,710.2307701000009,710.2307701000009,711.243360800001,711.2466949999998,711.2466949999998,711.2466949999998,711.2466949999998,711.8066162000014,x,0.5530298000012408,None,,,,,,,,,,OAT_th,001,2025-03-12_16h13.11.514,MainFlow,2024.2.4,141.6161804997742,2025-03-12 16h13.22.100187 +0700,
1,1,46,word/wordth0461.png,18,18,0,z,0.6028738999993948,None,0,18,18,18,711.8116404000011,,,,,,,711.8116404000011,711.8116404000011,712.8326926999998,712.8362207000009,712.8362207000009,712.8362207000009,712.8362207000009,713.4447280000004,z,0.6028738999993948,None,,,,,,,,,,OAT_th,001,2025-03-12_16h13.11.514,MainFlow,2024.2.4,141.6161804997742,2025-03-12 16h13.22.100187 +0700,
1,3,51,word/wordth0513.png,19,19,0,x,0.5175122000000556,None,0,19,19,19,713.450090100001,,,,,,,713.450090100001,713.450090100001,714.4641377999997,714.4674692999997,714.4674692999997,714.4674692999997,714.4674692999997,714.9866157000015,x,0.5175122000000556,None,,,,,,,,,,OAT_th,001,2025-03-12_16h13.11.514,MainFlow,2024.2.4,141.6161804997742,2025-03-12 16h13.22.100187 +0700,
1,2,26,word/wordth0262.png,20,20,0,x,0.5605451999981597,None,0,20,20,20,714.9914932000011,,,,,,,714.9914932000011,714.9914932000011,716.009155400001,716.0121963000001,716.0121963000001,716.0121963000001,716.0121963000001,716.5769364999996,x,0.5605451999981597,None,,,,,,,,,,OAT_th,001,2025-03-12_16h13.11.514,MainFlow,2024.2.4,141.6161804997742,2025-03-12 16h13.22.100187 +0700,
1,2,96,word/wordth0962.png,21,21,0,x,0.466280699998606,None,0,21,21,21,716.5818851999993,,,,,,,716.5818851999993,716.5818851999993,717.5921557999991,717.5956586999982,717.5956586999982,717.5956586999982,717.5956586999982,718.0701200999993,x,0.466280699998606,None,,,,,,,,,,OAT_th,001,2025-03-12_16h13.11.514,MainFlow,2024.2.4,141.6161804997742,2025-03-12 16h13.22.100187 +0700,
1,1,31,word/wordth0311.png,22,22,0,z,0.5557263000009698,None,0,22,22,22,718.0748637999986,,,,,,,718.0748637999986,718.0748637999986,719.0881334999995,719.0918361999993,719.0918361999993,719.0918361999993,719.0918361999993,719.6526294000014,z,0.5557263000009698,None,,,,,,,,,,OAT_th,001,2025-03-12_16h13.11.514,MainFlow,2024.2.4,141.6161804997742,2025-03-12 16h13.22.100187 +0700,
1,2,94,word/wordth0942.png,23,23,0,x,0.5368195000010019,None,0,23,23,23,719.6573025999987,,,,,,,719.6573025999987,719.6573025999987,720.6716370000013,720.6755260000009,720.6755260000009,720.6755260000009,720.6755260000009,721.2144639000016,x,0.5368195000010019,None,,,,,,,,,,OAT_th,001,2025-03-12_16h13.11.514,MainFlow,2024.2.4,141.6161804997742,2025-03-12 16h13.22.100187 +0700,
1,3,48,word/wordth0483.png,24,24,0,x,0.4928466999990633,None,0,24,24,24,721.2194817,,,,,,,721.2194817,721.2194817,722.235157000001,722.2383960999996,722.2383960999996,722.2383960999996,722.2383960999996,722.7366882000006,x,0.4928466999990633,None,,,,,,,,,,OAT_th,001,2025-03-12_16h13.11.514,MainFlow,2024.2.4,141.6161804997742,2025-03-12 16h13.22.100187 +0700,
1,3,24,word/wordth0243.png,25,25,0,x,0.5004189999999653,None,0,25,25,25,722.742455900001,,,,,,,722.742455900001,722.742455900001,723.7684434999992,723.7717121000005,723.7717121000005,723.7717121000005,723.7717121000005,724.2770352999996,x,0.5004189999999653,None,723.7717121000005,723.7717121000005,,,,,,,,OAT_th,001,2025-03-12_16h13.11.514,MainFlow,2024.2.4,141.6161804997742,2025-03-12 16h13.22.100187 +0700,
1,1,87,word/wordth0871.png,26,26,0,x,0.513420600000245,None,0,26,26,26,724.2816454000003,,,,,,,724.2816454000003,724.2816454000003,725.2992379000007,725.3025531000003,725.3025531000003,725.3025531000003,725.3025531000003,725.817434999999,x,0.513420600000245,None,,,,,,,,,,OAT_th,001,2025-03-12_16h13.11.514,MainFlow,2024.2.4,141.6161804997742,2025-03-12 16h13.22.100187 +0700,
1,2,51,word/wordth0512.png,27,27,0,x,0.4904884999996284,None,0,27,27,27,725.8226865999986,,,,,,,725.8226865999986,725.8226865999986,726.8367202999998,726.8396396000007,726.8396396000007,726.8396396000007,726.8396396000007,727.3313939000018,x,0.4904884999996284,None,,,,,,,,,,OAT_th,001,2025-03-12_16h13.11.514,MainFlow,2024.2.4,141.6161804997742,2025-03-12 16h13.22.100187 +0700,
1,3,27,word/wordth0273.png,28,28,0,x,0.669298600001639,None,0,28,28,28,727.3362829000016,,,,,,,727.3362829000016,727.3362829000016,728.3576467000003,728.3611428999993,728.3611428999993,728.3611428999993,728.3611428999993,729.0330219000007,x,0.669298600001639,None,,,,,,,,,,OAT_th,001,2025-03-12_16h13.11.514,MainFlow,2024.2.4,141.6161804997742,2025-03-12 16h13.22.100187 +0700,
1,2,22,word/wordth0222.png,29,29,0,x,0.5911752000029082,None,0,29,29,29,729.0376411999987,,,,,,,729.0376411999987,729.0376411999987,730.0576008000007,730.0609080999984,730.0609080999984,730.0609080999984,730.0609080999984,730.6570787,x,0.5911752000029082,None,,,,,,,,,,OAT_th,001,2025-03-12_16h13.11.514,MainFlow,2024.2.4,141.6161804997742,2025-03-12 16h13.22.100187 +0700,
1,3,23,word/wordth0233.png,30,30,0,x,0.5955126000008022,None,0,30,30,30,730.6620695000001,,,,,,,730.6620695000001,730.6620695000001,731.6758118000016,731.6791224999997,731.6791224999997,731.6791224999997,731.6791224999997,732.2809154000006,x,0.5955126000008022,None,,,,,,,,,,OAT_th,001,2025-03-12_16h13.11.514,MainFlow,2024.2.4,141.6161804997742,2025-03-12 16h13.22.100187 +0700,
1,1,48,word/wordth0481.png,31,31,0,z,0.6001866000005975,None,0,31,31,31,732.2867174000003,,,,,,,732.2867174000003,732.2867174000003,733.3006751000012,733.3042054000016,733.3042054000016,733.3042054000016,733.3042054000016,733.9069618999984,z,0.6001866000005975,None,,,,,,,,,,OAT_th,001,2025-03-12_16h13.11.514,MainFlow,2024.2.4,141.6161804997742,2025-03-12 16h13.22.100187 +0700,
1,2,10,word/wordth0102.png,32,32,0,x,0.5216685999985202,None,0,32,32,32,733.911436299999,,,,,,,733.911436299999,733.911436299999,734.9264797000014,734.9295898,734.9295898,734.9295898,734.9295898,735.4544785999988,x,0.5216685999985202,None,,,,,,,,,,OAT_th,001,2025-03-12_16h13.11.514,MainFlow,2024.2.4,141.6161804997742,2025-03-12 16h13.22.100187 +0700,
1,3,64,word/wordth0643.png,33,33,0,x,0.6540552000005846,None,0,33,33,33,735.4596836000001,,,,,,,735.4596836000001,735.4596836000001,736.4577183999991,736.4607037000005,736.4607037000005,736.4607037000005,736.4607037000005,737.1210140999992,x,0.6540552000005846,None,,,,,,,,,,OAT_th,001,2025-03-12_16h13.11.514,MainFlow,2024.2.4,141.6161804997742,2025-03-12 16h13.22.100187 +0700,
1,3,22,word/wordth0223.png,34,34,0,x,0.72273259999929,None,0,34,34,34,737.126196700001,,,,,,,737.126196700001,737.126196700001,738.1441495999989,738.1473609000004,738.1473609000004,738.1473609000004,738.1473609000004,738.8773443000009,x,0.72273259999929,None,,,,,,,,,,OAT_th,001,2025-03-12_16h13.11.514,MainFlow,2024.2.4,141.6161804997742,2025-03-12 16h13.22.100187 +0700,
1,1,42,word/wordth0421.png,35,35,0,z,0.4520574000016495,None,0,35,35,35,738.8826453999991,,,,,,,738.8826453999991,738.8826453999991,739.9026517000002,739.9060077000013,739.9060077000013,739.9060077000013,739.9060077000013,740.3634922000001,z,0.4520574000016495,None,,,,,,,,,,OAT_th,001,2025-03-12_16h13.11.514,MainFlow,2024.2.4,141.6161804997742,2025-03-12 16h13.22.100187 +0700,
1,2,1,word/wordth0012.png,36,36,0,x,0.5634823000000324,None,0,36,36,36,740.3685816999987,,,,,,,740.3685816999987,740.3685816999987,741.384113099999,741.3874111999994,741.3874111999994,741.3874111999994,741.3874111999994,741.9534661000016,x,0.5634823000000324,None,,,,,,,,,,OAT_th,001,2025-03-12_16h13.11.514,MainFlow,2024.2.4,141.6161804997742,2025-03-12 16h13.22.100187 +0700,
1,1,82,word/wordth0821.png,37,37,0,x,0.565733999999793,None,0,37,37,37,741.9584760000016,,,,,,,741.9584760000016,741.9584760000016,742.975182799999,742.9788180999985,742.9788180999985,742.9788180999985,742.9788180999985,743.5501854000013,x,0.565733999999793,None,,,,,,,,,,OAT_th,001,2025-03-12_16h13.11.514,MainFlow,2024.2.4,141.6161804997742,2025-03-12 16h13.22.100187 +0700,
1,2,3,word/wordth0032.png,38,38,0,x,0.6284591999974509,None,0,38,38,38,743.555364400001,,,,,,,743.555364400001,743.555364400001,744.5536532999995,744.5566983000008,744.5566983000008,744.5566983000008,744.5566983000008,745.188770499999,x,0.6284591999974509,None,,,,,,,,,,OAT_th,001,2025-03-12_16h13.11.514,MainFlow,2024.2.4,141.6161804997742,2025-03-12 16h13.22.100187 +0700,
1,1,68,word/wordth0681.png,39,39,0,z,0.5311063000008289,None,0,39,39,39,745.1940483000017,,,,,,,745.1940483000017,745.1940483000017,746.2073717000003,746.2108865999999,746.2108865999999,746.2108865999999,746.2108865999999,746.7440884000007,z,0.5311063000008289,None,,,,,,,,,,OAT_th,001,2025-03-12_16h13.11.514,MainFlow,2024.2.4,141.6161804997742,2025-03-12 16h13.22.100187 +0700,
1,1,66,word/wordth0661.png,40,40,0,z,0.5702241000035428,None,0,40,40,40,746.7491944000012,,,,,,,746.7491944000012,746.7491944000012,747.7651434000018,747.7684843000006,747.7684843000006,747.7684843000006,747.7684843000006,748.3409484999993,z,0.5702241000035428,None,,,,,,,,,,OAT_th,001,2025-03-12_16h13.11.514,MainFlow,2024.2.4,141.6161804997742,2025-03-12 16h13.22.100187 +0700,
1,2,42,word/wordth0422.png,41,41,0,x,0.6105468999994628,None,0,41,41,41,748.3465661999999,,,,,,,748.3465661999999,748.3465661999999,749.3613090999988,749.3648290000001,749.3648290000001,749.3648290000001,749.3648290000001,749.9797071999983,x,0.6105468999994628,None,,,,,,,,,,OAT_th,001,2025-03-12_16h13.11.514,MainFlow,2024.2.4,141.6161804997742,2025-03-12 16h13.22.100187 +0700,
1,3,93,word/wordth0933.png,42,42,0,x,0.6275085000015679,None,0,42,42,42,749.9846696000004,,,,,,,749.9846696000004,749.9846696000004,751.0061174999992,751.0094362,751.0094362,751.0094362,751.0094362,751.638974200001,x,0.6275085000015679,None,,,,,,,,,,OAT_th,001,2025-03-12_16h13.11.514,MainFlow,2024.2.4,141.6161804997742,2025-03-12 16h13.22.100187 +0700,
1,1,71,word/wordth0711.png,43,43,0,z,0.5023086000001058,None,0,43,43,43,751.6441372999998,,,,,,,751.6441372999998,751.6441372999998,752.6639328000001,752.6674246999992,752.6674246999992,752.6674246999992,752.6674246999992,753.1728119000018,z,0.5023086000001058,None,,,,,,,,,,OAT_th,001,2025-03-12_16h13.11.514,MainFlow,2024.2.4,141.6161804997742,2025-03-12 16h13.22.100187 +0700,
1,1,64,word/wordth0641.png,44,44,0,x,0.6496508999989601,None,0,44,44,44,753.178580400001,,,,,,,753.178580400001,753.178580400001,754.1907819999997,754.194068499999,754.194068499999,754.194068499999,754.194068499999,754.8476189999983,x,0.6496508999989601,None,,,,,,,,,,OAT_th,001,2025-03-12_16h13.11.514,MainFlow,2024.2.4,141.6161804997742,2025-03-12 16h13.22.100187 +0700,
1,1,88,word/wordth0881.png,45,45,0,z,0.6883410999980697,None,0,45,45,45,754.8519070999992,,,,,,,754.8519070999992,754.8519070999992,755.8729790999987,755.8763692000011,755.8763692000011,755.8763692000011,755.8763692000011,756.5687832999993,z,0.6883410999980697,None,,,,,,,,,,OAT_th,001,2025-03-12_16h13.11.514,MainFlow,2024.2.4,141.6161804997742,2025-03-12 16h13.22.100187 +0700,
1,3,87,word/wordth0873.png,46,46,0,x,0.4891672000012477,None,0,46,46,46,756.5737792999989,,,,,,,756.5737792999989,756.5737792999989,757.5932034999987,757.5964853999994,757.5964853999994,757.5964853999994,757.5964853999994,758.0889901999999,x,0.4891672000012477,None,,,,,,,,,,OAT_th,001,2025-03-12_16h13.11.514,MainFlow,2024.2.4,141.6161804997742,2025-03-12 16h13.22.100187 +0700,
1,3,3,word/wordth0033.png,47,47,0,x,0.665764900000795,None,0,47,47,47,758.0942040999998,,,,,,,758.0942040999998,758.0942040999998,759.1099389999999,759.1133667000013,759.1133667000013,759.1133667000013,759.1133667000013,759.783229300001,x,0.665764900000795,None,,,,,,,,,,OAT_th,001,2025-03-12_16h13.11.514,MainFlow,2024.2.4,141.6161804997742,2025-03-12 16h13.22.100187 +0700,
1,2,95,word/wordth0952.png,48,48,0,x,0.6058363000011013,None,0,48,48,48,759.7883812000018,,,,,,,759.7883812000018,759.7883812000018,760.7908630000002,760.7939561000003,760.7939561000003,760.7939561000003,760.7939561000003,761.4070058000016,x,0.6058363000011013,None,,,,,,,,,,OAT_th,001,2025-03-12_16h13.11.514,MainFlow,2024.2.4,141.6161804997742,2025-03-12 16h13.22.100187 +0700,
1,1,11,word/wordth0111.png,49,49,0,z,0.46662819999983185,None,0,49,49,49,761.4129365999997,,,,,,,761.4129365999997,761.4129365999997,762.4299986999995,762.4332731000013,762.4332731000013,762.4332731000013,762.4332731000013,762.9026756000003,z,0.46662819999983185,None,,,,,,,,,,OAT_th,001,2025-03-12_16h13.11.514,MainFlow,2024.2.4,141.6161804997742,2025-03-12 16h13.22.100187 +0700,
1,1,10,word/wordth0101.png,50,50,0,z,0.7283095000020694,None,0,50,50,50,762.9083822999983,,,,,,,762.9083822999983,762.9083822999983,763.9175097999996,763.9207890000016,763.9207890000016,763.9207890000016,763.9207890000016,764.6507294999992,z,0.7283095000020694,None,763.9207890000016,763.9207890000016,,,,,,,,OAT_th,001,2025-03-12_16h13.11.514,MainFlow,2024.2.4,141.6161804997742,2025-03-12 16h13.22.100187 +0700,
1,1,44,word/wordth0441.png,51,51,0,z,0.532363099999202,None,0,51,51,51,764.6555476999984,,,,,,,764.6555476999984,764.6555476999984,765.6537356999997,765.6568064000003,765.6568064000003,765.6568064000003,765.6568064000003,766.1917583999984,z,0.532363099999202,None,,,,,,,,,,OAT_th,001,2025-03-12_16h13.11.514,MainFlow,2024.2.4,141.6161804997742,2025-03-12 16h13.22.100187 +0700,
1,1,96,word/wordth0961.png,52,52,0,x,0.5714256999999634,None,0,52,52,52,766.1968066999998,,,,,,,766.1968066999998,766.1968066999998,767.2024557999994,767.2053885000005,767.2053885000005,767.2053885000005,767.2053885000005,767.7822617000002,x,0.5714256999999634,None,,,,,,,,,,OAT_th,001,2025-03-12_16h13.11.514,MainFlow,2024.2.4,141.6161804997742,2025-03-12 16h13.22.100187 +0700,
1,2,27,word/wordth0272.png,53,53,0,x,0.6754409000022861,None,0,53,53,53,767.7868435,,,,,,,767.7868435,767.7868435,768.8002709000011,768.8037535999993,768.8037535999993,768.8037535999993,768.8037535999993,769.4825379999984,x,0.6754409000022861,None,,,,,,,,,,OAT_th,001,2025-03-12_16h13.11.514,MainFlow,2024.2.4,141.6161804997742,2025-03-12 16h13.22.100187 +0700,
1,1,63,word/wordth0631.png,54,54,0,z,0.7795618999989529,None,0,54,54,54,769.4878417999989,,,,,,,769.4878417999989,769.4878417999989,770.5075205000012,770.5108436999999,770.5108436999999,770.5108436999999,770.5108436999999,771.2961262000008,z,0.7795618999989529,None,,,,,,,,,,OAT_th,001,2025-03-12_16h13.11.514,MainFlow,2024.2.4,141.6161804997742,2025-03-12 16h13.22.100187 +0700,
1,3,66,word/wordth0663.png,55,55,0,x,0.7741912999990745,None,0,55,55,55,771.3015729999988,,,,,,,771.3015729999988,771.3015729999988,772.3140592,772.3174326999997,772.3174326999997,772.3174326999997,772.3174326999997,773.0941450000009,x,0.7741912999990745,None,,,,,,,,,,OAT_th,001,2025-03-12_16h13.11.514,MainFlow,2024.2.4,141.6161804997742,2025-03-12 16h13.22.100187 +0700,
1,3,88,word/wordth0883.png,56,56,0,x,0.7264359000000695,None,0,56,56,56,773.0985133000013,,,,,,,773.0985133000013,773.0985133000013,774.0962143000015,774.0994117999999,774.0994117999999,774.0994117999999,774.0994117999999,774.8287464000005,x,0.7264359000000695,None,,,,,,,,,,OAT_th,001,2025-03-12_16h13.11.514,MainFlow,2024.2.4,141.6161804997742,2025-03-12 16h13.22.100187 +0700,
1,3,96,word/wordth0963.png,57,57,0,x,0.5674987000020337,None,0,57,57,57,774.8340203999996,,,,,,,774.8340203999996,774.8340203999996,775.8536350000013,775.8571108000015,775.8571108000015,775.8571108000015,775.8571108000015,776.4257711000009,x,0.5674987000020337,None,,,,,,,,,,OAT_th,001,2025-03-12_16h13.11.514,MainFlow,2024.2.4,141.6161804997742,2025-03-12 16h13.22.100187 +0700,
1,2,52,word/wordth0522.png,58,58,0,x,0.8729051999980584,None,0,58,58,58,776.4310072999997,,,,,,,776.4310072999997,776.4310072999997,777.4414860000015,777.4449222999992,777.4449222999992,777.4449222999992,777.4449222999992,778.322487899999,x,0.8729051999980584,None,,,,,,,,,,OAT_th,001,2025-03-12_16h13.11.514,MainFlow,2024.2.4,141.6161804997742,2025-03-12 16h13.22.100187 +0700,
1,3,50,word/wordth0503.png,59,59,0,x,0.47517969999898924,None,0,59,59,59,778.3282455999997,,,,,,,778.3282455999997,778.3282455999997,779.3408891000017,779.3444112999987,779.3444112999987,779.3444112999987,779.3444112999987,779.8216119000008,x,0.47517969999898924,None,,,,,,,,,,OAT_th,001,2025-03-12_16h13.11.514,MainFlow,2024.2.4,141.6161804997742,2025-03-12 16h13.22.100187 +0700,
1,3,61,word/wordth0613.png,60,60,0,x,0.49283079999804613,None,0,60,60,60,779.8261752000017,,,,,,,779.8261752000017,779.8261752000017,780.8400339999989,780.8437317000007,780.8437317000007,780.8437317000007,780.8437317000007,781.3421094999994,x,0.49283079999804613,None,,,,,,,,,,OAT_th,001,2025-03-12_16h13.11.514,MainFlow,2024.2.4,141.6161804997742,2025-03-12 16h13.22.100187 +0700,
1,2,46,word/wordth0462.png,61,61,0,x,0.9185322999983327,None,0,61,61,61,781.3467169000014,,,,,,,781.3467169000014,781.3467169000014,782.3450429999994,782.3478778000008,782.3478778000008,782.3478778000008,782.3478778000008,783.2720198000006,x,0.9185322999983327,None,,,,,,,,,,OAT_th,001,2025-03-12_16h13.11.514,MainFlow,2024.2.4,141.6161804997742,2025-03-12 16h13.22.100187 +0700,
1,1,61,word/wordth0611.png,62,62,0,z,0.5566131999985373,None,0,62,62,62,783.2768641999992,,,,,,,783.2768641999992,783.2768641999992,784.2948438000003,784.2984139000018,784.2984139000018,784.2984139000018,784.2984139000018,784.8615706,z,0.5566131999985373,None,,,,,,,,,,OAT_th,001,2025-03-12_16h13.11.514,MainFlow,2024.2.4,141.6161804997742,2025-03-12 16h13.22.100187 +0700,
1,1,24,word/wordth0241.png,63,63,0,z,0.6726645000017015,None,0,63,63,63,784.8668779000018,,,,,,,784.8668779000018,784.8668779000018,785.8845708999997,785.8878234999993,785.8878234999993,785.8878234999993,785.8878234999993,786.5631402999988,z,0.6726645000017015,None,,,,,,,,,,OAT_th,001,2025-03-12_16h13.11.514,MainFlow,2024.2.4,141.6161804997742,2025-03-12 16h13.22.100187 +0700,
1,2,89,word/wordth0892.png,64,64,0,x,0.7300931999998284,None,0,64,64,64,786.5679174000015,,,,,,,786.5679174000015,786.5679174000015,787.5656437999987,787.5687507999992,787.5687507999992,787.5687507999992,787.5687507999992,788.3055315000001,x,0.7300931999998284,None,,,,,,,,,,OAT_th,001,2025-03-12_16h13.11.514,MainFlow,2024.2.4,141.6161804997742,2025-03-12 16h13.22.100187 +0700,
1,1,30,word/wordth0301.png,65,65,0,z,0.6537808000030054,None,0,65,65,65,788.3106410000019,,,,,,,788.3106410000019,788.3106410000019,789.3309327000006,789.3345549999995,789.3345549999995,789.3345549999995,789.3345549999995,789.9925085999985,z,0.6537808000030054,None,,,,,,,,,,OAT_th,001,2025-03-12_16h13.11.514,MainFlow,2024.2.4,141.6161804997742,2025-03-12 16h13.22.100187 +0700,
1,1,93,word/wordth0931.png,66,66,0,z,0.6296900999986974,None,0,66,66,66,789.9977708999995,,,,,,,789.9977708999995,789.9977708999995,791.0199354000015,791.0231694000013,791.0231694000013,791.0231694000013,791.0231694000013,791.6589273000009,z,0.6296900999986974,None,,,,,,,,,,OAT_th,001,2025-03-12_16h13.11.514,MainFlow,2024.2.4,141.6161804997742,2025-03-12 16h13.22.100187 +0700,
1,1,50,word/wordth0501.png,67,67,0,z,0.5799829999996291,None,0,67,67,67,791.664120200001,,,,,,,791.664120200001,791.664120200001,792.6862453000012,792.6896379000009,792.6896379000009,792.6896379000009,792.6896379000009,793.2782587999991,z,0.5799829999996291,None,,,,,,,,,,OAT_th,001,2025-03-12_16h13.11.514,MainFlow,2024.2.4,141.6161804997742,2025-03-12 16h13.22.100187 +0700,
1,3,82,word/wordth0823.png,68,68,0,x,0.8786024000000907,None,0,68,68,68,793.283553700001,,,,,,,793.283553700001,793.283553700001,794.2952463999991,794.2988919,794.2988919,794.2988919,794.2988919,795.1793057000014,x,0.8786024000000907,None,,,,,,,,,,OAT_th,001,2025-03-12_16h13.11.514,MainFlow,2024.2.4,141.6161804997742,2025-03-12 16h13.22.100187 +0700,
1,1,27,word/wordth0271.png,69,69,0,z,0.47355919999972684,None,0,69,69,69,795.1842400000005,,,,,,,795.1842400000005,795.1842400000005,796.1975752999988,796.2009555999994,796.2009555999994,796.2009555999994,796.2009555999994,796.6799933999991,z,0.47355919999972684,None,,,,,,,,,,OAT_th,001,2025-03-12_16h13.11.514,MainFlow,2024.2.4,141.6161804997742,2025-03-12 16h13.22.100187 +0700,
1,3,52,word/wordth0523.png,70,70,0,x,0.6101306000018667,None,0,70,70,70,796.6860872999987,,,,,,,796.6860872999987,796.6860872999987,797.6994280000017,797.7029586000008,797.7029586000008,797.7029586000008,797.7029586000008,798.3174444000015,x,0.6101306000018667,None,,,,,,,,,,OAT_th,001,2025-03-12_16h13.11.514,MainFlow,2024.2.4,141.6161804997742,2025-03-12 16h13.22.100187 +0700,
1,1,22,word/wordth0221.png,71,71,0,z,0.6493704000022262,None,0,71,71,71,798.3225215000002,,,,,,,798.3225215000002,798.3225215000002,799.3448874000005,799.3481784000014,799.3481784000014,799.3481784000014,799.3481784000014,800.0046093000001,z,0.6493704000022262,None,,,,,,,,,,OAT_th,001,2025-03-12_16h13.11.514,MainFlow,2024.2.4,141.6161804997742,2025-03-12 16h13.22.100187 +0700,
1,1,6,word/wordth0061.png,72,72,0,z,0.5242485000017041,None,0,72,72,72,800.0097317999989,,,,,,,800.0097317999989,800.0097317999989,801.0227274000008,801.0262354999995,801.0262354999995,801.0262354999995,801.0262354999995,801.5541614000012,z,0.5242485000017041,None,,,,,,,,,,OAT_th,001,2025-03-12_16h13.11.514,MainFlow,2024.2.4,141.6161804997742,2025-03-12 16h13.22.100187 +0700,
1,2,30,word/wordth0302.png,73,73,0,x,0.6178722999975435,None,0,73,73,73,801.5586411999993,,,,,,,801.5586411999993,801.5586411999993,802.573695000001,802.5771269999987,802.5771269999987,802.5771269999987,802.5771269999987,803.1984338999991,x,0.6178722999975435,None,,,,,,,,,,OAT_th,001,2025-03-12_16h13.11.514,MainFlow,2024.2.4,141.6161804997742,2025-03-12 16h13.22.100187 +0700,
1,1,51,word/wordth0511.png,74,74,0,z,0.6672246000016457,None,0,74,74,74,803.2035846999988,,,,,,,803.2035846999988,803.2035846999988,804.2248640999987,804.2282427000009,804.2282427000009,804.2282427000009,804.2282427000009,804.8999716999988,z,0.6672246000016457,None,,,,,,,,,,OAT_th,001,2025-03-12_16h13.11.514,MainFlow,2024.2.4,141.6161804997742,2025-03-12 16h13.22.100187 +0700,
1,2,50,word/wordth0502.png,75,75,0,x,0.5581103999975312,None,0,75,75,75,804.9048610000009,,,,,,,804.9048610000009,804.9048610000009,805.9237344999983,805.927161900001,805.927161900001,805.927161900001,805.927161900001,806.4903743000013,x,0.5581103999975312,None,,,,,,,,,,OAT_th,001,2025-03-12_16h13.11.514,MainFlow,2024.2.4,141.6161804997742,2025-03-12 16h13.22.100187 +0700,
1,3,95,word/wordth0953.png,76,76,0,x,0.4968226000019058,None,0,76,76,76,806.4963282000008,,,,,,,806.4963282000008,806.4963282000008,807.4993973,807.5023974000014,807.5023974000014,807.5023974000014,807.5023974000014,808.0042099000002,x,0.4968226000019058,None,,,,,,,,,,OAT_th,001,2025-03-12_16h13.11.514,MainFlow,2024.2.4,141.6161804997742,2025-03-12 16h13.22.100187 +0700,
1,1,75,word/wordth0751.png,77,77,0,x,0.547409200000402,None,0,77,77,77,808.0098974999983,,,,,,,808.0098974999983,808.0098974999983,809.0279420999996,809.0315610999987,809.0315610999987,809.0315610999987,809.0315610999987,809.5859875000006,x,0.547409200000402,None,,,,,,,,,,OAT_th,001,2025-03-12_16h13.11.514,MainFlow,2024.2.4,141.6161804997742,2025-03-12 16h13.22.100187 +0700,
1,1,95,word/wordth0951.png,78,78,0,z,0.6902845000004163,None,0,78,78,78,809.5911962000009,,,,,,,809.5911962000009,809.5911962000009,810.6141838999993,810.6174603000018,810.6174603000018,810.6174603000018,810.6174603000018,811.3161449999989,z,0.6902845000004163,None,,,,,,,,,,OAT_th,001,2025-03-12_16h13.11.514,MainFlow,2024.2.4,141.6161804997742,2025-03-12 16h13.22.100187 +0700,
1,2,8,word/wordth0082.png,79,79,0,x,0.5762063999973179,None,0,79,79,79,811.3207292999996,,,,,,,811.3207292999996,811.3207292999996,812.3334059999997,812.3367678000013,812.3367678000013,812.3367678000013,812.3367678000013,812.9186404000011,x,0.5762063999973179,None,,,,,,,,,,OAT_th,001,2025-03-12_16h13.11.514,MainFlow,2024.2.4,141.6161804997742,2025-03-12 16h13.22.100187 +0700,
1,3,75,word/wordth0753.png,80,80,0,z,0.5240230000017618,None,0,80,80,80,812.9239829000016,,,,,,,812.9239829000016,812.9239829000016,813.9393349000002,813.9428266999985,813.9428266999985,813.9428266999985,813.9428266999985,814.474082499999,z,0.5240230000017618,None,,,,,,,,,,OAT_th,001,2025-03-12_16h13.11.514,MainFlow,2024.2.4,141.6161804997742,2025-03-12 16h13.22.100187 +0700,
1,1,28,word/wordth0281.png,81,81,0,z,0.5998353000031784,None,0,81,81,81,814.4791315999992,,,,,,,814.4791315999992,814.4791315999992,815.4984711999987,815.5017258999997,815.5017258999997,815.5017258999997,815.5017258999997,816.1067105999991,z,0.5998353000031784,None,,,,,,,,,,OAT_th,001,2025-03-12_16h13.11.514,MainFlow,2024.2.4,141.6161804997742,2025-03-12 16h13.22.100187 +0700,
1,3,42,word/wordth0423.png,82,82,0,x,0.6913238000015554,None,0,82,82,82,816.1124805000018,,,,,,,816.1124805000018,816.1124805000018,817.1253568000011,817.1295009000005,817.1295009000005,817.1295009000005,817.1295009000005,817.8271990999983,x,0.6913238000015554,None,,,,,,,,,,OAT_th,001,2025-03-12_16h13.11.514,MainFlow,2024.2.4,141.6161804997742,2025-03-12 16h13.22.100187 +0700,
1,3,46,word/wordth0463.png,83,83,0,x,0.7210252000004402,None,0,83,83,83,817.8326318999989,,,,,,,817.8326318999989,817.8326318999989,818.8479285999983,818.8512495999985,818.8512495999985,818.8512495999985,818.8512495999985,819.5772302999994,x,0.7210252000004402,None,,,,,,,,,,OAT_th,001,2025-03-12_16h13.11.514,MainFlow,2024.2.4,141.6161804997742,2025-03-12 16h13.22.100187 +0700,
1,3,1,word/wordth0013.png,84,84,0,x,0.517382500001986,None,0,84,84,84,819.5823338999999,,,,,,,819.5823338999999,819.5823338999999,820.5897185999984,820.5928781999992,820.5928781999992,820.5928781999992,820.5928781999992,821.1124256999992,x,0.517382500001986,None,,,,,,,,,,OAT_th,001,2025-03-12_16h13.11.514,MainFlow,2024.2.4,141.6161804997742,2025-03-12 16h13.22.100187 +0700,
1,2,70,word/wordth0702.png,85,85,0,x,0.5687947000005806,None,0,85,85,85,821.1169245000001,,,,,,,821.1169245000001,821.1169245000001,822.1297018999994,822.1330228999996,822.1330228999996,822.1330228999996,822.1330228999996,822.7084064999999,x,0.5687947000005806,None,,,,,,,,,,OAT_th,001,2025-03-12_16h13.11.514,MainFlow,2024.2.4,141.6161804997742,2025-03-12 16h13.22.100187 +0700,
1,1,7,word/wordth0071.png,86,86,0,z,0.5635118000027433,None,0,86,86,86,822.7136544000005,,,,,,,822.7136544000005,822.7136544000005,823.7321619999984,823.7355170999999,823.7355170999999,823.7355170999999,823.7355170999999,824.3060213000008,z,0.5635118000027433,None,,,,,,,,,,OAT_th,001,2025-03-12_16h13.11.514,MainFlow,2024.2.4,141.6161804997742,2025-03-12 16h13.22.100187 +0700,
1,2,7,word/wordth0072.png,87,87,0,z,0.4399873000002117,None,0,87,87,87,824.3106097,,,,,,,824.3106097,824.3106097,825.3210535000017,825.3247376000018,825.3247376000018,825.3247376000018,825.3247376000018,825.7700778999988,z,0.4399873000002117,None,,,,,,,,,,OAT_th,001,2025-03-12_16h13.11.514,MainFlow,2024.2.4,141.6161804997742,2025-03-12 16h13.22.100187 +0700,
1,2,24,word/wordth0242.png,88,88,0,x,0.581536400000914,None,0,88,88,88,825.7755340999993,,,,,,,825.7755340999993,825.7755340999993,826.7896406000018,826.7929034999997,826.7929034999997,826.7929034999997,826.7929034999997,827.3812037000007,x,0.581536400000914,None,,,,,,,,,,OAT_th,001,2025-03-12_16h13.11.514,MainFlow,2024.2.4,141.6161804997742,2025-03-12 16h13.22.100187 +0700,
1,3,26,word/wordth0263.png,89,89,0,x,0.4526222999993479,None,0,89,89,89,827.386332,,,,,,,827.386332,827.386332,828.3901449999994,828.3930906000005,828.3930906000005,828.3930906000005,828.3930906000005,828.8481539000004,x,0.4526222999993479,None,,,,,,,,,,OAT_th,001,2025-03-12_16h13.11.514,MainFlow,2024.2.4,141.6161804997742,2025-03-12 16h13.22.100187 +0700,
1,2,23,word/wordth0232.png,90,90,0,x,0.43896740000127465,None,0,90,90,90,828.8544674999994,,,,,,,828.8544674999994,828.8544674999994,829.8721467999985,829.8757146000007,829.8757146000007,829.8757146000007,829.8757146000007,830.3189331999984,x,0.43896740000127465,None,829.8757146000007,829.8757146000007,,,,,,,,OAT_th,001,2025-03-12_16h13.11.514,MainFlow,2024.2.4,141.6161804997742,2025-03-12 16h13.22.100187 +0700,
1,2,75,word/wordth0752.png,91,91,0,x,0.7731654999988677,None,0,91,91,91,830.3234028999996,,,,,,,830.3234028999996,830.3234028999996,831.3382954999997,831.3416017,831.3416017,831.3416017,831.3416017,832.1165746999995,x,0.7731654999988677,None,,,,,,,,,,OAT_th,001,2025-03-12_16h13.11.514,MainFlow,2024.2.4,141.6161804997742,2025-03-12 16h13.22.100187 +0700,
1,2,6,word/wordth0062.png,92,92,0,x,0.7258564000003389,None,0,92,92,92,832.1215751,,,,,,,832.1215751,832.1215751,833.1355453999986,833.1394825000007,833.1394825000007,833.1394825000007,833.1394825000007,833.8728095999995,x,0.7258564000003389,None,,,,,,,,,,OAT_th,001,2025-03-12_16h13.11.514,MainFlow,2024.2.4,141.6161804997742,2025-03-12 16h13.22.100187 +0700,
1,2,93,word/wordth0932.png,93,93,0,x,0.466904799999611,None,0,93,93,93,833.8781397000002,,,,,,,833.8781397000002,833.8781397000002,834.8978772999999,834.901221099999,834.901221099999,834.901221099999,834.901221099999,835.3742483000005,x,0.466904799999611,None,,,,,,,,,,OAT_th,001,2025-03-12_16h13.11.514,MainFlow,2024.2.4,141.6161804997742,2025-03-12 16h13.22.100187 +0700,
1,2,48,word/wordth0482.png,94,94,0,x,0.445923600000242,None,0,94,94,94,835.3791220000003,,,,,,,835.3791220000003,835.3791220000003,836.3762690999993,836.3792440999987,836.3792440999987,836.3792440999987,836.3792440999987,836.8308138000011,x,0.445923600000242,None,,,,,,,,,,OAT_th,001,2025-03-12_16h13.11.514,MainFlow,2024.2.4,141.6161804997742,2025-03-12 16h13.22.100187 +0700,
1,1,70,word/wordth0701.png,95,95,0,z,0.6045307999993383,None,0,95,95,95,836.8360033000008,,,,,,,836.8360033000008,836.8360033000008,837.8539841000002,837.8572560999983,837.8572560999983,837.8572560999983,837.8572560999983,838.469149999999,z,0.6045307999993383,None,,,,,,,,,,OAT_th,001,2025-03-12_16h13.11.514,MainFlow,2024.2.4,141.6161804997742,2025-03-12 16h13.22.100187 +0700,
1,2,66,word/wordth0662.png,96,96,0,x,0.5456941999982519,None,0,96,96,96,838.4745295999983,,,,,,,838.4745295999983,838.4745295999983,839.4895153000016,839.4928754999983,839.4928754999983,839.4928754999983,839.4928754999983,840.0464248000008,x,0.5456941999982519,None,,,,,,,,,,OAT_th,001,2025-03-12_16h13.11.514,MainFlow,2024.2.4,141.6161804997742,2025-03-12 16h13.22.100187 +0700,
1,1,26,word/wordth0261.png,97,97,0,x,0.5151222999993479,None,0,97,97,97,840.0513875999986,,,,,,,840.0513875999986,840.0513875999986,841.0541762000012,841.0574422000009,841.0574422000009,841.0574422000009,841.0574422000009,841.5809376999987,x,0.5151222999993479,None,,,,,,,,,,OAT_th,001,2025-03-12_16h13.11.514,MainFlow,2024.2.4,141.6161804997742,2025-03-12 16h13.22.100187 +0700,
1,3,9,word/wordth0093.png,98,98,0,x,0.5535369999997783,None,0,98,98,98,841.5859196000001,,,,,,,841.5859196000001,841.5859196000001,842.5992176999989,842.6027354000016,842.6027354000016,842.6027354000016,842.6027354000016,843.1629383000018,x,0.5535369999997783,None,,,,,,,,,,OAT_th,001,2025-03-12_16h13.11.514,MainFlow,2024.2.4,141.6161804997742,2025-03-12 16h13.22.100187 +0700,
1,2,61,word/wordth0612.png,99,99,0,x,1.0383419999998296,None,0,99,99,99,843.1680609000014,,,,,,,843.1680609000014,843.1680609000014,844.1809776999999,844.1844347999995,844.1844347999995,844.1844347999995,844.1844347999995,845.2261201999991,x,1.0383419999998296,None,,,,,,,,,,OAT_th,001,2025-03-12_16h13.11.514,MainFlow,2024.2.4,141.6161804997742,2025-03-12 16h13.22.100187 +0700,
1,3,8,word/wordth0083.png,100,100,0,x,0.5534315000004426,None,0,100,100,100,845.2312737000011,,,,,,,845.2312737000011,845.2312737000011,846.2505741000004,846.2540663000018,846.2540663000018,846.2540663000018,846.2540663000018,846.8148128999983,x,0.5534315000004426,None,,,,,,,,,,OAT_th,001,2025-03-12_16h13.11.514,MainFlow,2024.2.4,141.6161804997742,2025-03-12 16h13.22.100187 +0700,
1,1,8,word/wordth0081.png,101,101,0,z,0.5112478999981249,None,0,101,101,101,846.8201136000007,,,,,,,846.8201136000007,846.8201136000007,847.8326839999991,847.8361883999987,847.8361883999987,847.8361883999987,847.8361883999987,848.3498507999993,z,0.5112478999981249,None,,,,,,,,,,OAT_th,001,2025-03-12_16h13.11.514,MainFlow,2024.2.4,141.6161804997742,2025-03-12 16h13.22.100187 +0700,
1,2,44,word/wordth0442.png,102,102,0,x,0.5427902999981598,None,0,102,102,102,848.3546264000015,,,,,,,848.3546264000015,848.3546264000015,849.3686317000011,849.372472699999,849.372472699999,849.372472699999,849.372472699999,849.9192071999987,x,0.5427902999981598,None,,,,,,,,,,OAT_th,001,2025-03-12_16h13.11.514,MainFlow,2024.2.4,141.6161804997742,2025-03-12 16h13.22.100187 +0700,
1,3,31,word/wordth0313.png,103,103,0,x,0.5761773000012909,None,0,103,103,103,849.9237344999983,,,,,,,849.9237344999983,849.9237344999983,850.9434754000013,850.9467090999988,850.9467090999988,850.9467090999988,850.9467090999988,851.5291636999991,x,0.5761773000012909,None,,,,,,,,,,OAT_th,001,2025-03-12_16h13.11.514,MainFlow,2024.2.4,141.6161804997742,2025-03-12 16h13.22.100187 +0700,
1,1,89,word/wordth0891.png,104,104,0,z,0.6144706000013684,None,0,104,104,104,851.5344825000011,,,,,,,851.5344825000011,851.5344825000011,852.5536945000003,852.5570638000008,852.5570638000008,852.5570638000008,852.5570638000008,853.1756675000015,z,0.6144706000013684,None,,,,,,,,,,OAT_th,001,2025-03-12_16h13.11.514,MainFlow,2024.2.4,141.6161804997742,2025-03-12 16h13.22.100187 +0700,
1,3,70,word/wordth0703.png,105,105,0,x,0.5671591999998782,None,0,105,105,105,853.1802263000009,,,,,,,853.1802263000009,853.1802263000009,854.2020460000003,854.2054133000001,854.2054133000001,854.2054133000001,854.2054133000001,854.7795874999993,x,0.5671591999998782,None,,,,,,,,,,OAT_th,001,2025-03-12_16h13.11.514,MainFlow,2024.2.4,141.6161804997742,2025-03-12 16h13.22.100187 +0700,
1,3,68,word/wordth0683.png,106,106,0,x,0.6091990000022633,None,0,106,106,106,854.7845343999998,,,,,,,854.7845343999998,854.7845343999998,855.7973557999994,855.8009376999998,855.8009376999998,855.8009376999998,855.8009376999998,856.4181695999996,x,0.6091990000022633,None,,,,,,,,,,OAT_th,001,2025-03-12_16h13.11.514,MainFlow,2024.2.4,141.6161804997742,2025-03-12 16h13.22.100187 +0700,
1,3,10,word/wordth0103.png,107,107,0,x,0.7292515999979514,None,0,107,107,107,856.4231559000018,,,,,,,856.4231559000018,856.4231559000018,857.4308237999994,857.4341887999999,857.4341887999999,857.4341887999999,857.4341887999999,858.1673203000009,x,0.7292515999979514,None,,,,,,,,,,OAT_th,001,2025-03-12_16h13.11.514,MainFlow,2024.2.4,141.6161804997742,2025-03-12 16h13.22.100187 +0700,
1,3,94,word/wordth0943.png,108,108,0,x,0.733572400000412,None,0,108,108,108,858.172126200001,,,,,,,858.172126200001,858.172126200001,859.1859531999999,859.1893647000015,859.1893647000015,859.1893647000015,859.1893647000015,859.9302765000011,x,0.733572400000412,None,,,,,,,,,,OAT_th,001,2025-03-12_16h13.11.514,MainFlow,2024.2.4,141.6161804997742,2025-03-12 16h13.22.100187 +0700,
1,1,3,word/wordth0031.png,109,109,0,z,0.6220214999993914,None,0,109,109,109,859.9357335000004,,,,,,,859.9357335000004,859.9357335000004,860.9538221999992,860.9572572999987,860.9572572999987,860.9572572999987,860.9572572999987,861.5828912999987,z,0.6220214999993914,None,,,,,,,,,,OAT_th,001,2025-03-12_16h13.11.514,MainFlow,2024.2.4,141.6161804997742,2025-03-12 16h13.22.100187 +0700,
1,3,63,word/wordth0633.png,110,110,0,x,0.5626478999984101,None,0,110,110,110,861.5881037999989,,,,,,,861.5881037999989,861.5881037999989,862.6043803999983,862.6073969000008,862.6073969000008,862.6073969000008,862.6073969000008,863.1734176000009,x,0.5626478999984101,None,,,,,,,,,,OAT_th,001,2025-03-12_16h13.11.514,MainFlow,2024.2.4,141.6161804997742,2025-03-12 16h13.22.100187 +0700,
1,2,9,word/wordth0092.png,111,111,0,x,0.5246731000006548,None,0,111,111,111,863.1781095999995,,,,,,,863.1781095999995,863.1781095999995,864.1987522,864.2021693000006,864.2021693000006,864.2021693000006,864.2021693000006,864.7286375999993,x,0.5246731000006548,None,,,,,,,,,,OAT_th,001,2025-03-12_16h13.11.514,MainFlow,2024.2.4,141.6161804997742,2025-03-12 16h13.22.100187 +0700,
1,3,7,word/wordth0073.png,112,112,0,x,0.5990536999997857,None,0,112,112,112,864.7334522000001,,,,,,,864.7334522000001,864.7334522000001,865.7424613999992,865.7458059,865.7458059,865.7458059,865.7458059,866.3470900000011,x,0.5990536999997857,None,,,,,,,,,,OAT_th,001,2025-03-12_16h13.11.514,MainFlow,2024.2.4,141.6161804997742,2025-03-12 16h13.22.100187 +0700,
1,2,41,word/wordth0412.png,113,113,0,x,0.4848268999994616,None,0,113,113,113,866.3525924000005,,,,,,,866.3525924000005,866.3525924000005,867.3648736999985,867.3686313999988,867.3686313999988,867.3686313999988,867.3686313999988,867.8595635000001,x,0.4848268999994616,None,,,,,,,,,,OAT_th,001,2025-03-12_16h13.11.514,MainFlow,2024.2.4,141.6161804997742,2025-03-12 16h13.22.100187 +0700,
1,1,9,word/wordth0091.png,114,114,0,z,0.501877600003354,None,0,114,114,114,867.8646494000004,,,,,,,867.8646494000004,867.8646494000004,868.8749302999986,868.8785183999989,868.8785183999989,868.8785183999989,868.8785183999989,869.3880571999998,z,0.501877600003354,None,,,,,,,,,,OAT_th,001,2025-03-12_16h13.11.514,MainFlow,2024.2.4,141.6161804997742,2025-03-12 16h13.22.100187 +0700,
1,1,94,word/wordth0941.png,115,115,0,x,0.5464345000000321,None,0,115,115,115,869.3922005000004,,,,,,,869.3922005000004,869.3922005000004,870.408468399999,870.4117453000017,870.4117453000017,870.4117453000017,870.4117453000017,870.9635534999998,x,0.5464345000000321,None,,,,,,,,,,OAT_th,001,2025-03-12_16h13.11.514,MainFlow,2024.2.4,141.6161804997742,2025-03-12 16h13.22.100187 +0700,
1,1,52,word/wordth0521.png,116,116,0,z,0.5837038999998185,None,0,116,116,116,870.9682914999994,,,,,,,870.9682914999994,870.9682914999994,871.9906188000004,871.9941024999989,871.9941024999989,871.9941024999989,871.9941024999989,872.5808224999982,z,0.5837038999998185,None,,,,,,,,,,OAT_th,001,2025-03-12_16h13.11.514,MainFlow,2024.2.4,141.6161804997742,2025-03-12 16h13.22.100187 +0700,
1,2,88,word/wordth0882.png,117,117,0,x,0.7130362999996578,None,0,117,117,117,872.5860545000014,,,,,,,872.5860545000014,872.5860545000014,873.6098102000014,873.6131093999993,873.6131093999993,873.6131093999993,873.6131093999993,874.3305277999989,x,0.7130362999996578,None,,,,,,,,,,OAT_th,001,2025-03-12_16h13.11.514,MainFlow,2024.2.4,141.6161804997742,2025-03-12 16h13.22.100187 +0700,
1,1,41,word/wordth0411.png,118,118,0,z,0.9606865999994625,None,0,118,118,118,874.3355967000007,,,,,,,874.3355967000007,874.3355967000007,875.3566202999991,875.3601378000003,875.3601378000003,875.3601378000003,875.3601378000003,876.3233167999988,z,0.9606865999994625,None,,,,,,,,,,OAT_th,001,2025-03-12_16h13.11.514,MainFlow,2024.2.4,141.6161804997742,2025-03-12 16h13.22.100187 +0700,
1,3,30,word/wordth0303.png,119,119,0,x,1.0549532999975781,None,0,119,119,119,876.3284045000019,,,,,,,876.3284045000019,876.3284045000019,877.3480046999994,877.3512909000001,877.3512909000001,877.3512909000001,877.3512909000001,878.4130922999993,x,1.0549532999975781,None,,,,,,,,,,OAT_th,001,2025-03-12_16h13.11.514,MainFlow,2024.2.4,141.6161804997742,2025-03-12 16h13.22.100187 +0700,
,,,,,,,,,,,,,,,,,,,,,,,,,,,,,,,,,,878.413294,878.4182612999994,878.4182612999994,880.5651550999992,space,2.144263800000772,None,OAT_th,001,2025-03-12_16h13.11.514,MainFlow,2024.2.4,141.6161804997742,2025-03-12 16h13.22.100187 +0700,
