lang,stimuli,imageid,worddir,thisN,thisTrialN,thisRepN,key_resp.keys,key_resp.rt,key_resp.duration,trials.thisRepN,trials.thisTrialN,trials.thisN,trials.thisIndex,thisRow.t,notes,tutorial.started,tutorial.stopped,key_instruct.keys,key_instruct.rt,key_instruct.duration,instructblank.started,cross1.started,letterselect.started,imageword.started,text_2.started,cross2.started,key_resp.started,letterselect.stopped,trials.key_resp.keys,trials.key_resp.rt,trials.key_resp.duration,instructblank.stopped,cross1.stopped,ending.started,text_3.started,ending_key.started,ending.stopped,ending_key.keys,ending_key.rt,ending_key.duration,participant,session,date,expName,psychopyVersion,frameRate,expStart,
,,,,,,,,,,,,,,,,0.0027881000423803926,1.8652966000372544,space,1.8413663998944685,None,,,,,,,,,,,,,,,,,,,,,PH_en,001,2025-03-09_21h00.12.769,MainFlow,2024.2.4,129.86709410753053,2025-03-09 21h00.20.204898 +0700,
2,1,66,word/worden0661.png,0,0,0,z,16.063907000003383,None,0,0,0,0,1.8908686999930069,,,,,,,1.8908686999930069,1.8908686999930069,2.8647345999488607,2.8693476000335068,2.8693476000335068,2.8693476000335068,2.8693476000335068,18.937950000050478,z,16.063907000003383,None,,,,,,,,,,PH_en,001,2025-03-09_21h00.12.769,MainFlow,2024.2.4,129.86709410753053,2025-03-09 21h00.20.204898 +0700,
2,1,3,word/worden0031.png,1,1,0,z,1.2438849000027403,None,0,1,1,1,18.944237599964254,,,,,,,18.944237599964254,18.944237599964254,19.931440499960445,19.935385899967514,19.935385899967514,19.935385899967514,19.935385899967514,21.180695299990475,z,1.2438849000027403,None,,,,,,,,,,PH_en,001,2025-03-09_21h00.12.769,MainFlow,2024.2.4,129.86709410753053,2025-03-09 21h00.20.204898 +0700,
2,2,71,word/worden0712.png,2,2,0,x,1.7960550000425428,None,0,2,2,2,21.18719450000208,,,,,,,21.18719450000208,21.18719450000208,22.174111500033177,22.178069700021297,22.178069700021297,22.178069700021297,22.178069700021297,23.97907140001189,x,1.7960550000425428,None,,,,,,,,,,PH_en,001,2025-03-09_21h00.12.769,MainFlow,2024.2.4,129.86709410753053,2025-03-09 21h00.20.204898 +0700,
2,3,27,word/worden0273.png,3,3,0,x,4.0229231000412256,None,0,3,3,3,23.985576399951242,,,,,,,23.985576399951242,23.985576399951242,24.972249699989334,24.976338500040583,24.976338500040583,24.976338500040583,24.976338500040583,29.00015750003513,x,4.0229231000412256,None,,,,,,,,,,PH_en,001,2025-03-09_21h00.12.769,MainFlow,2024.2.4,129.86709410753053,2025-03-09 21h00.20.204898 +0700,
2,3,88,word/worden0883.png,4,4,0,x,2.3669287000084296,None,0,4,4,4,29.006188499974087,,,,,,,29.006188499974087,29.006188499974087,29.993533300003037,29.998448799946345,29.998448799946345,29.998448799946345,29.998448799946345,32.36808389995713,x,2.3669287000084296,None,,,,,,,,,,PH_en,001,2025-03-09_21h00.12.769,MainFlow,2024.2.4,129.86709410753053,2025-03-09 21h00.20.204898 +0700,
2,1,28,word/worden0281.png,5,5,0,z,1.2346373000182211,None,0,5,5,5,32.374506299966015,,,,,,,32.374506299966015,32.374506299966015,33.361642500036396,33.36548799998127,33.36548799998127,33.36548799998127,33.36548799998127,34.6037547000451,z,1.2346373000182211,None,,,,,,,,,,PH_en,001,2025-03-09_21h00.12.769,MainFlow,2024.2.4,129.86709410753053,2025-03-09 21h00.20.204898 +0700,
2,1,50,word/worden0501.png,6,6,0,z,1.353912999969907,None,0,6,6,6,34.61055640003178,,,,,,,34.61055640003178,34.61055640003178,35.59745720005594,35.60157449997496,35.60157449997496,35.60157449997496,35.60157449997496,36.958381799981,z,1.353912999969907,None,,,,,,,,,,PH_en,001,2025-03-09_21h00.12.769,MainFlow,2024.2.4,129.86709410753053,2025-03-09 21h00.20.204898 +0700,
2,1,41,word/worden0411.png,7,7,0,z,1.300169000052847,None,0,7,7,7,36.96447370003443,,,,,,,36.96447370003443,36.96447370003443,37.95436910004355,37.95980830001645,37.95980830001645,37.95980830001645,37.95980830001645,39.26633580005728,z,1.300169000052847,None,,,,,,,,,,PH_en,001,2025-03-09_21h00.12.769,MainFlow,2024.2.4,129.86709410753053,2025-03-09 21h00.20.204898 +0700,
2,2,52,word/worden0522.png,8,8,0,x,2.5354832999873906,None,0,8,8,8,39.27274170005694,,,,,,,39.27274170005694,39.27274170005694,40.26027970004361,40.2649425000418,40.2649425000418,40.2649425000418,40.2649425000418,42.80141660000663,x,2.5354832999873906,None,,,,,,,,,,PH_en,001,2025-03-09_21h00.12.769,MainFlow,2024.2.4,129.86709410753053,2025-03-09 21h00.20.204898 +0700,
2,3,6,word/worden0063.png,9,9,0,x,2.5775557999731973,None,0,9,9,9,42.80751990003046,,,,,,,42.80751990003046,42.80751990003046,43.79464099998586,43.799018800025806,43.799018800025806,43.799018800025806,43.799018800025806,46.377411099965684,x,2.5775557999731973,None,,,,,,,,,,PH_en,001,2025-03-09_21h00.12.769,MainFlow,2024.2.4,129.86709410753053,2025-03-09 21h00.20.204898 +0700,
2,3,46,word/worden0463.png,10,10,0,x,3.7644308999879286,None,0,10,10,10,46.38387849996798,,,,,,,46.38387849996798,46.38387849996798,47.37200620002113,47.376026000012644,47.376026000012644,47.376026000012644,47.376026000012644,51.14198730001226,x,3.7644308999879286,None,,,,,,,,,,PH_en,001,2025-03-09_21h00.12.769,MainFlow,2024.2.4,129.86709410753053,2025-03-09 21h00.20.204898 +0700,
2,2,30,word/worden0302.png,11,11,0,x,1.1812801000196487,None,0,11,11,11,51.147858200012706,,,,,,,51.147858200012706,51.147858200012706,52.137302199960686,52.1413047000533,52.1413047000533,52.1413047000533,52.1413047000533,53.32358269998804,x,1.1812801000196487,None,,,,,,,,,,PH_en,001,2025-03-09_21h00.12.769,MainFlow,2024.2.4,129.86709410753053,2025-03-09 21h00.20.204898 +0700,
2,2,46,word/worden0462.png,12,12,0,x,1.6196512000169605,None,0,12,12,12,53.32979410002008,,,,,,,53.32979410002008,53.32979410002008,54.31736079999246,54.32144560001325,54.32144560001325,54.32144560001325,54.32144560001325,55.943514300044626,x,1.6196512000169605,None,,,,,,,,,,PH_en,001,2025-03-09_21h00.12.769,MainFlow,2024.2.4,129.86709410753053,2025-03-09 21h00.20.204898 +0700,
2,2,70,word/worden0702.png,13,13,0,x,2.3831179999979213,None,0,13,13,13,55.949783400050364,,,,,,,55.949783400050364,55.949783400050364,56.935599399963394,56.93942980002612,56.93942980002612,56.93942980002612,56.93942980002612,59.32902920001652,x,2.3831179999979213,None,,,,,,,,,,PH_en,001,2025-03-09_21h00.12.769,MainFlow,2024.2.4,129.86709410753053,2025-03-09 21h00.20.204898 +0700,
2,1,70,word/worden0701.png,14,14,0,z,1.759806799935177,None,0,14,14,14,59.334523000055924,,,,,,,59.334523000055924,59.334523000055924,60.3222250000108,60.32657230005134,60.32657230005134,60.32657230005134,60.32657230005134,62.09186629997566,z,1.759806799935177,None,,,,,,,,,,PH_en,001,2025-03-09_21h00.12.769,MainFlow,2024.2.4,129.86709410753053,2025-03-09 21h00.20.204898 +0700,
2,1,8,word/worden0081.png,15,15,0,z,1.6848936000606045,None,0,15,15,15,62.09840250003617,,,,,,,62.09840250003617,62.09840250003617,63.0825993999606,63.08690250001382,63.08690250001382,63.08690250001382,63.08690250001382,64.77680530003272,z,1.6848936000606045,None,,,,,,,,,,PH_en,001,2025-03-09_21h00.12.769,MainFlow,2024.2.4,129.86709410753053,2025-03-09 21h00.20.204898 +0700,
2,3,61,word/worden0613.png,16,16,0,z,4.872670900076628,None,0,16,16,16,64.78306809999049,,,,,,,64.78306809999049,64.78306809999049,65.77001910004765,65.77408480003942,65.77408480003942,65.77408480003942,65.77408480003942,70.64851940004155,z,4.872670900076628,None,,,,,,,,,,PH_en,001,2025-03-09_21h00.12.769,MainFlow,2024.2.4,129.86709410753053,2025-03-09 21h00.20.204898 +0700,
2,3,10,word/worden0103.png,17,17,0,x,1.814172099926509,None,0,17,17,17,70.65491000004113,,,,,,,70.65491000004113,70.65491000004113,71.63891350000631,71.64284029998817,71.64284029998817,71.64284029998817,71.64284029998817,73.45884380000643,x,1.814172099926509,None,,,,,,,,,,PH_en,001,2025-03-09_21h00.12.769,MainFlow,2024.2.4,129.86709410753053,2025-03-09 21h00.20.204898 +0700,
2,3,75,word/worden0753.png,18,18,0,x,2.881666100001894,None,0,18,18,18,73.46606570004951,,,,,,,73.46606570004951,73.46606570004951,74.45182089996524,74.45625130005646,74.45625130005646,74.45625130005646,74.45625130005646,77.34434880001936,x,2.881666100001894,None,,,,,,,,,,PH_en,001,2025-03-09_21h00.12.769,MainFlow,2024.2.4,129.86709410753053,2025-03-09 21h00.20.204898 +0700,
2,2,63,word/worden0632.png,19,19,0,x,1.0907773000653833,None,0,19,19,19,77.35082569997758,,,,,,,77.35082569997758,77.35082569997758,78.3378697000444,78.34193700004835,78.34193700004835,78.34193700004835,78.34193700004835,79.43437909998465,x,1.0907773000653833,None,,,,,,,,,,PH_en,001,2025-03-09_21h00.12.769,MainFlow,2024.2.4,129.86709410753053,2025-03-09 21h00.20.204898 +0700,
2,3,11,word/worden0113.png,20,20,0,x,0.9596916999435052,None,0,20,20,20,79.44088490004651,,,,,,,79.44088490004651,79.44088490004651,80.42829349997919,80.43262630002573,80.43262630002573,80.43262630002573,80.43262630002573,81.39327000000048,x,0.9596916999435052,None,,,,,,,,,,PH_en,001,2025-03-09_21h00.12.769,MainFlow,2024.2.4,129.86709410753053,2025-03-09 21h00.20.204898 +0700,
2,2,89,word/worden0892.png,21,21,0,x,1.4307159999152645,None,0,21,21,21,81.39939339994453,,,,,,,81.39939339994453,81.39939339994453,82.38722010003403,82.39162190002389,82.39162190002389,82.39162190002389,82.39162190002389,83.82388489996083,x,1.4307159999152645,None,,,,,,,,,,PH_en,001,2025-03-09_21h00.12.769,MainFlow,2024.2.4,129.86709410753053,2025-03-09 21h00.20.204898 +0700,
2,1,9,word/worden0091.png,22,22,0,z,1.3208251999458298,None,0,22,22,22,83.83031910005957,,,,,,,83.83031910005957,83.83031910005957,84.81789970002137,84.82222430000547,84.82222430000547,84.82222430000547,84.82222430000547,86.14385029999539,z,1.3208251999458298,None,,,,,,,,,,PH_en,001,2025-03-09_21h00.12.769,MainFlow,2024.2.4,129.86709410753053,2025-03-09 21h00.20.204898 +0700,
2,3,28,word/worden0283.png,23,23,0,x,1.149602200021036,None,0,23,23,23,86.14964099996723,,,,,,,86.14964099996723,86.14964099996723,87.13654780003708,87.14046529994812,87.14046529994812,87.14046529994812,87.14046529994812,88.29623670002911,x,1.149602200021036,None,,,,,,,,,,PH_en,001,2025-03-09_21h00.12.769,MainFlow,2024.2.4,129.86709410753053,2025-03-09 21h00.20.204898 +0700,
2,1,82,word/worden0821.png,24,24,0,z,3.228596600005403,None,0,24,24,24,88.30265710002277,,,,,,,88.30265710002277,88.30265710002277,89.29109930002596,89.29966879996937,89.29966879996937,89.29966879996937,89.29966879996937,92.53339430002961,z,3.228596600005403,None,,,,,,,,,,PH_en,001,2025-03-09_21h00.12.769,MainFlow,2024.2.4,129.86709410753053,2025-03-09 21h00.20.204898 +0700,
2,2,28,word/worden0282.png,25,25,0,x,1.2569965000730008,None,0,25,25,25,92.53936060005799,,,,,,,92.53936060005799,92.53936060005799,93.52827210002579,93.53696289996151,93.53696289996151,93.53696289996151,93.53696289996151,94.79488750000019,x,1.2569965000730008,None,,,,,,,,,,PH_en,001,2025-03-09_21h00.12.769,MainFlow,2024.2.4,129.86709410753053,2025-03-09 21h00.20.204898 +0700,
2,1,23,word/worden0231.png,26,26,0,z,2.07621550001204,None,0,26,26,26,94.80091410002206,,,,,,,94.80091410002206,94.80091410002206,95.78894540003967,95.79335880000144,95.79335880000144,95.79335880000144,95.79335880000144,97.8717486000387,z,2.07621550001204,None,,,,,,,,,,PH_en,001,2025-03-09_21h00.12.769,MainFlow,2024.2.4,129.86709410753053,2025-03-09 21h00.20.204898 +0700,
2,2,42,word/worden0422.png,27,27,0,x,0.7828139000339434,None,0,27,27,27,97.87795869994443,,,,,,,97.87795869994443,97.87795869994443,98.86680449999403,98.87118689995259,98.87118689995259,98.87118689995259,98.87118689995259,99.65768209996168,x,0.7828139000339434,None,,,,,,,,,,PH_en,001,2025-03-09_21h00.12.769,MainFlow,2024.2.4,129.86709410753053,2025-03-09 21h00.20.204898 +0700,
2,2,93,word/worden0932.png,28,28,0,x,1.4994873999385163,None,0,28,28,28,99.66366139997263,,,,,,,99.66366139997263,99.66366139997263,100.65159559994936,100.65569589997176,100.65569589997176,100.65569589997176,100.65569589997176,102.15830600005575,x,1.4994873999385163,None,,,,,,,,,,PH_en,001,2025-03-09_21h00.12.769,MainFlow,2024.2.4,129.86709410753053,2025-03-09 21h00.20.204898 +0700,
2,1,88,word/worden0881.png,29,29,0,z,2.897699199966155,None,0,29,29,29,102.16454829997383,,,,,,,102.16454829997383,102.16454829997383,103.15250710002147,103.15766030002851,103.15766030002851,103.15766030002851,103.15766030002851,106.06151609995868,z,2.897699199966155,None,,,,,,,,,,PH_en,001,2025-03-09_21h00.12.769,MainFlow,2024.2.4,129.86709410753053,2025-03-09 21h00.20.204898 +0700,
2,3,31,word/worden0313.png,30,30,0,x,1.0057329999981448,None,0,30,30,30,106.06800510000903,,,,,,,106.06800510000903,106.06800510000903,107.05550520005636,107.0597434999654,107.0597434999654,107.0597434999654,107.0597434999654,108.06908829999156,x,1.0057329999981448,None,,,,,,,,,,PH_en,001,2025-03-09_21h00.12.769,MainFlow,2024.2.4,129.86709410753053,2025-03-09 21h00.20.204898 +0700,
2,2,75,word/worden0752.png,31,31,0,x,0.7577364000026137,None,0,31,31,31,108.07541849999689,,,,,,,108.07541849999689,108.07541849999689,109.06467969994992,109.07343160000164,109.07343160000164,109.07343160000164,109.07343160000164,109.83772119996138,x,0.7577364000026137,None,,,,,,,,,,PH_en,001,2025-03-09_21h00.12.769,MainFlow,2024.2.4,129.86709410753053,2025-03-09 21h00.20.204898 +0700,
2,2,48,word/worden0482.png,32,32,0,x,0.5250763999065384,None,0,32,32,32,109.84417149994988,,,,,,,109.84417149994988,109.84417149994988,110.83238010003697,110.83645669999532,110.83645669999532,110.83645669999532,110.83645669999532,111.36822659999598,x,0.5250763999065384,None,,,,,,,,,,PH_en,001,2025-03-09_21h00.12.769,MainFlow,2024.2.4,129.86709410753053,2025-03-09 21h00.20.204898 +0700,
2,1,26,word/worden0261.png,33,33,0,z,1.2314432000275701,None,0,33,33,33,111.3729645999847,,,,,,,111.3729645999847,111.3729645999847,112.36054789996706,112.36487779999152,112.36487779999152,112.36487779999152,112.36487779999152,113.60320010001305,z,1.2314432000275701,None,,,,,,,,,,PH_en,001,2025-03-09_21h00.12.769,MainFlow,2024.2.4,129.86709410753053,2025-03-09 21h00.20.204898 +0700,
2,2,41,word/worden0412.png,34,34,0,x,1.1409983000485227,None,0,34,34,34,113.60951920005027,,,,,,,113.60951920005027,113.60951920005027,114.5965620999923,114.6004386000568,114.6004386000568,114.6004386000568,114.6004386000568,115.74508849997073,x,1.1409983000485227,None,,,,,,,,,,PH_en,001,2025-03-09_21h00.12.769,MainFlow,2024.2.4,129.86709410753053,2025-03-09 21h00.20.204898 +0700,
2,3,66,word/worden0663.png,35,35,0,x,2.3810173999518156,None,0,35,35,35,115.75177970004734,,,,,,,115.75177970004734,115.75177970004734,116.73703620000742,116.74143529997673,116.74143529997673,116.74143529997673,116.74143529997673,119.12523720005993,x,2.3810173999518156,None,,,,,,,,,,PH_en,001,2025-03-09_21h00.12.769,MainFlow,2024.2.4,129.86709410753053,2025-03-09 21h00.20.204898 +0700,
2,1,6,word/worden0061.png,36,36,0,z,0.9518650000682101,None,0,36,36,36,119.1309973000316,,,,,,,119.1309973000316,119.1309973000316,120.12131369998679,120.13007139996625,120.13007139996625,120.13007139996625,120.13007139996625,121.08904490002897,z,0.9518650000682101,None,,,,,,,,,,PH_en,001,2025-03-09_21h00.12.769,MainFlow,2024.2.4,129.86709410753053,2025-03-09 21h00.20.204898 +0700,
2,1,42,word/worden0421.png,37,37,0,z,1.8489478999981657,None,0,37,37,37,121.09545569994953,,,,,,,121.09545569994953,121.09545569994953,122.0836857999675,122.0880368000362,122.0880368000362,122.0880368000362,122.0880368000362,123.94414479995612,z,1.8489478999981657,None,,,,,,,,,,PH_en,001,2025-03-09_21h00.12.769,MainFlow,2024.2.4,129.86709410753053,2025-03-09 21h00.20.204898 +0700,
2,3,41,word/worden0413.png,38,38,0,x,0.754406200023368,None,0,38,38,38,123.95072059996892,,,,,,,123.95072059996892,123.95072059996892,124.93936780001968,124.94393289997242,124.94393289997242,124.94393289997242,124.94393289997242,125.70242810004856,x,0.754406200023368,None,,,,,,,,,,PH_en,001,2025-03-09_21h00.12.769,MainFlow,2024.2.4,129.86709410753053,2025-03-09 21h00.20.204898 +0700,
2,2,23,word/worden0232.png,39,39,0,x,0.7795419000321999,None,0,39,39,39,125.70882030006032,,,,,,,125.70882030006032,125.70882030006032,126.69518929999322,126.69924330001231,126.69924330001231,126.69924330001231,126.69924330001231,127.48319169995375,x,0.7795419000321999,None,,,,,,,,,,PH_en,001,2025-03-09_21h00.12.769,MainFlow,2024.2.4,129.86709410753053,2025-03-09 21h00.20.204898 +0700,
2,3,96,word/worden0963.png,40,40,0,x,1.492662200005725,None,0,40,40,40,127.48961150005925,,,,,,,127.48961150005925,127.48961150005925,128.47681529994588,128.48086270003114,128.48086270003114,128.48086270003114,128.48086270003114,129.97650680004153,x,1.492662200005725,None,,,,,,,,,,PH_en,001,2025-03-09_21h00.12.769,MainFlow,2024.2.4,129.86709410753053,2025-03-09 21h00.20.204898 +0700,
2,1,61,word/worden0611.png,41,41,0,z,2.0090113999322057,None,0,41,41,41,129.9826298999833,,,,,,,129.9826298999833,129.9826298999833,130.9709520000033,130.97526139998809,130.97526139998809,130.97526139998809,130.97526139998809,132.9853782999562,z,2.0090113999322057,None,,,,,,,,,,PH_en,001,2025-03-09_21h00.12.769,MainFlow,2024.2.4,129.86709410753053,2025-03-09 21h00.20.204898 +0700,
2,3,9,word/worden0093.png,42,42,0,x,1.059148299973458,None,0,42,42,42,132.992081400007,,,,,,,132.992081400007,132.992081400007,133.9806214000564,133.98510469996836,133.98510469996836,133.98510469996836,133.98510469996836,135.0491931999568,x,1.059148299973458,None,,,,,,,,,,PH_en,001,2025-03-09_21h00.12.769,MainFlow,2024.2.4,129.86709410753053,2025-03-09 21h00.20.204898 +0700,
2,3,63,word/worden0633.png,43,43,0,x,1.1159824000205845,None,0,43,43,43,135.05560920003336,,,,,,,135.05560920003336,135.05560920003336,136.04343069996685,136.0475403999444,136.0475403999444,136.0475403999444,136.0475403999444,137.1680865000235,x,1.1159824000205845,None,,,,,,,,,,PH_en,001,2025-03-09_21h00.12.769,MainFlow,2024.2.4,129.86709410753053,2025-03-09 21h00.20.204898 +0700,
2,3,50,word/worden0503.png,44,44,0,x,1.0008625000482425,None,0,44,44,44,137.17447279999033,,,,,,,137.17447279999033,137.17447279999033,138.16453219996765,138.1734327999875,138.1734327999875,138.1734327999875,138.1734327999875,139.17907579999883,x,1.0008625000482425,None,,,,,,,,,,PH_en,001,2025-03-09_21h00.12.769,MainFlow,2024.2.4,129.86709410753053,2025-03-09 21h00.20.204898 +0700,
2,2,27,word/worden0272.png,45,45,0,x,1.0360691999085248,None,0,45,45,45,139.18535120005254,,,,,,,139.18535120005254,139.18535120005254,140.17432029999327,140.17846590001136,140.17846590001136,140.17846590001136,140.17846590001136,141.22168179997243,x,1.0360691999085248,None,,,,,,,,,,PH_en,001,2025-03-09_21h00.12.769,MainFlow,2024.2.4,129.86709410753053,2025-03-09 21h00.20.204898 +0700,
2,2,61,word/worden0612.png,46,46,0,x,2.9146546999691054,None,0,46,46,46,141.2280842999462,,,,,,,141.2280842999462,141.2280842999462,142.21650249999948,142.22086730005685,142.22086730005685,142.22086730005685,142.22086730005685,145.13896310003474,x,2.9146546999691054,None,,,,,,,,,,PH_en,001,2025-03-09_21h00.12.769,MainFlow,2024.2.4,129.86709410753053,2025-03-09 21h00.20.204898 +0700,
2,3,7,word/worden0073.png,47,47,0,x,1.1265773000195622,None,0,47,47,47,145.1448232999537,,,,,,,145.1448232999537,145.1448232999537,146.13428110000677,146.13865069998428,146.13865069998428,146.13865069998428,146.13865069998428,147.27121100004297,x,1.1265773000195622,None,,,,,,,,,,PH_en,001,2025-03-09_21h00.12.769,MainFlow,2024.2.4,129.86709410753053,2025-03-09 21h00.20.204898 +0700,
2,3,23,word/worden0233.png,48,48,0,x,0.6902023999718949,None,0,48,48,48,147.2778179999441,,,,,,,147.2778179999441,147.2778179999441,148.2665527999634,148.2705398000544,148.2705398000544,148.2705398000544,148.2705398000544,148.96666140004527,x,0.6902023999718949,None,,,,,,,,,,PH_en,001,2025-03-09_21h00.12.769,MainFlow,2024.2.4,129.86709410753053,2025-03-09 21h00.20.204898 +0700,
2,1,95,word/worden0951.png,49,49,0,z,1.8175148000009358,None,0,49,49,49,148.97285490005743,,,,,,,148.97285490005743,148.97285490005743,149.95958390005399,149.96359129995108,149.96359129995108,149.96359129995108,149.96359129995108,151.78604529995937,z,1.8175148000009358,None,,,,,,,,,,PH_en,001,2025-03-09_21h00.12.769,MainFlow,2024.2.4,129.86709410753053,2025-03-09 21h00.20.204898 +0700,
2,3,42,word/worden0423.png,50,50,0,x,2.1877469000173733,None,0,50,50,50,151.79225449997466,,,,,,,151.79225449997466,151.79225449997466,152.77964189997874,152.7837518999586,152.7837518999586,152.7837518999586,152.7837518999586,154.97323280002456,x,2.1877469000173733,None,,,,,,,,,,PH_en,001,2025-03-09_21h00.12.769,MainFlow,2024.2.4,129.86709410753053,2025-03-09 21h00.20.204898 +0700,
2,1,30,word/worden0301.png,51,51,0,z,1.4633497999748215,None,0,51,51,51,154.97958000004292,,,,,,,154.97958000004292,154.97958000004292,155.9678425999591,155.97324219997972,155.97324219997972,155.97324219997972,155.97324219997972,157.43960329995025,z,1.4633497999748215,None,,,,,,,,,,PH_en,001,2025-03-09_21h00.12.769,MainFlow,2024.2.4,129.86709410753053,2025-03-09 21h00.20.204898 +0700,
2,3,87,word/worden0873.png,52,52,0,x,1.4090106000658125,None,0,52,52,52,157.44600009999704,,,,,,,157.44600009999704,157.44600009999704,158.43344509997405,158.4383129000198,158.4383129000198,158.4383129000198,158.4383129000198,159.84960950003006,x,1.4090106000658125,None,,,,,,,,,,PH_en,001,2025-03-09_21h00.12.769,MainFlow,2024.2.4,129.86709410753053,2025-03-09 21h00.20.204898 +0700,
2,2,6,word/worden0062.png,53,53,0,x,0.7037406000308692,None,0,53,53,53,159.85591489996295,,,,,,,159.85591489996295,159.85591489996295,160.844922499964,160.8536413999973,160.8536413999973,160.8536413999973,160.8536413999973,161.56286389997695,x,0.7037406000308692,None,,,,,,,,,,PH_en,001,2025-03-09_21h00.12.769,MainFlow,2024.2.4,129.86709410753053,2025-03-09 21h00.20.204898 +0700,
2,2,68,word/worden0682.png,54,54,0,x,0.600782599998638,None,0,54,54,54,161.5692473000381,,,,,,,161.5692473000381,161.5692473000381,162.55782109999564,162.5618475000374,162.5618475000374,162.5618475000374,162.5618475000374,163.16752200003248,x,0.600782599998638,None,,,,,,,,,,PH_en,001,2025-03-09_21h00.12.769,MainFlow,2024.2.4,129.86709410753053,2025-03-09 21h00.20.204898 +0700,
2,3,1,word/worden0013.png,55,55,0,x,0.6166968999896199,None,0,55,55,55,163.17392510001082,,,,,,,163.17392510001082,163.17392510001082,164.16140630003065,164.1655405999627,164.1655405999627,164.1655405999627,164.1655405999627,164.78562209999654,x,0.6166968999896199,None,,,,,,,,,,PH_en,001,2025-03-09_21h00.12.769,MainFlow,2024.2.4,129.86709410753053,2025-03-09 21h00.20.204898 +0700,
2,2,94,word/worden0942.png,56,56,0,x,0.61678259994369,None,0,56,56,56,164.79203799995594,,,,,,,164.79203799995594,164.79203799995594,165.78032619995065,165.78590130002704,165.78590130002704,165.78590130002704,165.78590130002704,166.40656739997212,x,0.61678259994369,None,,,,,,,,,,PH_en,001,2025-03-09_21h00.12.769,MainFlow,2024.2.4,129.86709410753053,2025-03-09 21h00.20.204898 +0700,
2,3,82,word/worden0823.png,57,57,0,x,1.8780087999766693,None,0,57,57,57,166.4127707000589,,,,,,,166.4127707000589,166.4127707000589,167.4009632000234,167.40510790003464,167.40510790003464,167.40510790003464,167.40510790003464,169.28842160000931,x,1.8780087999766693,None,,,,,,,,,,PH_en,001,2025-03-09_21h00.12.769,MainFlow,2024.2.4,129.86709410753053,2025-03-09 21h00.20.204898 +0700,
2,1,89,word/worden0891.png,58,58,0,z,2.583571699913591,None,0,58,58,58,169.29485619999468,,,,,,,169.29485619999468,169.29485619999468,170.2816213000333,170.28551680000965,170.28551680000965,170.28551680000965,170.28551680000965,172.872046399978,z,2.583571699913591,None,,,,,,,,,,PH_en,001,2025-03-09_21h00.12.769,MainFlow,2024.2.4,129.86709410753053,2025-03-09 21h00.20.204898 +0700,
2,1,31,word/worden0311.png,59,59,0,z,1.3251335000386462,None,0,59,59,59,172.87839820003137,,,,,,,172.87839820003137,172.87839820003137,173.86517859995365,173.86913859995548,173.86913859995548,173.86913859995548,173.86913859995548,175.19838299998082,z,1.3251335000386462,None,,,,,,,,,,PH_en,001,2025-03-09_21h00.12.769,MainFlow,2024.2.4,129.86709410753053,2025-03-09 21h00.20.204898 +0700,
2,2,51,word/worden0512.png,60,60,0,x,1.5782508000265807,None,0,60,60,60,175.20473720005248,,,,,,,175.20473720005248,175.20473720005248,176.19219740002882,176.19643080001697,176.19643080001697,176.19643080001697,176.19643080001697,177.7814531000331,x,1.5782508000265807,None,,,,,,,,,,PH_en,001,2025-03-09_21h00.12.769,MainFlow,2024.2.4,129.86709410753053,2025-03-09 21h00.20.204898 +0700,
2,3,44,word/worden0443.png,61,61,0,x,2.834440300008282,None,0,61,61,61,177.78791720001027,,,,,,,177.78791720001027,177.78791720001027,178.77625230001286,178.78028559999075,178.78028559999075,178.78028559999075,178.78028559999075,181.62166920001619,x,2.834440300008282,None,,,,,,,,,,PH_en,001,2025-03-09_21h00.12.769,MainFlow,2024.2.4,129.86709410753053,2025-03-09 21h00.20.204898 +0700,
2,1,1,word/worden0011.png,62,62,0,z,0.8335938999662176,None,0,62,62,62,181.62527650000993,,,,,,,181.62527650000993,181.62527650000993,182.61682550003752,182.6211420999607,182.6211420999607,182.6211420999607,182.6211420999607,183.4568705999991,z,0.8335938999662176,None,182.6211420999607,182.6211420999607,,,,,,,,PH_en,001,2025-03-09_21h00.12.769,MainFlow,2024.2.4,129.86709410753053,2025-03-09 21h00.20.204898 +0700,
2,1,96,word/worden0961.png,63,63,0,z,1.768730300012976,None,0,63,63,63,183.46322349994443,,,,,,,183.46322349994443,183.46322349994443,184.4520464000525,184.45631769998,184.45631769998,184.45631769998,184.45631769998,186.2260064999573,z,1.768730300012976,None,,,,,,,,,,PH_en,001,2025-03-09_21h00.12.769,MainFlow,2024.2.4,129.86709410753053,2025-03-09 21h00.20.204898 +0700,
2,1,11,word/worden0111.png,64,64,0,z,0.8814964001066983,None,0,64,64,64,186.23221569997258,,,,,,,186.23221569997258,186.23221569997258,187.21983389998786,187.22429719998036,187.22429719998036,187.22429719998036,187.22429719998036,188.10799819999374,z,0.8814964001066983,None,,,,,,,,,,PH_en,001,2025-03-09_21h00.12.769,MainFlow,2024.2.4,129.86709410753053,2025-03-09 21h00.20.204898 +0700,
2,3,70,word/worden0703.png,65,65,0,x,1.5710909999907017,None,0,65,65,65,188.11436580005102,,,,,,,188.11436580005102,188.11436580005102,189.1010830999585,189.10503880004399,189.10503880004399,189.10503880004399,189.10503880004399,190.6807052999502,x,1.5710909999907017,None,,,,,,,,,,PH_en,001,2025-03-09_21h00.12.769,MainFlow,2024.2.4,129.86709410753053,2025-03-09 21h00.20.204898 +0700,
2,3,71,word/worden0713.png,66,66,0,x,0.7468596999533474,None,0,66,66,66,190.68705800001044,,,,,,,190.68705800001044,190.68705800001044,191.67452740005683,191.67882769997232,191.67882769997232,191.67882769997232,191.67882769997232,192.43057409999892,x,0.7468596999533474,None,,,,,,,,,,PH_en,001,2025-03-09_21h00.12.769,MainFlow,2024.2.4,129.86709410753053,2025-03-09 21h00.20.204898 +0700,
2,1,68,word/worden0681.png,67,67,0,z,1.6178256999701262,None,0,67,67,67,192.43699750001542,,,,,,,192.43699750001542,192.43699750001542,193.4240638000192,193.42833320004866,193.42833320004866,193.42833320004866,193.42833320004866,195.05257900001016,z,1.6178256999701262,None,,,,,,,,,,PH_en,001,2025-03-09_21h00.12.769,MainFlow,2024.2.4,129.86709410753053,2025-03-09 21h00.20.204898 +0700,
2,2,88,word/worden0882.png,68,68,0,x,1.730521499994211,None,0,68,68,68,195.0590183000313,,,,,,,195.0590183000313,195.0590183000313,196.0474160000449,196.05155289999675,196.05155289999675,196.05155289999675,196.05155289999675,197.78292979998514,x,1.730521499994211,None,,,,,,,,,,PH_en,001,2025-03-09_21h00.12.769,MainFlow,2024.2.4,129.86709410753053,2025-03-09 21h00.20.204898 +0700,
2,2,50,word/worden0502.png,69,69,0,z,2.1565334999468178,None,0,69,69,69,197.7888035000069,,,,,,,197.7888035000069,197.7888035000069,198.77650669997092,198.78072309994604,198.78072309994604,198.78072309994604,198.78072309994604,200.93918780004606,z,2.1565334999468178,None,,,,,,,,,,PH_en,001,2025-03-09_21h00.12.769,MainFlow,2024.2.4,129.86709410753053,2025-03-09 21h00.20.204898 +0700,
2,3,93,word/worden0933.png,70,70,0,x,2.5350421000039205,None,0,70,70,70,200.9456014999887,,,,,,,200.9456014999887,200.9456014999887,201.93261220003478,201.93693119997624,201.93693119997624,201.93693119997624,201.93693119997624,204.47423110005911,x,2.5350421000039205,None,,,,,,,,,,PH_en,001,2025-03-09_21h00.12.769,MainFlow,2024.2.4,129.86709410753053,2025-03-09 21h00.20.204898 +0700,
2,1,63,word/worden0631.png,71,71,0,z,1.2359913000836968,None,0,71,71,71,204.48065160005353,,,,,,,204.48065160005353,204.48065160005353,205.46730540005956,205.47172240004875,205.47172240004875,205.47172240004875,205.47172240004875,206.71027070004493,z,1.2359913000836968,None,,,,,,,,,,PH_en,001,2025-03-09_21h00.12.769,MainFlow,2024.2.4,129.86709410753053,2025-03-09 21h00.20.204898 +0700,
2,2,7,word/worden0072.png,72,72,0,x,0.7291930000064895,None,0,72,72,72,206.7166732000187,,,,,,,206.7166732000187,206.7166732000187,207.704389099963,207.70871379994787,207.70871379994787,207.70871379994787,207.70871379994787,208.4432620999869,x,0.7291930000064895,None,,,,,,,,,,PH_en,001,2025-03-09_21h00.12.769,MainFlow,2024.2.4,129.86709410753053,2025-03-09 21h00.20.204898 +0700,
2,2,64,word/worden0642.png,73,73,0,x,0.666016299976036,None,0,73,73,73,208.4495067000389,,,,,,,208.4495067000389,208.4495067000389,209.4373807000229,209.44184990006033,209.44184990006033,209.44184990006033,209.44184990006033,210.10970010003075,x,0.666016299976036,None,,,,,,,,,,PH_en,001,2025-03-09_21h00.12.769,MainFlow,2024.2.4,129.86709410753053,2025-03-09 21h00.20.204898 +0700,
2,1,24,word/worden0241.png,74,74,0,z,1.7249581000069156,None,0,74,74,74,210.11612350004725,,,,,,,210.11612350004725,210.11612350004725,211.10370019997936,211.1082322000293,211.1082322000293,211.1082322000293,211.1082322000293,212.8390085999854,z,1.7249581000069156,None,,,,,,,,,,PH_en,001,2025-03-09_21h00.12.769,MainFlow,2024.2.4,129.86709410753053,2025-03-09 21h00.20.204898 +0700,
2,2,1,word/worden0012.png,75,75,0,x,0.7071135999867693,None,0,75,75,75,212.84542659996077,,,,,,,212.84542659996077,212.84542659996077,213.8323451000033,213.83648329996504,213.83648329996504,213.83648329996504,213.83648329996504,214.54769769997802,x,0.7071135999867693,None,,,,,,,,,,PH_en,001,2025-03-09_21h00.12.769,MainFlow,2024.2.4,129.86709410753053,2025-03-09 21h00.20.204898 +0700,
2,1,46,word/worden0461.png,76,76,0,z,1.4665523999137804,None,0,76,76,76,214.5535566000035,,,,,,,214.5535566000035,214.5535566000035,215.54255859996192,215.5466881999746,215.5466881999746,215.5466881999746,215.5466881999746,217.01988769997843,z,1.4665523999137804,None,,,,,,,,,,PH_en,001,2025-03-09_21h00.12.769,MainFlow,2024.2.4,129.86709410753053,2025-03-09 21h00.20.204898 +0700,
2,3,52,word/worden0523.png,77,77,0,x,1.1847907999763265,None,0,77,77,77,217.02699319995008,,,,,,,217.02699319995008,217.02699319995008,218.0158268000232,218.01985759998206,218.01985759998206,218.01985759998206,218.01985759998206,219.20888519997243,x,1.1847907999763265,None,,,,,,,,,,PH_en,001,2025-03-09_21h00.12.769,MainFlow,2024.2.4,129.86709410753053,2025-03-09 21h00.20.204898 +0700,
2,2,31,word/worden0312.png,78,78,0,x,0.5011722999624908,None,0,78,78,78,219.21532429999206,,,,,,,219.21532429999206,219.21532429999206,220.20371330005582,220.20773759996518,220.20773759996518,220.20773759996518,220.20773759996518,220.71621019998565,x,0.5011722999624908,None,,,,,,,,,,PH_en,001,2025-03-09_21h00.12.769,MainFlow,2024.2.4,129.86709410753053,2025-03-09 21h00.20.204898 +0700,
2,2,95,word/worden0952.png,79,79,0,x,4.250831700046547,None,0,79,79,79,220.72256809996907,,,,,,,220.72256809996907,220.72256809996907,221.7099950000411,221.71423170005437,221.71423170005437,221.71423170005437,221.71423170005437,225.9678617999889,x,4.250831700046547,None,,,,,,,,,,PH_en,001,2025-03-09_21h00.12.769,MainFlow,2024.2.4,129.86709410753053,2025-03-09 21h00.20.204898 +0700,
2,1,93,word/worden0931.png,80,80,0,z,1.6553329998860136,None,0,80,80,80,225.97405289998278,,,,,,,225.97405289998278,225.97405289998278,226.96103390003555,226.96507779997773,226.96507779997773,226.96507779997773,226.96507779997773,228.62726640002802,z,1.6553329998860136,None,,,,,,,,,,PH_en,001,2025-03-09_21h00.12.769,MainFlow,2024.2.4,129.86709410753053,2025-03-09 21h00.20.204898 +0700,
2,1,71,word/worden0711.png,81,81,0,z,1.2595982999773696,None,0,81,81,81,228.63369789998978,,,,,,,228.63369789998978,228.63369789998978,229.62183930003084,229.63058510003611,229.63058510003611,229.63058510003611,229.63058510003611,230.8949322999688,z,1.2595982999773696,None,,,,,,,,,,PH_en,001,2025-03-09_21h00.12.769,MainFlow,2024.2.4,129.86709410753053,2025-03-09 21h00.20.204898 +0700,
2,1,48,word/worden0481.png,82,82,0,z,1.089181000017561,None,0,82,82,82,230.9013667999534,,,,,,,230.9013667999534,230.9013667999534,231.88787490001414,231.89201289997436,231.89201289997436,231.89201289997436,231.89201289997436,232.9851487999549,z,1.089181000017561,None,,,,,,,,,,PH_en,001,2025-03-09_21h00.12.769,MainFlow,2024.2.4,129.86709410753053,2025-03-09 21h00.20.204898 +0700,
2,1,94,word/worden0941.png,83,83,0,x,2.22830720001366,None,0,83,83,83,232.99158709996846,,,,,,,232.99158709996846,232.99158709996846,233.97933799994644,233.98348179995082,233.98348179995082,233.98348179995082,233.98348179995082,236.21404520003125,x,2.22830720001366,None,,,,,,,,,,PH_en,001,2025-03-09_21h00.12.769,MainFlow,2024.2.4,129.86709410753053,2025-03-09 21h00.20.204898 +0700,
2,3,68,word/worden0683.png,84,84,0,x,0.9897143000271171,None,0,84,84,84,236.22069740004372,,,,,,,236.22069740004372,236.22069740004372,237.20801429997664,237.21216370002367,237.21216370002367,237.21216370002367,237.21216370002367,238.2071755999932,x,0.9897143000271171,None,,,,,,,,,,PH_en,001,2025-03-09_21h00.12.769,MainFlow,2024.2.4,129.86709410753053,2025-03-09 21h00.20.204898 +0700,
2,2,66,word/worden0662.png,85,85,0,x,0.8419675000477582,None,0,85,85,85,238.21362940000836,,,,,,,238.21362940000836,238.21362940000836,239.20091570005752,239.2051851999713,239.2051851999713,239.2051851999713,239.2051851999713,240.0541759999469,x,0.8419675000477582,None,,,,,,,,,,PH_en,001,2025-03-09_21h00.12.769,MainFlow,2024.2.4,129.86709410753053,2025-03-09 21h00.20.204898 +0700,
2,3,95,word/worden0953.png,86,86,0,x,0.6434060999890789,None,0,86,86,86,240.0604156999616,,,,,,,240.0604156999616,240.0604156999616,241.04935380001552,241.05361129995435,241.05361129995435,241.05361129995435,241.05361129995435,241.70085280004423,x,0.6434060999890789,None,,,,,,,,,,PH_en,001,2025-03-09_21h00.12.769,MainFlow,2024.2.4,129.86709410753053,2025-03-09 21h00.20.204898 +0700,
2,3,30,word/worden0303.png,87,87,0,x,0.8474179999902844,None,0,87,87,87,241.7072990000015,,,,,,,241.7072990000015,241.7072990000015,242.6959298000438,242.7000433000503,242.7000433000503,242.7000433000503,242.7000433000503,243.54867140005808,x,0.8474179999902844,None,,,,,,,,,,PH_en,001,2025-03-09_21h00.12.769,MainFlow,2024.2.4,129.86709410753053,2025-03-09 21h00.20.204898 +0700,
2,3,22,word/worden0223.png,88,88,0,x,0.7516791999805719,None,0,88,88,88,243.55528590001632,,,,,,,243.55528590001632,243.55528590001632,244.54287989996374,244.54677380004432,244.54677380004432,244.54677380004432,244.54677380004432,245.29951379995327,x,0.7516791999805719,None,,,,,,,,,,PH_en,001,2025-03-09_21h00.12.769,MainFlow,2024.2.4,129.86709410753053,2025-03-09 21h00.20.204898 +0700,
2,1,75,word/worden0751.png,89,89,0,x,2.4865952999098226,None,0,89,89,89,245.3055852999678,,,,,,,245.3055852999678,245.3055852999678,246.2928712000139,246.29722810001113,246.29722810001113,246.29722810001113,246.29722810001113,248.7855066000484,x,2.4865952999098226,None,,,,,,,,,,PH_en,001,2025-03-09_21h00.12.769,MainFlow,2024.2.4,129.86709410753053,2025-03-09 21h00.20.204898 +0700,
2,1,64,word/worden0641.png,90,90,0,z,1.7738462999695912,None,0,90,90,90,248.7920511000557,,,,,,,248.7920511000557,248.7920511000557,249.7807689999463,249.78506220004056,249.78506220004056,249.78506220004056,249.78506220004056,251.5643785999855,z,1.7738462999695912,None,,,,,,,,,,PH_en,001,2025-03-09_21h00.12.769,MainFlow,2024.2.4,129.86709410753053,2025-03-09 21h00.20.204898 +0700,
2,1,27,word/worden0271.png,91,91,0,z,1.1605728999711573,None,0,91,91,91,251.57029659999534,,,,,,,251.57029659999534,251.57029659999534,252.55955959996209,252.56361029995605,252.56361029995605,252.56361029995605,252.56361029995605,253.72506980004255,z,1.1605728999711573,None,,,,,,,,,,PH_en,001,2025-03-09_21h00.12.769,MainFlow,2024.2.4,129.86709410753053,2025-03-09 21h00.20.204898 +0700,
2,2,24,word/worden0242.png,92,92,0,x,1.8755309999687597,None,0,92,92,92,253.731325599947,,,,,,,253.731325599947,253.731325599947,254.72001679998357,254.72392999997828,254.72392999997828,254.72392999997828,254.72392999997828,256.6006903999951,x,1.8755309999687597,None,,,,,,,,,,PH_en,001,2025-03-09_21h00.12.769,MainFlow,2024.2.4,129.86709410753053,2025-03-09 21h00.20.204898 +0700,
2,1,87,word/worden0871.png,93,93,0,z,2.100109599996358,None,0,93,93,93,256.6069380999543,,,,,,,256.6069380999543,256.6069380999543,257.5954153999919,257.59988430002704,257.59988430002704,257.59988430002704,257.59988430002704,259.7054820000194,z,2.100109599996358,None,,,,,,,,,,PH_en,001,2025-03-09_21h00.12.769,MainFlow,2024.2.4,129.86709410753053,2025-03-09 21h00.20.204898 +0700,
2,1,7,word/worden0071.png,94,94,0,z,0.8053112999768928,None,0,94,94,94,259.71189290005714,,,,,,,259.71189290005714,259.71189290005714,260.7006226000376,260.7050717000384,260.7050717000384,260.7050717000384,260.7050717000384,261.51211889996193,z,0.8053112999768928,None,,,,,,,,,,PH_en,001,2025-03-09_21h00.12.769,MainFlow,2024.2.4,129.86709410753053,2025-03-09 21h00.20.204898 +0700,
2,2,9,word/worden0092.png,95,95,0,x,1.191794199985452,None,0,95,95,95,261.518588499981,,,,,,,261.518588499981,261.518588499981,262.5052760000108,262.509136699955,262.509136699955,262.509136699955,262.509136699955,263.7066056999611,x,1.191794199985452,None,,,,,,,,,,PH_en,001,2025-03-09_21h00.12.769,MainFlow,2024.2.4,129.86709410753053,2025-03-09 21h00.20.204898 +0700,
2,1,44,word/worden0441.png,96,96,0,z,0.9918551000300795,None,0,96,96,96,263.71299120003823,,,,,,,263.71299120003823,263.71299120003823,264.70031690003816,264.7045124999713,264.7045124999713,264.7045124999713,264.7045124999713,265.6996067999862,z,0.9918551000300795,None,,,,,,,,,,PH_en,001,2025-03-09_21h00.12.769,MainFlow,2024.2.4,129.86709410753053,2025-03-09 21h00.20.204898 +0700,
2,2,10,word/worden0102.png,97,97,0,x,0.803304799948819,None,0,97,97,97,265.7060338000301,,,,,,,265.7060338000301,265.7060338000301,266.6941707000369,266.6981945000589,266.6981945000589,266.6981945000589,266.6981945000589,267.50530119996984,x,0.803304799948819,None,,,,,,,,,,PH_en,001,2025-03-09_21h00.12.769,MainFlow,2024.2.4,129.86709410753053,2025-03-09 21h00.20.204898 +0700,
2,2,82,word/worden0822.png,98,98,0,x,1.039050200022757,None,0,98,98,98,267.5117443000199,,,,,,,267.5117443000199,267.5117443000199,268.49896710005123,268.5030371999601,268.5030371999601,268.5030371999601,268.5030371999601,269.5467294000555,x,1.039050200022757,None,,,,,,,,,,PH_en,001,2025-03-09_21h00.12.769,MainFlow,2024.2.4,129.86709410753053,2025-03-09 21h00.20.204898 +0700,
2,3,89,word/worden0893.png,99,99,0,x,0.7325683999806643,None,0,99,99,99,269.55315359996166,,,,,,,269.55315359996166,269.55315359996166,270.540703900042,270.54489739995915,270.54489739995915,270.54489739995915,270.54489739995915,271.28311399999075,x,0.7325683999806643,None,,,,,,,,,,PH_en,001,2025-03-09_21h00.12.769,MainFlow,2024.2.4,129.86709410753053,2025-03-09 21h00.20.204898 +0700,
2,2,44,word/worden0442.png,100,100,0,x,0.6324513000436127,None,0,100,100,100,271.2895503999898,,,,,,,271.2895503999898,271.2895503999898,272.27637810003944,272.28051539999433,272.28051539999433,272.28051539999433,272.28051539999433,272.914664800046,x,0.6324513000436127,None,,,,,,,,,,PH_en,001,2025-03-09_21h00.12.769,MainFlow,2024.2.4,129.86709410753053,2025-03-09 21h00.20.204898 +0700,
2,1,52,word/worden0521.png,101,101,0,x,2.305257000029087,None,0,101,101,101,272.9212548000505,,,,,,,272.9212548000505,272.9212548000505,273.9085317000281,273.91256540000904,273.91256540000904,273.91256540000904,273.91256540000904,276.22017830004916,x,2.305257000029087,None,,,,,,,,,,PH_en,001,2025-03-09_21h00.12.769,MainFlow,2024.2.4,129.86709410753053,2025-03-09 21h00.20.204898 +0700,
2,1,51,word/worden0511.png,102,102,0,x,1.8198291000444442,None,0,102,102,102,276.2269277999876,,,,,,,276.2269277999876,276.2269277999876,277.2153897000244,277.21938549994957,277.21938549994957,277.21938549994957,277.21938549994957,279.0404715000186,x,1.8198291000444442,None,,,,,,,,,,PH_en,001,2025-03-09_21h00.12.769,MainFlow,2024.2.4,129.86709410753053,2025-03-09 21h00.20.204898 +0700,
2,3,51,word/worden0513.png,103,103,0,x,0.8315680000232533,None,0,103,103,103,279.04680969996843,,,,,,,279.04680969996843,279.04680969996843,280.03375249996316,280.0378771000542,280.0378771000542,280.0378771000542,280.0378771000542,280.8737715999596,x,0.8315680000232533,None,,,,,,,,,,PH_en,001,2025-03-09_21h00.12.769,MainFlow,2024.2.4,129.86709410753053,2025-03-09 21h00.20.204898 +0700,
2,2,8,word/worden0082.png,104,104,0,x,0.6360031000804156,None,0,104,104,104,280.8801653999835,,,,,,,280.8801653999835,280.8801653999835,281.8695927000372,281.8737498000264,281.8737498000264,281.8737498000264,281.8737498000264,282.51430529996287,x,0.6360031000804156,None,,,,,,,,,,PH_en,001,2025-03-09_21h00.12.769,MainFlow,2024.2.4,129.86709410753053,2025-03-09 21h00.20.204898 +0700,
2,2,3,word/worden0032.png,105,105,0,x,0.42195340001489967,None,0,105,105,105,282.52052799996454,,,,,,,282.52052799996454,282.52052799996454,283.5077416000422,283.51243190001696,283.51243190001696,283.51243190001696,283.51243190001696,283.9377126999898,x,0.42195340001489967,None,,,,,,,,,,PH_en,001,2025-03-09_21h00.12.769,MainFlow,2024.2.4,129.86709410753053,2025-03-09 21h00.20.204898 +0700,
2,3,3,word/worden0033.png,106,106,0,x,0.6148402999388054,None,0,106,106,106,283.9441829000134,,,,,,,283.9441829000134,283.9441829000134,284.93106400000397,284.93494369997643,284.93494369997643,284.93494369997643,284.93494369997643,285.5557412999915,x,0.6148402999388054,None,,,,,,,,,,PH_en,001,2025-03-09_21h00.12.769,MainFlow,2024.2.4,129.86709410753053,2025-03-09 21h00.20.204898 +0700,
2,3,64,word/worden0643.png,107,107,0,x,0.7221305000130087,None,0,107,107,107,285.56163060001563,,,,,,,285.56163060001563,285.56163060001563,286.54923859995324,286.553416699986,286.553416699986,286.553416699986,286.553416699986,287.2781471000053,x,0.7221305000130087,None,,,,,,,,,,PH_en,001,2025-03-09_21h00.12.769,MainFlow,2024.2.4,129.86709410753053,2025-03-09 21h00.20.204898 +0700,
2,3,26,word/worden0263.png,108,108,0,x,0.6801840000553057,None,0,108,108,108,287.2845071000047,,,,,,,287.2845071000047,287.2845071000047,288.2711767000146,288.2753073000349,288.2753073000349,288.2753073000349,288.2753073000349,288.95841820002533,x,0.6801840000553057,None,,,,,,,,,,PH_en,001,2025-03-09_21h00.12.769,MainFlow,2024.2.4,129.86709410753053,2025-03-09 21h00.20.204898 +0700,
2,2,96,word/worden0962.png,109,109,0,x,0.7100815000012517,None,0,109,109,109,288.9648946999805,,,,,,,288.9648946999805,288.9648946999805,289.9519211000297,289.9560611000052,289.9560611000052,289.9560611000052,289.9560611000052,290.66702609998174,x,0.7100815000012517,None,,,,,,,,,,PH_en,001,2025-03-09_21h00.12.769,MainFlow,2024.2.4,129.86709410753053,2025-03-09 21h00.20.204898 +0700,
2,1,22,word/worden0221.png,110,110,0,z,1.3373024999164045,None,0,110,110,110,290.67294189997483,,,,,,,290.67294189997483,290.67294189997483,291.660202799947,291.6639535999857,291.6639535999857,291.6639535999857,291.6639535999857,293.0069745000219,z,1.3373024999164045,None,,,,,,,,,,PH_en,001,2025-03-09_21h00.12.769,MainFlow,2024.2.4,129.86709410753053,2025-03-09 21h00.20.204898 +0700,
2,2,22,word/worden0222.png,111,111,0,x,1.057728199986741,None,0,111,111,111,293.01347700005863,,,,,,,293.01347700005863,293.01347700005863,294.000431100023,294.0042769999709,294.0042769999709,294.0042769999709,294.0042769999709,295.06310759996995,x,1.057728199986741,None,,,,,,,,,,PH_en,001,2025-03-09_21h00.12.769,MainFlow,2024.2.4,129.86709410753053,2025-03-09 21h00.20.204898 +0700,
2,2,26,word/worden0262.png,112,112,0,x,0.8375088999746367,None,0,112,112,112,295.068654499948,,,,,,,295.068654499948,295.068654499948,296.055772599997,296.0597824000288,296.0597824000288,296.0597824000288,296.0597824000288,296.902690900024,x,0.8375088999746367,None,,,,,,,,,,PH_en,001,2025-03-09_21h00.12.769,MainFlow,2024.2.4,129.86709410753053,2025-03-09 21h00.20.204898 +0700,
2,3,48,word/worden0483.png,113,113,0,x,0.845887599978596,None,0,113,113,113,296.90908060001675,,,,,,,296.90908060001675,296.90908060001675,297.8976977999555,297.9016555000562,297.9016555000562,297.9016555000562,297.9016555000562,298.75028439995367,x,0.845887599978596,None,,,,,,,,,,PH_en,001,2025-03-09_21h00.12.769,MainFlow,2024.2.4,129.86709410753053,2025-03-09 21h00.20.204898 +0700,
2,2,87,word/worden0872.png,114,114,0,x,1.147321299999021,None,0,114,114,114,298.75669619999826,,,,,,,298.75669619999826,298.75669619999826,299.7458627000451,299.75020430004224,299.75020430004224,299.75020430004224,299.75020430004224,300.904321399983,x,1.147321299999021,None,,,,,,,,,,PH_en,001,2025-03-09_21h00.12.769,MainFlow,2024.2.4,129.86709410753053,2025-03-09 21h00.20.204898 +0700,
2,1,10,word/worden0101.png,115,115,0,z,1.2053678000811487,None,0,115,115,115,300.91075040004216,,,,,,,300.91075040004216,300.91075040004216,301.8996395999566,301.90815070003737,301.90815070003737,301.90815070003737,301.90815070003737,303.11717290000524,z,1.2053678000811487,None,,,,,,,,,,PH_en,001,2025-03-09_21h00.12.769,MainFlow,2024.2.4,129.86709410753053,2025-03-09 21h00.20.204898 +0700,
2,3,8,word/worden0083.png,116,116,0,x,0.8160343000199646,None,0,116,116,116,303.12349689996336,,,,,,,303.12349689996336,303.12349689996336,304.1092659999849,304.1177806999767,304.1177806999767,304.1177806999767,304.1177806999767,304.93636659998447,x,0.8160343000199646,None,,,,,,,,,,PH_en,001,2025-03-09_21h00.12.769,MainFlow,2024.2.4,129.86709410753053,2025-03-09 21h00.20.204898 +0700,
2,3,94,word/worden0943.png,117,117,0,x,0.7968055999372154,None,0,117,117,117,304.94280269998126,,,,,,,304.94280269998126,304.94280269998126,305.93285780004226,305.9375016000122,305.9375016000122,305.9375016000122,305.9375016000122,306.7394686000189,x,0.7968055999372154,None,,,,,,,,,,PH_en,001,2025-03-09_21h00.12.769,MainFlow,2024.2.4,129.86709410753053,2025-03-09 21h00.20.204898 +0700,
2,2,11,word/worden0112.png,118,118,0,x,0.4282514000078663,None,0,118,118,118,306.7462568000192,,,,,,,306.7462568000192,306.7462568000192,307.73572899994906,307.74096069997177,307.74096069997177,307.74096069997177,307.74096069997177,308.1727440999821,x,0.4282514000078663,None,,,,,,,,,,PH_en,001,2025-03-09_21h00.12.769,MainFlow,2024.2.4,129.86709410753053,2025-03-09 21h00.20.204898 +0700,
2,3,24,word/worden0243.png,119,119,0,x,0.6347028000745922,None,0,119,119,119,308.17896469996776,,,,,,,308.17896469996776,308.17896469996776,309.1654797999654,309.1694663000526,309.1694663000526,309.1694663000526,309.1694663000526,309.81136589997914,x,0.6347028000745922,None,,,,,,,,,,PH_en,001,2025-03-09_21h00.12.769,MainFlow,2024.2.4,129.86709410753053,2025-03-09 21h00.20.204898 +0700,
,,,,,,,,,,,,,,,,,,,,,,,,,,,,,,,,,,309.81145100004505,309.81782859994564,309.81782859994564,316.797142000054,space,6.978139500017278,None,PH_en,001,2025-03-09_21h00.12.769,MainFlow,2024.2.4,129.86709410753053,2025-03-09 21h00.20.204898 +0700,
