lang,stimuli,imageid,worddir,thisN,thisTrialN,thisRepN,key_resp.keys,key_resp.rt,key_resp.duration,trials.thisRepN,trials.thisTrialN,trials.thisN,trials.thisIndex,thisRow.t,notes,tutorial.started,tutorial.stopped,key_instruct.keys,key_instruct.rt,key_instruct.duration,instructblank.started,cross1.started,letterselect.started,imageword.started,text_2.started,cross2.started,key_resp.started,letterselect.stopped,trials.key_resp.keys,trials.key_resp.rt,trials.key_resp.duration,ending.started,text_3.started,ending_key.started,ending.stopped,ending_key.keys,ending_key.rt,ending_key.duration,participant,session,date,expName,psychopyVersion,frameRate,expStart,
,,,,,,,,,,,,,,,,0.004042000000481494,3.148499900002207,space,3.1195564000008744,None,,,,,,,,,,,,,,,,,,,PN_th,001,2025-03-14_19h26.37.307,MainFlow,2024.2.4,144.45689984404805,2025-03-14 19h26.47.134840 +0700,
1,3,89,word/wordth0893.png,0,0,0,x,2.6418613999994704,None,0,0,0,0,3.180617500001972,,,,,,,3.180617500001972,3.180617500001972,4.16226650000317,4.174812200006272,4.174812200006272,4.174812200006272,4.174812200006272,6.8237205000041286,x,2.6418613999994704,None,,,,,,,,PN_th,001,2025-03-14_19h26.37.307,MainFlow,2024.2.4,144.45689984404805,2025-03-14 19h26.47.134840 +0700,
1,3,28,word/wordth0283.png,1,1,0,x,1.3865163000009488,None,0,1,1,1,6.830045599999721,,,,,,,6.830045599999721,6.830045599999721,7.821409399999538,7.831124300006195,7.831124300006195,7.831124300006195,7.831124300006195,9.222012000005634,x,1.3865163000009488,None,,,,,,,,PN_th,001,2025-03-14_19h26.37.307,MainFlow,2024.2.4,144.45689984404805,2025-03-14 19h26.47.134840 +0700,
1,2,87,word/wordth0872.png,2,2,0,x,4.492339299999003,None,0,2,2,2,9.228317400004016,,,,,,,9.228317400004016,9.228317400004016,10.218714300004649,10.229322600003798,10.229322600003798,10.229322600003798,10.229322600003798,14.727350100001786,x,4.492339299999003,None,,,,,,,,PN_th,001,2025-03-14_19h26.37.307,MainFlow,2024.2.4,144.45689984404805,2025-03-14 19h26.47.134840 +0700,
1,2,68,word/wordth0682.png,3,3,0,x,1.171838200003549,None,0,3,3,3,14.733797600005346,,,,,,,14.733797600005346,14.733797600005346,15.723718200002622,15.734810699999798,15.734810699999798,15.734810699999798,15.734810699999798,16.910202999999456,x,1.171838200003549,None,,,,,,,,PN_th,001,2025-03-14_19h26.37.307,MainFlow,2024.2.4,144.45689984404805,2025-03-14 19h26.47.134840 +0700,
1,2,11,word/wordth0112.png,4,4,0,x,1.0610874999983935,None,0,4,4,4,16.91654080000444,,,,,,,16.91654080000444,16.91654080000444,17.906918000000587,17.91756069999974,17.91756069999974,17.91756069999974,17.91756069999974,18.98161390000314,x,1.0610874999983935,None,,,,,,,,PN_th,001,2025-03-14_19h26.37.307,MainFlow,2024.2.4,144.45689984404805,2025-03-14 19h26.47.134840 +0700,
1,3,11,word/wordth0113.png,5,5,0,x,3.1816630000030273,None,0,5,5,5,18.988052900000184,,,,,,,18.988052900000184,18.988052900000184,19.9776520000014,19.989061300002504,19.989061300002504,19.989061300002504,19.989061300002504,23.173296500004653,x,3.1816630000030273,None,,,,,,,,PN_th,001,2025-03-14_19h26.37.307,MainFlow,2024.2.4,144.45689984404805,2025-03-14 19h26.47.134840 +0700,
1,2,71,word/wordth0712.png,6,6,0,x,0.8707152999995742,None,0,6,6,6,23.179719400002796,,,,,,,23.179719400002796,23.179719400002796,24.16828190000524,24.17294110000512,24.17294110000512,24.17294110000512,24.17294110000512,25.050115400001232,x,0.8707152999995742,None,,,,,,,,PN_th,001,2025-03-14_19h26.37.307,MainFlow,2024.2.4,144.45689984404805,2025-03-14 19h26.47.134840 +0700,
1,3,44,word/wordth0443.png,7,7,0,x,2.8498449999970035,None,0,7,7,7,25.056599700001243,,,,,,,25.056599700001243,25.056599700001243,26.04508490000444,26.04981360000238,26.04981360000238,26.04981360000238,26.04981360000238,28.901293599999917,x,2.8498449999970035,None,,,,,,,,PN_th,001,2025-03-14_19h26.37.307,MainFlow,2024.2.4,144.45689984404805,2025-03-14 19h26.47.134840 +0700,
1,2,82,word/wordth0822.png,8,8,0,x,0.8389774999959627,None,0,8,8,8,28.907662600002368,,,,,,,28.907662600002368,28.907662600002368,29.89744050000445,29.908676600003673,29.908676600003673,29.908676600003673,29.908676600003673,30.750293400000373,x,0.8389774999959627,None,,,,,,,,PN_th,001,2025-03-14_19h26.37.307,MainFlow,2024.2.4,144.45689984404805,2025-03-14 19h26.47.134840 +0700,
1,2,28,word/wordth0282.png,9,9,0,x,1.0787151000040467,None,0,9,9,9,30.75673480000114,,,,,,,30.75673480000114,30.75673480000114,31.745346400006383,31.74993870000617,31.74993870000617,31.74993870000617,31.74993870000617,32.835735799999384,x,1.0787151000040467,None,,,,,,,,PN_th,001,2025-03-14_19h26.37.307,MainFlow,2024.2.4,144.45689984404805,2025-03-14 19h26.47.134840 +0700,
1,1,23,word/wordth0231.png,10,10,0,z,1.0495100000043749,None,0,10,10,10,32.842126800002006,,,,,,,32.842126800002006,32.842126800002006,33.83307140000397,33.84314660000382,33.84314660000382,33.84314660000382,33.84314660000382,34.89349810000567,z,1.0495100000043749,None,,,,,,,,PN_th,001,2025-03-14_19h26.37.307,MainFlow,2024.2.4,144.45689984404805,2025-03-14 19h26.47.134840 +0700,
1,2,63,word/wordth0632.png,11,11,0,x,1.7278928000014275,None,0,11,11,11,34.89975950000371,,,,,,,34.89975950000371,34.89975950000371,35.88954480000393,35.90076290000434,35.90076290000434,35.90076290000434,35.90076290000434,37.63222880000103,x,1.7278928000014275,None,,,,,,,,PN_th,001,2025-03-14_19h26.37.307,MainFlow,2024.2.4,144.45689984404805,2025-03-14 19h26.47.134840 +0700,
1,3,71,word/wordth0713.png,12,12,0,x,2.5821620999995503,None,0,12,12,12,37.638607700006105,,,,,,,37.638607700006105,37.638607700006105,38.6284472000043,38.63948710000113,38.63948710000113,38.63948710000113,38.63948710000113,41.22611540000071,x,2.5821620999995503,None,,,,,,,,PN_th,001,2025-03-14_19h26.37.307,MainFlow,2024.2.4,144.45689984404805,2025-03-14 19h26.47.134840 +0700,
1,1,1,word/wordth0011.png,13,13,0,z,0.8432945999957155,None,0,13,13,13,41.232463400003326,,,,,,,41.232463400003326,41.232463400003326,42.2201772000044,42.226357900006406,42.226357900006406,42.226357900006406,42.226357900006406,43.075036000002,z,0.8432945999957155,None,,,,,,,,PN_th,001,2025-03-14_19h26.37.307,MainFlow,2024.2.4,144.45689984404805,2025-03-14 19h26.47.134840 +0700,
1,3,41,word/wordth0413.png,14,14,0,x,1.2188909999968018,None,0,14,14,14,43.081536000005144,,,,,,,43.081536000005144,43.081536000005144,44.07017920000362,44.07475250000425,44.07475250000425,44.07475250000425,44.07475250000425,45.29956850000599,x,1.2188909999968018,None,,,,,,,,PN_th,001,2025-03-14_19h26.37.307,MainFlow,2024.2.4,144.45689984404805,2025-03-14 19h26.47.134840 +0700,
1,2,64,word/wordth0642.png,15,15,0,x,1.3875365999992937,None,0,15,15,15,45.30595250000624,,,,,,,45.30595250000624,45.30595250000624,46.29430069999944,46.29917520000163,46.29917520000163,46.29917520000163,46.29917520000163,47.69109440000466,x,1.3875365999992937,None,,,,,,,,PN_th,001,2025-03-14_19h26.37.307,MainFlow,2024.2.4,144.45689984404805,2025-03-14 19h26.47.134840 +0700,
1,3,6,word/wordth0063.png,16,16,0,x,1.2123992999986513,None,0,16,16,16,47.69722690000344,,,,,,,47.69722690000344,47.69722690000344,48.687369500003115,48.6982468999995,48.6982468999995,48.6982468999995,48.6982468999995,49.91528280000057,x,1.2123992999986513,None,,,,,,,,PN_th,001,2025-03-14_19h26.37.307,MainFlow,2024.2.4,144.45689984404805,2025-03-14 19h26.47.134840 +0700,
1,2,31,word/wordth0312.png,17,17,0,x,0.939940000003844,None,0,17,17,17,49.9216904000059,,,,,,,49.9216904000059,49.9216904000059,50.911524400005874,50.92271000000619,50.92271000000619,50.92271000000619,50.92271000000619,51.86854210000456,x,0.939940000003844,None,,,,,,,,PN_th,001,2025-03-14_19h26.37.307,MainFlow,2024.2.4,144.45689984404805,2025-03-14 19h26.47.134840 +0700,
1,1,46,word/wordth0461.png,18,18,0,z,0.5786595000026864,None,0,18,18,18,51.87502610000229,,,,,,,51.87502610000229,51.87502610000229,52.86536360000173,52.87601949999953,52.87601949999953,52.87601949999953,52.87601949999953,53.46034750000399,z,0.5786595000026864,None,,,,,,,,PN_th,001,2025-03-14_19h26.37.307,MainFlow,2024.2.4,144.45689984404805,2025-03-14 19h26.47.134840 +0700,
1,3,51,word/wordth0513.png,19,19,0,x,0.6995526000027894,None,0,19,19,19,53.4669034000035,,,,,,,53.4669034000035,53.4669034000035,54.45516730000236,54.460101399999985,54.460101399999985,54.460101399999985,54.460101399999985,55.16357390000485,x,0.6995526000027894,None,,,,,,,,PN_th,001,2025-03-14_19h26.37.307,MainFlow,2024.2.4,144.45689984404805,2025-03-14 19h26.47.134840 +0700,
1,2,26,word/wordth0262.png,20,20,0,x,0.8046775000038906,None,0,20,20,20,55.16987700000027,,,,,,,55.16987700000027,55.16987700000027,56.15948780000326,56.170978599999216,56.170978599999216,56.170978599999216,56.170978599999216,56.977823300003365,x,0.8046775000038906,None,,,,,,,,PN_th,001,2025-03-14_19h26.37.307,MainFlow,2024.2.4,144.45689984404805,2025-03-14 19h26.47.134840 +0700,
1,2,96,word/wordth0962.png,21,21,0,x,1.006363299995428,None,0,21,21,21,56.98434660000203,,,,,,,56.98434660000203,56.98434660000203,57.97472390000621,57.9852916000018,57.9852916000018,57.9852916000018,57.9852916000018,58.99385710000206,x,1.006363299995428,None,,,,,,,,PN_th,001,2025-03-14_19h26.37.307,MainFlow,2024.2.4,144.45689984404805,2025-03-14 19h26.47.134840 +0700,
1,1,31,word/wordth0311.png,22,22,0,z,0.6384502000000793,None,0,22,22,22,59.00020990000485,,,,,,,59.00020990000485,59.00020990000485,59.990659800001595,60.001200400001835,60.001200400001835,60.001200400001835,60.001200400001835,60.641239000004134,z,0.6384502000000793,None,,,,,,,,PN_th,001,2025-03-14_19h26.37.307,MainFlow,2024.2.4,144.45689984404805,2025-03-14 19h26.47.134840 +0700,
1,2,94,word/wordth0942.png,23,23,0,x,1.8559917000020505,None,0,23,23,23,60.64766750000126,,,,,,,60.64766750000126,60.64766750000126,61.637726799999655,61.64866550000443,61.64866550000443,61.64866550000443,61.64866550000443,63.50538420000521,x,1.8559917000020505,None,,,,,,,,PN_th,001,2025-03-14_19h26.37.307,MainFlow,2024.2.4,144.45689984404805,2025-03-14 19h26.47.134840 +0700,
1,3,48,word/wordth0483.png,24,24,0,x,0.7600108000042383,None,0,24,24,24,63.51165089999995,,,,,,,63.51165089999995,63.51165089999995,64.50158970000484,64.51263710000057,64.51263710000057,64.51263710000057,64.51263710000057,65.27779610000289,x,0.7600108000042383,None,,,,,,,,PN_th,001,2025-03-14_19h26.37.307,MainFlow,2024.2.4,144.45689984404805,2025-03-14 19h26.47.134840 +0700,
1,3,24,word/wordth0243.png,25,25,0,x,0.7714113000038196,None,0,25,25,25,65.28423830000247,,,,,,,65.28423830000247,65.28423830000247,66.27467590000015,66.28523970000242,66.28523970000242,66.28523970000242,66.28523970000242,67.05739590000303,x,0.7714113000038196,None,,,,,,,,PN_th,001,2025-03-14_19h26.37.307,MainFlow,2024.2.4,144.45689984404805,2025-03-14 19h26.47.134840 +0700,
1,1,87,word/wordth0871.png,26,26,0,z,0.7288788999940152,None,0,26,26,26,67.06378740000218,,,,,,,67.06378740000218,67.06378740000218,68.05316149999999,68.06477080000332,68.06477080000332,68.06477080000332,68.06477080000332,68.79520250000496,z,0.7288788999940152,None,,,,,,,,PN_th,001,2025-03-14_19h26.37.307,MainFlow,2024.2.4,144.45689984404805,2025-03-14 19h26.47.134840 +0700,
1,2,51,word/wordth0512.png,27,27,0,x,0.9188081000029342,None,0,27,27,27,68.80163020000327,,,,,,,68.80163020000327,68.80163020000327,69.78989960000035,69.79485160000331,69.79485160000331,69.79485160000331,69.79485160000331,70.72081769999932,x,0.9188081000029342,None,,,,,,,,PN_th,001,2025-03-14_19h26.37.307,MainFlow,2024.2.4,144.45689984404805,2025-03-14 19h26.47.134840 +0700,
1,3,27,word/wordth0273.png,28,28,0,x,0.7454887999992934,None,0,28,28,28,70.727160800001,,,,,,,70.727160800001,70.727160800001,71.71764290000283,71.72816310000053,71.72816310000053,71.72816310000053,71.72816310000053,72.47933449999982,x,0.7454887999992934,None,,,,,,,,PN_th,001,2025-03-14_19h26.37.307,MainFlow,2024.2.4,144.45689984404805,2025-03-14 19h26.47.134840 +0700,
1,2,22,word/wordth0222.png,29,29,0,x,0.9947838000007323,None,0,29,29,29,72.48586660000001,,,,,,,72.48586660000001,72.48586660000001,73.47551500000554,73.48689179999928,73.48689179999928,73.48689179999928,73.48689179999928,74.48831900000368,x,0.9947838000007323,None,,,,,,,,PN_th,001,2025-03-14_19h26.37.307,MainFlow,2024.2.4,144.45689984404805,2025-03-14 19h26.47.134840 +0700,
1,3,23,word/wordth0233.png,30,30,0,x,1.6428444999983185,None,0,30,30,30,74.4948027000064,,,,,,,74.4948027000064,74.4948027000064,75.48495580000599,75.49581870000111,75.49581870000111,75.49581870000111,75.49581870000111,77.14391780000005,x,1.6428444999983185,None,,,,,,,,PN_th,001,2025-03-14_19h26.37.307,MainFlow,2024.2.4,144.45689984404805,2025-03-14 19h26.47.134840 +0700,
1,1,48,word/wordth0481.png,31,31,0,z,0.843411499998183,None,0,31,31,31,77.15021810000326,,,,,,,77.15021810000326,77.15021810000326,78.1406483000028,78.15124330000253,78.15124330000253,78.15124330000253,78.15124330000253,78.99998960000084,z,0.843411499998183,None,,,,,,,,PN_th,001,2025-03-14_19h26.37.307,MainFlow,2024.2.4,144.45689984404805,2025-03-14 19h26.47.134840 +0700,
1,2,10,word/wordth0102.png,32,32,0,x,0.9554228999986663,None,0,32,32,32,79.00623530000303,,,,,,,79.00623530000303,79.00623530000303,79.9963024000026,80.00723030000518,80.00723030000518,80.00723030000518,80.00723030000518,80.96713420000015,x,0.9554228999986663,None,,,,,,,,PN_th,001,2025-03-14_19h26.37.307,MainFlow,2024.2.4,144.45689984404805,2025-03-14 19h26.47.134840 +0700,
1,3,64,word/wordth0643.png,33,33,0,x,2.17315470000176,None,0,33,33,33,80.9734882000048,,,,,,,80.9734882000048,80.9734882000048,81.96355179999955,81.97450140000001,81.97450140000001,81.97450140000001,81.97450140000001,84.1507297000062,x,2.17315470000176,None,,,,,,,,PN_th,001,2025-03-14_19h26.37.307,MainFlow,2024.2.4,144.45689984404805,2025-03-14 19h26.47.134840 +0700,
1,3,22,word/wordth0223.png,34,34,0,x,0.6054126999952132,None,0,34,34,34,84.15720870000223,,,,,,,84.15720870000223,84.15720870000223,85.1473576999997,85.15824350000184,85.15824350000184,85.15824350000184,85.15824350000184,85.77049740000075,x,0.6054126999952132,None,,,,,,,,PN_th,001,2025-03-14_19h26.37.307,MainFlow,2024.2.4,144.45689984404805,2025-03-14 19h26.47.134840 +0700,
1,1,42,word/wordth0421.png,35,35,0,z,0.7137701000028756,None,0,35,35,35,85.77690790000634,,,,,,,85.77690790000634,85.77690790000634,86.76698469999974,86.77791409999918,86.77791409999918,86.77791409999918,86.77791409999918,87.49443570000585,z,0.7137701000028756,None,,,,,,,,PN_th,001,2025-03-14_19h26.37.307,MainFlow,2024.2.4,144.45689984404805,2025-03-14 19h26.47.134840 +0700,
1,2,1,word/wordth0012.png,36,36,0,x,2.2378056999950786,None,0,36,36,36,87.50083630000154,,,,,,,87.50083630000154,87.50083630000154,88.49050600000191,88.50184910000098,88.50184910000098,88.50184910000098,88.50184910000098,90.74080160000449,x,2.2378056999950786,None,,,,,,,,PN_th,001,2025-03-14_19h26.37.307,MainFlow,2024.2.4,144.45689984404805,2025-03-14 19h26.47.134840 +0700,
1,1,82,word/wordth0821.png,37,37,0,z,1.0005166999981157,None,0,37,37,37,90.74713310000516,,,,,,,90.74713310000516,90.74713310000516,91.73707140000624,91.74813379999978,91.74813379999978,91.74813379999978,91.74813379999978,92.74966480000148,z,1.0005166999981157,None,,,,,,,,PN_th,001,2025-03-14_19h26.37.307,MainFlow,2024.2.4,144.45689984404805,2025-03-14 19h26.47.134840 +0700,
1,2,3,word/wordth0032.png,38,38,0,x,1.095603600006143,None,0,38,38,38,92.756077500002,,,,,,,92.756077500002,92.756077500002,93.7460984000063,93.75708850000228,93.75708850000228,93.75708850000228,93.75708850000228,94.85598230000323,x,1.095603600006143,None,,,,,,,,PN_th,001,2025-03-14_19h26.37.307,MainFlow,2024.2.4,144.45689984404805,2025-03-14 19h26.47.134840 +0700,
1,1,68,word/wordth0681.png,39,39,0,z,0.8852862999992794,None,0,39,39,39,94.86235170000145,,,,,,,94.86235170000145,94.86235170000145,95.8523079000006,95.86336239999946,95.86336239999946,95.86336239999946,95.86336239999946,96.75364690000424,z,0.8852862999992794,None,,,,,,,,PN_th,001,2025-03-14_19h26.37.307,MainFlow,2024.2.4,144.45689984404805,2025-03-14 19h26.47.134840 +0700,
1,1,66,word/wordth0661.png,40,40,0,z,0.9153804999950808,None,0,40,40,40,96.75995140000305,,,,,,,96.75995140000305,96.75995140000305,97.74870970000484,97.75329130000318,97.75329130000318,97.75329130000318,97.75329130000318,98.67226640000445,z,0.9153804999950808,None,,,,,,,,PN_th,001,2025-03-14_19h26.37.307,MainFlow,2024.2.4,144.45689984404805,2025-03-14 19h26.47.134840 +0700,
1,2,42,word/wordth0422.png,41,41,0,x,0.9100021999984165,None,0,41,41,41,98.67866250000225,,,,,,,98.67866250000225,98.67866250000225,99.66850949999935,99.6796600000016,99.6796600000016,99.6796600000016,99.6796600000016,100.59086280000338,x,0.9100021999984165,None,,,,,,,,PN_th,001,2025-03-14_19h26.37.307,MainFlow,2024.2.4,144.45689984404805,2025-03-14 19h26.47.134840 +0700,
1,3,93,word/wordth0933.png,42,42,0,x,2.5991999999969266,None,0,42,42,42,100.59724450000067,,,,,,,100.59724450000067,100.59724450000067,101.58563080000022,101.59045470000274,101.59045470000274,101.59045470000274,101.59045470000274,104.19160090000514,x,2.5991999999969266,None,,,,,,,,PN_th,001,2025-03-14_19h26.37.307,MainFlow,2024.2.4,144.45689984404805,2025-03-14 19h26.47.134840 +0700,
1,1,71,word/wordth0711.png,43,43,0,z,1.4144699999960721,None,0,43,43,43,104.1980543000027,,,,,,,104.1980543000027,104.1980543000027,105.18672560000414,105.1912666000062,105.1912666000062,105.1912666000062,105.1912666000062,106.6107387000011,z,1.4144699999960721,None,,,,,,,,PN_th,001,2025-03-14_19h26.37.307,MainFlow,2024.2.4,144.45689984404805,2025-03-14 19h26.47.134840 +0700,
1,1,64,word/wordth0641.png,44,44,0,z,1.060503200002131,None,0,44,44,44,106.61713480000617,,,,,,,106.61713480000617,106.61713480000617,107.60719190000236,107.61815330000536,107.61815330000536,107.61815330000536,107.61815330000536,108.68225260000327,z,1.060503200002131,None,,,,,,,,PN_th,001,2025-03-14_19h26.37.307,MainFlow,2024.2.4,144.45689984404805,2025-03-14 19h26.47.134840 +0700,
1,1,88,word/wordth0881.png,45,45,0,z,4.1729813999991165,None,0,45,45,45,108.68865809999988,,,,,,,108.68865809999988,108.68865809999988,109.67866090000462,109.68966970000474,109.68966970000474,109.68966970000474,109.68966970000474,113.8679104000039,z,4.1729813999991165,None,,,,,,,,PN_th,001,2025-03-14_19h26.37.307,MainFlow,2024.2.4,144.45689984404805,2025-03-14 19h26.47.134840 +0700,
1,3,87,word/wordth0873.png,46,46,0,x,2.276273900002707,None,0,46,46,46,113.87436929999967,,,,,,,113.87436929999967,113.87436929999967,114.86432770000101,114.8753824000014,114.8753824000014,114.8753824000014,114.8753824000014,117.15600800000539,x,2.276273900002707,None,,,,,,,,PN_th,001,2025-03-14_19h26.37.307,MainFlow,2024.2.4,144.45689984404805,2025-03-14 19h26.47.134840 +0700,
1,3,3,word/wordth0033.png,47,47,0,x,2.052276999995229,None,0,47,47,47,117.16237010000623,,,,,,,117.16237010000623,117.16237010000623,118.1526273000054,118.16337919999933,118.16337919999933,118.16337919999933,118.16337919999933,120.2214473999993,x,2.052276999995229,None,,,,,,,,PN_th,001,2025-03-14_19h26.37.307,MainFlow,2024.2.4,144.45689984404805,2025-03-14 19h26.47.134840 +0700,
1,2,95,word/wordth0952.png,48,48,0,x,1.547510800002783,None,0,48,48,48,120.22792420000042,,,,,,,120.22792420000042,120.22792420000042,121.21659610000643,121.22114290000172,121.22114290000172,121.22114290000172,121.22114290000172,122.7726896000022,x,1.547510800002783,None,,,,,,,,PN_th,001,2025-03-14_19h26.37.307,MainFlow,2024.2.4,144.45689984404805,2025-03-14 19h26.47.134840 +0700,
1,1,11,word/wordth0111.png,49,49,0,z,1.092576699993515,None,0,49,49,49,122.77908590000152,,,,,,,122.77908590000152,122.77908590000152,123.76870440000494,123.78009010000096,123.78009010000096,123.78009010000096,123.78009010000096,124.87887910000427,z,1.092576699993515,None,,,,,,,,PN_th,001,2025-03-14_19h26.37.307,MainFlow,2024.2.4,144.45689984404805,2025-03-14 19h26.47.134840 +0700,
1,1,10,word/wordth0101.png,50,50,0,z,0.7534144999954151,None,0,50,50,50,124.88534210000216,,,,,,,124.88534210000216,124.88534210000216,125.87304280000535,125.87924290000228,125.87924290000228,125.87924290000228,125.87924290000228,126.63759109999955,z,0.7534144999954151,None,,,,,,,,PN_th,001,2025-03-14_19h26.37.307,MainFlow,2024.2.4,144.45689984404805,2025-03-14 19h26.47.134840 +0700,
1,1,44,word/wordth0441.png,51,51,0,z,0.8355981999993674,None,0,51,51,51,126.64404710000235,,,,,,,126.64404710000235,126.64404710000235,127.63444300000265,127.64505620000273,127.64505620000273,127.64505620000273,127.64505620000273,128.48671309999918,z,0.8355981999993674,None,,,,,,,,PN_th,001,2025-03-14_19h26.37.307,MainFlow,2024.2.4,144.45689984404805,2025-03-14 19h26.47.134840 +0700,
1,1,96,word/wordth0961.png,52,52,0,z,0.7955312000049162,None,0,52,52,52,128.49312090000603,,,,,,,128.49312090000603,128.49312090000603,129.48325920000207,129.49412070000108,129.49412070000108,129.49412070000108,129.49412070000108,130.29409190000297,z,0.7955312000049162,None,,,,,,,,PN_th,001,2025-03-14_19h26.37.307,MainFlow,2024.2.4,144.45689984404805,2025-03-14 19h26.47.134840 +0700,
1,2,27,word/wordth0272.png,53,53,0,x,0.9880039999989094,None,0,53,53,53,130.3004798000038,,,,,,,130.3004798000038,130.3004798000038,131.28887110000505,131.2936996999997,131.2936996999997,131.2936996999997,131.2936996999997,132.28241870000056,x,0.9880039999989094,None,,,,,,,,PN_th,001,2025-03-14_19h26.37.307,MainFlow,2024.2.4,144.45689984404805,2025-03-14 19h26.47.134840 +0700,
1,1,63,word/wordth0631.png,54,54,0,z,2.7040931999945315,None,0,54,54,54,132.28855810000096,,,,,,,132.28855810000096,132.28855810000096,133.2781138000064,133.28957580000133,133.28957580000133,133.28957580000133,133.28957580000133,135.99440820000018,z,2.7040931999945315,None,,,,,,,,PN_th,001,2025-03-14_19h26.37.307,MainFlow,2024.2.4,144.45689984404805,2025-03-14 19h26.47.134840 +0700,
1,3,66,word/wordth0663.png,55,55,0,x,1.7290266999989399,None,0,55,55,55,136.00063500000397,,,,,,,136.00063500000397,136.00063500000397,136.9901891000045,137.00163290000637,137.00163290000637,137.00163290000637,137.00163290000637,138.7330854000029,x,1.7290266999989399,None,,,,,,,,PN_th,001,2025-03-14_19h26.37.307,MainFlow,2024.2.4,144.45689984404805,2025-03-14 19h26.47.134840 +0700,
1,3,88,word/wordth0883.png,56,56,0,x,1.478198800003156,None,0,56,56,56,138.73945110000204,,,,,,,138.73945110000204,138.73945110000204,139.72952890000306,139.7404674999998,139.7404674999998,139.7404674999998,139.7404674999998,141.22168030000466,x,1.478198800003156,None,,,,,,,,PN_th,001,2025-03-14_19h26.37.307,MainFlow,2024.2.4,144.45689984404805,2025-03-14 19h26.47.134840 +0700,
1,3,96,word/wordth0963.png,57,57,0,x,2.7025978000019677,None,0,57,57,57,141.22804259999975,,,,,,,141.22804259999975,141.22804259999975,142.21839660000114,142.22905600000377,142.22905600000377,142.22905600000377,142.22905600000377,144.9336112000019,x,2.7025978000019677,None,,,,,,,,PN_th,001,2025-03-14_19h26.37.307,MainFlow,2024.2.4,144.45689984404805,2025-03-14 19h26.47.134840 +0700,
1,2,52,word/wordth0522.png,58,58,0,x,1.021677600001567,None,0,58,58,58,144.94008949999989,,,,,,,144.94008949999989,144.94008949999989,145.927900900002,145.9340089000034,145.9340089000034,145.9340089000034,145.9340089000034,146.9565373000005,x,1.021677600001567,None,,,,,,,,PN_th,001,2025-03-14_19h26.37.307,MainFlow,2024.2.4,144.45689984404805,2025-03-14 19h26.47.134840 +0700,
1,3,50,word/wordth0503.png,59,59,0,x,7.536037199999555,None,0,59,59,59,146.9629363999993,,,,,,,146.9629363999993,146.9629363999993,147.95109490000323,147.9566319000005,147.9566319000005,147.9566319000005,147.9566319000005,155.49982360000286,x,7.536037199999555,None,,,,,,,,PN_th,001,2025-03-14_19h26.37.307,MainFlow,2024.2.4,144.45689984404805,2025-03-14 19h26.47.134840 +0700,
1,3,61,word/wordth0613.png,60,60,0,x,1.2094625000027008,None,0,60,60,60,155.50622410000506,,,,,,,155.50622410000506,155.50622410000506,156.49652880000212,156.50719120000576,156.50719120000576,156.50719120000576,156.50719120000576,157.71739660000458,x,1.2094625000027008,None,,,,,,,,PN_th,001,2025-03-14_19h26.37.307,MainFlow,2024.2.4,144.45689984404805,2025-03-14 19h26.47.134840 +0700,
1,2,46,word/wordth0462.png,61,61,0,x,1.0240171999976155,None,0,61,61,61,157.72367200000008,,,,,,,157.72367200000008,157.72367200000008,158.71323240000493,158.72467280000274,158.72467280000274,158.72467280000274,158.72467280000274,159.75399100000504,x,1.0240171999976155,None,,,,,,,,PN_th,001,2025-03-14_19h26.37.307,MainFlow,2024.2.4,144.45689984404805,2025-03-14 19h26.47.134840 +0700,
1,1,61,word/wordth0611.png,62,62,0,z,0.7482335000022431,None,0,62,62,62,159.7604419000054,,,,,,,159.7604419000054,159.7604419000054,160.75042920000124,160.7614365000045,160.7614365000045,160.7614365000045,160.7614365000045,161.5127364,z,0.7482335000022431,None,,,,,,,,PN_th,001,2025-03-14_19h26.37.307,MainFlow,2024.2.4,144.45689984404805,2025-03-14 19h26.47.134840 +0700,
1,1,24,word/wordth0241.png,63,63,0,z,0.6773331000003964,None,0,63,63,63,161.519137700001,,,,,,,161.519137700001,161.519137700001,162.50741320000088,162.51233580000553,162.51233580000553,162.51233580000553,162.51233580000553,163.19495380000444,z,0.6773331000003964,None,,,,,,,,PN_th,001,2025-03-14_19h26.37.307,MainFlow,2024.2.4,144.45689984404805,2025-03-14 19h26.47.134840 +0700,
1,2,89,word/wordth0892.png,64,64,0,x,0.6513090000007651,None,0,64,64,64,163.2012354000035,,,,,,,163.2012354000035,163.2012354000035,164.1917925000016,164.20234540000092,164.20234540000092,164.20234540000092,164.20234540000092,164.85628469999938,x,0.6513090000007651,None,,,,,,,,PN_th,001,2025-03-14_19h26.37.307,MainFlow,2024.2.4,144.45689984404805,2025-03-14 19h26.47.134840 +0700,
1,1,30,word/wordth0301.png,65,65,0,z,0.7417025999966427,None,0,65,65,65,164.86273640000582,,,,,,,164.86273640000582,164.86273640000582,165.8515400000033,165.8559555000029,165.8559555000029,165.8559555000029,165.8559555000029,166.60122410000622,z,0.7417025999966427,None,,,,,,,,PN_th,001,2025-03-14_19h26.37.307,MainFlow,2024.2.4,144.45689984404805,2025-03-14 19h26.47.134840 +0700,
1,1,93,word/wordth0931.png,66,66,0,z,0.9821152000004076,None,0,66,66,66,166.60753690000274,,,,,,,166.60753690000274,166.60753690000274,167.59824479999952,167.60853680000582,167.60853680000582,167.60853680000582,167.60853680000582,168.59604770000442,z,0.9821152000004076,None,,,,,,,,PN_th,001,2025-03-14_19h26.37.307,MainFlow,2024.2.4,144.45689984404805,2025-03-14 19h26.47.134840 +0700,
1,1,50,word/wordth0501.png,67,67,0,z,0.4830574000006891,None,0,67,67,67,168.60258220000105,,,,,,,168.60258220000105,168.60258220000105,169.59233750000567,169.60359290000633,169.60359290000633,169.60359290000633,169.60359290000633,170.0907600000064,z,0.4830574000006891,None,,,,,,,,PN_th,001,2025-03-14_19h26.37.307,MainFlow,2024.2.4,144.45689984404805,2025-03-14 19h26.47.134840 +0700,
1,3,82,word/wordth0823.png,68,68,0,x,0.8845293999984278,None,0,68,68,68,170.09712199999922,,,,,,,170.09712199999922,170.09712199999922,171.08736070000305,171.09812760000204,171.09812760000204,171.09812760000204,171.09812760000204,171.9884527000031,x,0.8845293999984278,None,,,,,,,,PN_th,001,2025-03-14_19h26.37.307,MainFlow,2024.2.4,144.45689984404805,2025-03-14 19h26.47.134840 +0700,
1,1,27,word/wordth0271.png,69,69,0,z,0.7467821999962325,None,0,69,69,69,171.99485400000412,,,,,,,171.99485400000412,171.99485400000412,172.98438540000643,172.9958642000056,172.9958642000056,172.9958642000056,172.9958642000056,173.74712780000118,z,0.7467821999962325,None,,,,,,,,PN_th,001,2025-03-14_19h26.37.307,MainFlow,2024.2.4,144.45689984404805,2025-03-14 19h26.47.134840 +0700,
1,3,52,word/wordth0523.png,70,70,0,x,0.804890899999009,None,0,70,70,70,173.753552400005,,,,,,,173.753552400005,173.753552400005,174.74186820000614,174.74676430000545,174.74676430000545,174.74676430000545,174.74676430000545,175.55452390000573,x,0.804890899999009,None,,,,,,,,PN_th,001,2025-03-14_19h26.37.307,MainFlow,2024.2.4,144.45689984404805,2025-03-14 19h26.47.134840 +0700,
1,1,22,word/wordth0221.png,71,71,0,z,0.7337373999980628,None,0,71,71,71,175.56090600000607,,,,,,,175.56090600000607,175.56090600000607,176.55066530000477,176.56191330000001,176.56191330000001,176.56191330000001,176.56191330000001,177.29927030000545,z,0.7337373999980628,None,,,,,,,,PN_th,001,2025-03-14_19h26.37.307,MainFlow,2024.2.4,144.45689984404805,2025-03-14 19h26.47.134840 +0700,
1,1,6,word/wordth0061.png,72,72,0,z,0.460747100005392,None,0,72,72,72,177.3057050999996,,,,,,,177.3057050999996,177.3057050999996,178.2941731000028,178.29892060000566,178.29892060000566,178.29892060000566,178.29892060000566,178.7658639000001,z,0.460747100005392,None,,,,,,,,PN_th,001,2025-03-14_19h26.37.307,MainFlow,2024.2.4,144.45689984404805,2025-03-14 19h26.47.134840 +0700,
1,2,30,word/wordth0302.png,73,73,0,x,0.5822046000030241,None,0,73,73,73,178.77244130000327,,,,,,,178.77244130000327,178.77244130000327,179.76279540000542,179.77344530000119,179.77344530000119,179.77344530000119,179.77344530000119,180.35787110000092,x,0.5822046000030241,None,,,,,,,,PN_th,001,2025-03-14_19h26.37.307,MainFlow,2024.2.4,144.45689984404805,2025-03-14 19h26.47.134840 +0700,
1,1,51,word/wordth0511.png,74,74,0,z,0.6063668000060716,None,0,74,74,74,180.36431740000262,,,,,,,180.36431740000262,180.36431740000262,181.35448820000602,181.36530580000544,181.36530580000544,181.36530580000544,181.36530580000544,181.9775579000052,z,0.6063668000060716,None,,,,,,,,PN_th,001,2025-03-14_19h26.37.307,MainFlow,2024.2.4,144.45689984404805,2025-03-14 19h26.47.134840 +0700,
1,2,50,word/wordth0502.png,75,75,0,x,0.5636604000028456,None,0,75,75,75,181.98398570000427,,,,,,,181.98398570000427,181.98398570000427,182.9736772000033,182.9849886000011,182.9849886000011,182.9849886000011,182.9849886000011,183.55552700000408,x,0.5636604000028456,None,,,,,,,,PN_th,001,2025-03-14_19h26.37.307,MainFlow,2024.2.4,144.45689984404805,2025-03-14 19h26.47.134840 +0700,
1,3,95,word/wordth0953.png,76,76,0,x,0.9136994000000414,None,0,76,76,76,183.56194460000552,,,,,,,183.56194460000552,183.56194460000552,184.55229990000225,184.56295020000107,184.56295020000107,184.56295020000107,184.56295020000107,185.48116870000376,x,0.9136994000000414,None,,,,,,,,PN_th,001,2025-03-14_19h26.37.307,MainFlow,2024.2.4,144.45689984404805,2025-03-14 19h26.47.134840 +0700,
1,1,75,word/wordth0751.png,77,77,0,z,0.6841628000038327,None,0,77,77,77,185.4874609000035,,,,,,,185.4874609000035,185.4874609000035,186.4777050000048,186.48848810000345,186.48848810000345,186.48848810000345,186.48848810000345,187.177205400003,z,0.6841628000038327,None,,,,,,,,PN_th,001,2025-03-14_19h26.37.307,MainFlow,2024.2.4,144.45689984404805,2025-03-14 19h26.47.134840 +0700,
1,1,95,word/wordth0951.png,78,78,0,z,0.5238238000019919,None,0,78,78,78,187.18361960000038,,,,,,,187.18361960000038,187.18361960000038,188.17183400000067,188.17683450000186,188.17683450000186,188.17683450000186,188.17683450000186,188.7063593999992,z,0.5238238000019919,None,,,,,,,,PN_th,001,2025-03-14_19h26.37.307,MainFlow,2024.2.4,144.45689984404805,2025-03-14 19h26.47.134840 +0700,
1,2,8,word/wordth0082.png,79,79,0,x,0.6915061999970931,None,0,79,79,79,188.71291340000607,,,,,,,188.71291340000607,188.71291340000607,189.7015179000009,189.70613740000408,189.70613740000408,189.70613740000408,189.70613740000408,190.40269600000465,x,0.6915061999970931,None,,,,,,,,PN_th,001,2025-03-14_19h26.37.307,MainFlow,2024.2.4,144.45689984404805,2025-03-14 19h26.47.134840 +0700,
1,3,75,word/wordth0753.png,80,80,0,x,1.018687999996473,None,0,80,80,80,190.40906160000304,,,,,,,190.40906160000304,190.40906160000304,191.3967963000032,191.40295890000561,191.40295890000561,191.40295890000561,191.40295890000561,192.42545770000288,x,1.018687999996473,None,,,,,,,,PN_th,001,2025-03-14_19h26.37.307,MainFlow,2024.2.4,144.45689984404805,2025-03-14 19h26.47.134840 +0700,
1,1,28,word/wordth0281.png,81,81,0,z,0.8127417000068817,None,0,81,81,81,192.43190830000094,,,,,,,192.43190830000094,192.43190830000094,193.4214260000008,193.43291540000064,193.43291540000064,193.43291540000064,193.43291540000064,194.24680700000317,z,0.8127417000068817,None,,,,,,,,PN_th,001,2025-03-14_19h26.37.307,MainFlow,2024.2.4,144.45689984404805,2025-03-14 19h26.47.134840 +0700,
1,3,42,word/wordth0423.png,82,82,0,x,2.0634783999994397,None,0,82,82,82,194.25316490000114,,,,,,,194.25316490000114,194.25316490000114,195.2433702000053,195.25417780000134,195.25417780000134,195.25417780000134,195.25417780000134,197.31929850000597,x,2.0634783999994397,None,,,,,,,,PN_th,001,2025-03-14_19h26.37.307,MainFlow,2024.2.4,144.45689984404805,2025-03-14 19h26.47.134840 +0700,
1,3,46,word/wordth0463.png,83,83,0,x,0.655780599998252,None,0,83,83,83,197.32568520000495,,,,,,,197.32568520000495,197.32568520000495,198.31421350000164,198.31888869999966,198.31888869999966,198.31888869999966,198.31888869999966,198.98065820000193,x,0.655780599998252,None,,,,,,,,PN_th,001,2025-03-14_19h26.37.307,MainFlow,2024.2.4,144.45689984404805,2025-03-14 19h26.47.134840 +0700,
1,3,1,word/wordth0013.png,84,84,0,x,0.6424060999997891,None,0,84,84,84,198.98705950000294,,,,,,,198.98705950000294,198.98705950000294,199.97530600000027,199.98026940000273,199.98026940000273,199.98026940000273,199.98026940000273,200.62799110000196,x,0.6424060999997891,None,,,,,,,,PN_th,001,2025-03-14_19h26.37.307,MainFlow,2024.2.4,144.45689984404805,2025-03-14 19h26.47.134840 +0700,
1,2,70,word/wordth0702.png,85,85,0,x,0.5469018000003416,None,0,85,85,85,200.63454710000224,,,,,,,200.63454710000224,200.63454710000224,201.62297790000594,201.62775660000625,201.62775660000625,201.62775660000625,201.62775660000625,202.17820800000482,x,0.5469018000003416,None,,,,,,,,PN_th,001,2025-03-14_19h26.37.307,MainFlow,2024.2.4,144.45689984404805,2025-03-14 19h26.47.134840 +0700,
1,1,7,word/wordth0071.png,86,86,0,z,0.9800694000005024,None,0,86,86,86,202.1846913000045,,,,,,,202.1846913000045,202.1846913000045,203.1726736000055,203.17859040000621,203.17859040000621,203.17859040000621,203.17859040000621,204.15953920000175,z,0.9800694000005024,None,,,,,,,,PN_th,001,2025-03-14_19h26.37.307,MainFlow,2024.2.4,144.45689984404805,2025-03-14 19h26.47.134840 +0700,
1,2,7,word/wordth0072.png,87,87,0,x,2.592817600001581,None,0,87,87,87,204.1658355000036,,,,,,,204.1658355000036,204.1658355000036,205.15541370000574,205.16683720000583,205.16683720000583,205.16683720000583,205.16683720000583,207.76037840000208,x,2.592817600001581,None,,,,,,,,PN_th,001,2025-03-14_19h26.37.307,MainFlow,2024.2.4,144.45689984404805,2025-03-14 19h26.47.134840 +0700,
1,2,24,word/wordth0242.png,88,88,0,x,0.8239917000028072,None,0,88,88,88,207.7666520999992,,,,,,,207.7666520999992,207.7666520999992,208.75623750000523,208.76766260000295,208.76766260000295,208.76766260000295,208.76766260000295,209.59538540000358,x,0.8239917000028072,None,,,,,,,,PN_th,001,2025-03-14_19h26.37.307,MainFlow,2024.2.4,144.45689984404805,2025-03-14 19h26.47.134840 +0700,
1,3,26,word/wordth0263.png,89,89,0,x,0.7886214000027394,None,0,89,89,89,209.6018097000051,,,,,,,209.6018097000051,209.6018097000051,210.59034560000146,210.5950271000038,210.5950271000038,210.5950271000038,210.5950271000038,211.38883260000148,x,0.7886214000027394,None,,,,,,,,PN_th,001,2025-03-14_19h26.37.307,MainFlow,2024.2.4,144.45689984404805,2025-03-14 19h26.47.134840 +0700,
1,2,23,word/wordth0232.png,90,90,0,x,1.2363831999973627,None,0,90,90,90,211.39526930000284,,,,,,,211.39526930000284,211.39526930000284,212.38533800000005,212.39626549999957,212.39626549999957,212.39626549999957,212.39626549999957,213.6341300999993,x,1.2363831999973627,None,,,,,,,,PN_th,001,2025-03-14_19h26.37.307,MainFlow,2024.2.4,144.45689984404805,2025-03-14 19h26.47.134840 +0700,
1,2,75,word/wordth0752.png,91,91,0,x,0.5910931000034907,None,0,91,91,91,213.64055039999948,,,,,,,213.64055039999948,213.64055039999948,214.6303351000024,214.6415638000035,214.6415638000035,214.6415638000035,214.6415638000035,215.2397947000063,x,0.5910931000034907,None,,,,,,,,PN_th,001,2025-03-14_19h26.37.307,MainFlow,2024.2.4,144.45689984404805,2025-03-14 19h26.47.134840 +0700,
1,2,6,word/wordth0062.png,92,92,0,x,0.4091114999973797,None,0,92,92,92,215.24635750000016,,,,,,,215.24635750000016,215.24635750000016,216.23466449999978,216.2395411000034,216.2395411000034,216.2395411000034,216.2395411000034,216.65102210000623,x,0.4091114999973797,None,,,,,,,,PN_th,001,2025-03-14_19h26.37.307,MainFlow,2024.2.4,144.45689984404805,2025-03-14 19h26.47.134840 +0700,
1,2,93,word/wordth0932.png,93,93,0,x,0.7181923000025563,None,0,93,93,93,216.65746890000446,,,,,,,216.65746890000446,216.65746890000446,217.64754240000184,217.6584612000006,217.6584612000006,217.6584612000006,217.6584612000006,218.38199590000295,x,0.7181923000025563,None,,,,,,,,PN_th,001,2025-03-14_19h26.37.307,MainFlow,2024.2.4,144.45689984404805,2025-03-14 19h26.47.134840 +0700,
1,2,48,word/wordth0482.png,94,94,0,x,0.5312992000035592,None,0,94,94,94,218.3883444000021,,,,,,,218.3883444000021,218.3883444000021,219.3782582999993,219.38935409999976,219.38935409999976,219.38935409999976,219.38935409999976,219.92511190000369,x,0.5312992000035592,None,,,,,,,,PN_th,001,2025-03-14_19h26.37.307,MainFlow,2024.2.4,144.45689984404805,2025-03-14 19h26.47.134840 +0700,
1,1,70,word/wordth0701.png,95,95,0,z,0.6608865000016522,None,0,95,95,95,219.93156340000132,,,,,,,219.93156340000132,219.93156340000132,220.91990390000137,220.92476539999916,220.92476539999916,220.92476539999916,220.92476539999916,221.5865064000027,z,0.6608865000016522,None,,,,,,,,PN_th,001,2025-03-14_19h26.37.307,MainFlow,2024.2.4,144.45689984404805,2025-03-14 19h26.47.134840 +0700,
1,2,66,word/wordth0662.png,96,96,0,x,0.711719400002039,None,0,96,96,96,221.5929430000033,,,,,,,221.5929430000033,221.5929430000033,222.5831593000039,222.59394260000408,222.59394260000408,222.59394260000408,222.59394260000408,223.31038990000525,x,0.711719400002039,None,,,,,,,,PN_th,001,2025-03-14_19h26.37.307,MainFlow,2024.2.4,144.45689984404805,2025-03-14 19h26.47.134840 +0700,
1,1,26,word/wordth0261.png,97,97,0,z,1.0517723000011756,None,0,97,97,97,223.31689000000188,,,,,,,223.31689000000188,223.31689000000188,224.3062850999995,224.31787850000546,224.31787850000546,224.31787850000546,224.31787850000546,225.37506430000212,z,1.0517723000011756,None,,,,,,,,PN_th,001,2025-03-14_19h26.37.307,MainFlow,2024.2.4,144.45689984404805,2025-03-14 19h26.47.134840 +0700,
1,3,9,word/wordth0093.png,98,98,0,x,0.6429986000002827,None,0,98,98,98,225.3813261000032,,,,,,,225.3813261000032,225.3813261000032,226.37007129999984,226.37465480000537,226.37465480000537,226.37465480000537,226.37465480000537,227.0224909000026,x,0.6429986000002827,None,,,,,,,,PN_th,001,2025-03-14_19h26.37.307,MainFlow,2024.2.4,144.45689984404805,2025-03-14 19h26.47.134840 +0700,
1,2,61,word/wordth0612.png,99,99,0,x,0.7447428999948897,None,0,99,99,99,227.02890450000268,,,,,,,227.02890450000268,227.02890450000268,228.0195287000024,228.0299124000012,228.0299124000012,228.0299124000012,228.0299124000012,228.78111970000464,x,0.7447428999948897,None,,,,,,,,PN_th,001,2025-03-14_19h26.37.307,MainFlow,2024.2.4,144.45689984404805,2025-03-14 19h26.47.134840 +0700,
1,3,8,word/wordth0083.png,100,100,0,x,0.5700682000024244,None,0,100,100,100,228.7876071999999,,,,,,,228.7876071999999,228.7876071999999,229.7778785000046,229.7886190000063,229.7886190000063,229.7886190000063,229.7886190000063,230.35936560000118,x,0.5700682000024244,None,,,,,,,,PN_th,001,2025-03-14_19h26.37.307,MainFlow,2024.2.4,144.45689984404805,2025-03-14 19h26.47.134840 +0700,
1,1,8,word/wordth0081.png,101,101,0,z,0.49605410000367556,None,0,101,101,101,230.36555910000607,,,,,,,230.36555910000607,230.36555910000607,231.35574700000143,231.36659230000078,231.36659230000078,231.36659230000078,231.36659230000078,231.86758120000013,z,0.49605410000367556,None,,,,,,,,PN_th,001,2025-03-14_19h26.37.307,MainFlow,2024.2.4,144.45689984404805,2025-03-14 19h26.47.134840 +0700,
1,2,44,word/wordth0442.png,102,102,0,x,0.7316216999970493,None,0,102,102,102,231.87403330000234,,,,,,,231.87403330000234,231.87403330000234,232.86438780000026,232.8750371999995,232.8750371999995,232.8750371999995,232.8750371999995,233.6123976000017,x,0.7316216999970493,None,,,,,,,,PN_th,001,2025-03-14_19h26.37.307,MainFlow,2024.2.4,144.45689984404805,2025-03-14 19h26.47.134840 +0700,
1,3,31,word/wordth0313.png,103,103,0,x,0.6028447000062442,None,0,103,103,103,233.61869670000306,,,,,,,233.61869670000306,233.61869670000306,234.6094008,234.61982650000573,234.61982650000573,234.61982650000573,234.61982650000573,235.22515200000635,x,0.6028447000062442,None,,,,,,,,PN_th,001,2025-03-14_19h26.37.307,MainFlow,2024.2.4,144.45689984404805,2025-03-14 19h26.47.134840 +0700,
1,1,89,word/wordth0891.png,104,104,0,z,0.7511855999982799,None,0,104,104,104,235.23154700000305,,,,,,,235.23154700000305,235.23154700000305,236.2212462000025,236.23254770000494,236.23254770000494,236.23254770000494,236.23254770000494,236.99078830000508,z,0.7511855999982799,None,,,,,,,,PN_th,001,2025-03-14_19h26.37.307,MainFlow,2024.2.4,144.45689984404805,2025-03-14 19h26.47.134840 +0700,
1,3,70,word/wordth0703.png,105,105,0,x,2.8014695000019856,None,0,105,105,105,236.99727990000247,,,,,,,236.99727990000247,236.99727990000247,237.98743490000197,237.99820159999945,237.99820159999945,237.99820159999945,237.99820159999945,240.80033790000016,x,2.8014695000019856,None,,,,,,,,PN_th,001,2025-03-14_19h26.37.307,MainFlow,2024.2.4,144.45689984404805,2025-03-14 19h26.47.134840 +0700,
1,3,68,word/wordth0683.png,106,106,0,x,1.3910094999955618,None,0,106,106,106,240.80655480000132,,,,,,,240.80655480000132,240.80655480000132,241.79478850000305,241.80066230000375,241.80066230000375,241.80066230000375,241.80066230000375,243.19839409999986,x,1.3910094999955618,None,,,,,,,,PN_th,001,2025-03-14_19h26.37.307,MainFlow,2024.2.4,144.45689984404805,2025-03-14 19h26.47.134840 +0700,
1,3,10,word/wordth0103.png,107,107,0,x,1.23465070000384,None,0,107,107,107,243.2047795000035,,,,,,,243.2047795000035,243.2047795000035,244.19321800000034,244.1979941000027,244.1979941000027,244.1979941000027,244.1979941000027,245.4367304000043,x,1.23465070000384,None,,,,,,,,PN_th,001,2025-03-14_19h26.37.307,MainFlow,2024.2.4,144.45689984404805,2025-03-14 19h26.47.134840 +0700,
1,3,94,word/wordth0943.png,108,108,0,x,0.6123359999983222,None,0,108,108,108,245.44312619999982,,,,,,,245.44312619999982,245.44312619999982,246.4315803999998,246.43632839999918,246.43632839999918,246.43632839999918,246.43632839999918,247.0495160999999,x,0.6123359999983222,None,,,,,,,,PN_th,001,2025-03-14_19h26.37.307,MainFlow,2024.2.4,144.45689984404805,2025-03-14 19h26.47.134840 +0700,
1,1,3,word/wordth0031.png,109,109,0,z,0.7438551000013831,None,0,109,109,109,247.05583670000487,,,,,,,247.05583670000487,247.05583670000487,248.04533110000193,248.05684630000178,248.05684630000178,248.05684630000178,248.05684630000178,248.8013837000035,z,0.7438551000013831,None,,,,,,,,PN_th,001,2025-03-14_19h26.37.307,MainFlow,2024.2.4,144.45689984404805,2025-03-14 19h26.47.134840 +0700,
1,3,63,word/wordth0633.png,110,110,0,x,0.7838555999987875,None,0,110,110,110,248.80759650000255,,,,,,,248.80759650000255,248.80759650000255,249.7958160000053,249.80079960000148,249.80079960000148,249.80079960000148,249.80079960000148,250.58767640000588,x,0.7838555999987875,None,,,,,,,,PN_th,001,2025-03-14_19h26.37.307,MainFlow,2024.2.4,144.45689984404805,2025-03-14 19h26.47.134840 +0700,
1,2,9,word/wordth0092.png,111,111,0,x,0.6705801999996766,None,0,111,111,111,250.5940824000063,,,,,,,250.5940824000063,250.5940824000063,251.58448930000304,251.5950828999994,251.5950828999994,251.5950828999994,251.5950828999994,252.26993200000288,x,0.6705801999996766,None,,,,,,,,PN_th,001,2025-03-14_19h26.37.307,MainFlow,2024.2.4,144.45689984404805,2025-03-14 19h26.47.134840 +0700,
1,3,7,word/wordth0073.png,112,112,0,x,0.7083247999980813,None,0,112,112,112,252.27631480000127,,,,,,,252.27631480000127,252.27631480000127,253.26640730000508,253.27733090000402,253.27733090000402,253.27733090000402,253.27733090000402,253.98689179999928,x,0.7083247999980813,None,,,,,,,,PN_th,001,2025-03-14_19h26.37.307,MainFlow,2024.2.4,144.45689984404805,2025-03-14 19h26.47.134840 +0700,
1,2,41,word/wordth0412.png,113,113,0,x,0.6553430999992997,None,0,113,113,113,253.9932831000042,,,,,,,253.9932831000042,253.9932831000042,254.98336030000064,254.9943110000022,254.9943110000022,254.9943110000022,254.9943110000022,255.65519550000317,x,0.6553430999992997,None,,,,,,,,PN_th,001,2025-03-14_19h26.37.307,MainFlow,2024.2.4,144.45689984404805,2025-03-14 19h26.47.134840 +0700,
1,1,9,word/wordth0091.png,114,114,0,z,0.7550391999975545,None,0,114,114,114,255.66165080000064,,,,,,,255.66165080000064,255.66165080000064,256.65197090000584,256.6626443999994,256.6626443999994,256.6626443999994,256.6626443999994,257.42088250000234,z,0.7550391999975545,None,,,,,,,,PN_th,001,2025-03-14_19h26.37.307,MainFlow,2024.2.4,144.45689984404805,2025-03-14 19h26.47.134840 +0700,
1,1,94,word/wordth0941.png,115,115,0,z,0.5664847000007285,None,0,115,115,115,257.42729490000056,,,,,,,257.42729490000056,257.42729490000056,258.41729040000064,258.4281680000058,258.4281680000058,258.4281680000058,258.4281680000058,258.99884230000316,z,0.5664847000007285,None,,,,,,,,PN_th,001,2025-03-14_19h26.37.307,MainFlow,2024.2.4,144.45689984404805,2025-03-14 19h26.47.134840 +0700,
1,1,52,word/wordth0521.png,116,116,0,z,0.42840419999993173,None,0,116,116,116,259.0053012000062,,,,,,,259.0053012000062,259.0053012000062,259.9955142000035,260.0062560000006,260.0062560000006,260.0062560000006,260.0062560000006,260.43780600000173,z,0.42840419999993173,None,,,,,,,,PN_th,001,2025-03-14_19h26.37.307,MainFlow,2024.2.4,144.45689984404805,2025-03-14 19h26.47.134840 +0700,
1,2,88,word/wordth0882.png,117,117,0,x,0.5654630000062753,None,0,117,117,117,260.4441853000026,,,,,,,260.4441853000026,260.4441853000026,261.4342555000039,261.4451917000042,261.4451917000042,261.4451917000042,261.4451917000042,262.0156619000045,x,0.5654630000062753,None,,,,,,,,PN_th,001,2025-03-14_19h26.37.307,MainFlow,2024.2.4,144.45689984404805,2025-03-14 19h26.47.134840 +0700,
1,1,41,word/wordth0411.png,118,118,0,z,0.5075202999942121,None,0,118,118,118,262.0221670000028,,,,,,,262.0221670000028,262.0221670000028,263.0122365000061,263.0231449999992,263.0231449999992,263.0231449999992,263.0231449999992,263.5313352000012,z,0.5075202999942121,None,,,,,,,,PN_th,001,2025-03-14_19h26.37.307,MainFlow,2024.2.4,144.45689984404805,2025-03-14 19h26.47.134840 +0700,
1,3,30,word/wordth0303.png,119,119,0,x,0.8640965000013239,None,0,119,119,119,263.53755820000515,,,,,,,263.53755820000515,263.53755820000515,264.52723150000384,264.5385588000063,264.5385588000063,264.5385588000063,264.5385588000063,265.4080585000047,x,0.8640965000013239,None,,,,,,,,PN_th,001,2025-03-14_19h26.37.307,MainFlow,2024.2.4,144.45689984404805,2025-03-14 19h26.47.134840 +0700,
,,,,,,,,,,,,,,,,,,,,,,,,,,,,,,,,265.4081453000035,265.4144299000036,265.4144299000036,267.3963151000062,space,1.9812378000060562,None,PN_th,001,2025-03-14_19h26.37.307,MainFlow,2024.2.4,144.45689984404805,2025-03-14 19h26.47.134840 +0700,
