lang,stimuli,imageid,worddir,thisN,thisTrialN,thisRepN,key_resp.keys,key_resp.rt,key_resp.duration,trials.thisRepN,trials.thisTrialN,trials.thisN,trials.thisIndex,thisRow.t,notes,tutorial.started,tutorial.stopped,key_instruct.keys,key_instruct.rt,key_instruct.duration,instructblank.started,cross1.started,letterselect.started,imageword.started,text_2.started,cross2.started,key_resp.started,letterselect.stopped,trials.key_resp.keys,trials.key_resp.rt,trials.key_resp.duration,ending.started,text_3.started,ending_key.started,ending.stopped,ending_key.keys,ending_key.rt,ending_key.duration,participant,session,date,expName,psychopyVersion,frameRate,expStart,
,,,,,,,,,,,,,,,,0.002824600087478757,30.229421600000933,space,30.21008509991225,None,,,,,,,,,,,,,,,,,,,SC_en,001,2025-03-07_12h30.16.419,MainFlow,2024.2.4,129.77473698834208,2025-03-07 12h30.27.025501 +0700,
2,1,66,word/worden0661.png,0,0,0,z,3.2001230999594554,None,0,0,0,0,30.25552060001064,,,,,,,30.25552060001064,30.25552060001064,31.228002300020307,31.232832800014876,31.232832800014876,31.232832800014876,31.232832800014876,34.43421970005147,z,3.2001230999594554,None,,,,,,,,SC_en,001,2025-03-07_12h30.16.419,MainFlow,2024.2.4,129.77473698834208,2025-03-07 12h30.27.025501 +0700,
2,1,3,word/worden0031.png,1,1,0,z,0.8094651000574231,None,0,1,1,1,34.440784600097686,,,,,,,34.440784600097686,34.440784600097686,35.42825530003756,35.43264020001516,35.43264020001516,35.43264020001516,35.43264020001516,36.246682099998,z,0.8094651000574231,None,,,,,,,,SC_en,001,2025-03-07_12h30.16.419,MainFlow,2024.2.4,129.77473698834208,2025-03-07 12h30.27.025501 +0700,
2,2,71,word/worden0712.png,2,2,0,x,0.736722799949348,None,0,2,2,2,36.25320000003558,,,,,,,36.25320000003558,36.25320000003558,37.24017590004951,37.244040700024925,37.244040700024925,37.244040700024925,37.244040700024925,37.982988300034776,x,0.736722799949348,None,,,,,,,,SC_en,001,2025-03-07_12h30.16.419,MainFlow,2024.2.4,129.77473698834208,2025-03-07 12h30.27.025501 +0700,
2,3,27,word/worden0273.png,3,3,0,x,0.7544468999840319,None,0,3,3,3,37.98941790009849,,,,,,,37.98941790009849,37.98941790009849,38.97625690000132,38.98019320005551,38.98019320005551,38.98019320005551,38.98019320005551,39.73954440001398,x,0.7544468999840319,None,,,,,,,,SC_en,001,2025-03-07_12h30.16.419,MainFlow,2024.2.4,129.77473698834208,2025-03-07 12h30.27.025501 +0700,
2,3,88,word/worden0883.png,4,4,0,x,0.9669867000775412,None,0,4,4,4,39.74606850009877,,,,,,,39.74606850009877,39.74606850009877,40.73289870005101,40.73649500007741,40.73649500007741,40.73649500007741,40.73649500007741,41.70516090001911,x,0.9669867000775412,None,,,,,,,,SC_en,001,2025-03-07_12h30.16.419,MainFlow,2024.2.4,129.77473698834208,2025-03-07 12h30.27.025501 +0700,
2,1,28,word/worden0281.png,5,5,0,z,1.069193399976939,None,0,5,5,5,41.711522500030696,,,,,,,41.711522500030696,41.711522500030696,42.698716600076295,42.70301440008916,42.70301440008916,42.70301440008916,42.70301440008916,43.774286600062624,z,1.069193399976939,None,,,,,,,,SC_en,001,2025-03-07_12h30.16.419,MainFlow,2024.2.4,129.77473698834208,2025-03-07 12h30.27.025501 +0700,
2,1,50,word/worden0501.png,6,6,0,z,1.373980899923481,None,0,6,6,6,43.78070600004867,,,,,,,43.78070600004867,43.78070600004867,44.76724860002287,44.77151300001424,44.77151300001424,44.77151300001424,44.77151300001424,46.14901340007782,z,1.373980899923481,None,,,,,,,,SC_en,001,2025-03-07_12h30.16.419,MainFlow,2024.2.4,129.77473698834208,2025-03-07 12h30.27.025501 +0700,
2,1,41,word/worden0411.png,7,7,0,z,0.792126200045459,None,0,7,7,7,46.15543740009889,,,,,,,46.15543740009889,46.15543740009889,47.14276429999154,47.14686070010066,47.14686070010066,47.14686070010066,47.14686070010066,47.940998000092804,z,0.792126200045459,None,,,,,,,,SC_en,001,2025-03-07_12h30.16.419,MainFlow,2024.2.4,129.77473698834208,2025-03-07 12h30.27.025501 +0700,
2,2,52,word/worden0522.png,8,8,0,x,0.6427031999919564,None,0,8,8,8,47.94742680003401,,,,,,,47.94742680003401,47.94742680003401,48.935766000067815,48.940259400056675,48.940259400056675,48.940259400056675,48.940259400056675,49.58743489999324,x,0.6427031999919564,None,,,,,,,,SC_en,001,2025-03-07_12h30.16.419,MainFlow,2024.2.4,129.77473698834208,2025-03-07 12h30.27.025501 +0700,
2,3,6,word/worden0063.png,9,9,0,x,0.6437906998908147,None,0,9,9,9,49.59379730001092,,,,,,,49.59379730001092,49.59379730001092,50.581047800020315,50.58511440001894,50.58511440001894,50.58511440001894,50.58511440001894,51.23335700004827,x,0.6437906998908147,None,,,,,,,,SC_en,001,2025-03-07_12h30.16.419,MainFlow,2024.2.4,129.77473698834208,2025-03-07 12h30.27.025501 +0700,
2,3,46,word/worden0463.png,10,10,0,x,0.7696574000874534,None,0,10,10,10,51.239205199992284,,,,,,,51.239205199992284,51.239205199992284,52.22726220008917,52.231405200087465,52.231405200087465,52.231405200087465,52.231405200087465,53.003914700006135,x,0.7696574000874534,None,,,,,,,,SC_en,001,2025-03-07_12h30.16.419,MainFlow,2024.2.4,129.77473698834208,2025-03-07 12h30.27.025501 +0700,
2,2,30,word/worden0302.png,11,11,0,x,0.5074647999135777,None,0,11,11,11,53.010351400007494,,,,,,,53.010351400007494,53.010351400007494,53.99831910000648,54.002828099997714,54.002828099997714,54.002828099997714,54.002828099997714,54.51123850001022,x,0.5074647999135777,None,,,,,,,,SC_en,001,2025-03-07_12h30.16.419,MainFlow,2024.2.4,129.77473698834208,2025-03-07 12h30.27.025501 +0700,
2,2,46,word/worden0462.png,12,12,0,x,0.655709799961187,None,0,12,12,12,54.517434400040656,,,,,,,54.517434400040656,54.517434400040656,55.504575000028126,55.509122500079684,55.509122500079684,55.509122500079684,55.509122500079684,56.17076680005994,x,0.655709799961187,None,,,,,,,,SC_en,001,2025-03-07_12h30.16.419,MainFlow,2024.2.4,129.77473698834208,2025-03-07 12h30.27.025501 +0700,
2,2,70,word/worden0702.png,13,13,0,x,1.3042263999814168,None,0,13,13,13,56.1772709999932,,,,,,,56.1772709999932,56.1772709999932,57.16464690002613,57.16889660002198,57.16889660002198,57.16889660002198,57.16889660002198,58.476373200071976,x,1.3042263999814168,None,,,,,,,,SC_en,001,2025-03-07_12h30.16.419,MainFlow,2024.2.4,129.77473698834208,2025-03-07 12h30.27.025501 +0700,
2,1,70,word/worden0701.png,14,14,0,z,0.7940649000229314,None,0,14,14,14,58.48271640005987,,,,,,,58.48271640005987,58.48271640005987,59.46971100009978,59.474075000034645,59.474075000034645,59.474075000034645,59.474075000034645,60.27481269999407,z,0.7940649000229314,None,,,,,,,,SC_en,001,2025-03-07_12h30.16.419,MainFlow,2024.2.4,129.77473698834208,2025-03-07 12h30.27.025501 +0700,
2,1,8,word/worden0081.png,15,15,0,z,0.6632230000104755,None,0,15,15,15,60.28124750009738,,,,,,,60.28124750009738,60.28124750009738,61.26856740005314,61.27286260004621,61.27286260004621,61.27286260004621,61.27286260004621,61.94119819998741,z,0.6632230000104755,None,,,,,,,,SC_en,001,2025-03-07_12h30.16.419,MainFlow,2024.2.4,129.77473698834208,2025-03-07 12h30.27.025501 +0700,
2,3,61,word/worden0613.png,16,16,0,x,1.2449362999759614,None,0,16,16,16,61.94764570007101,,,,,,,61.94764570007101,61.94764570007101,62.93537240009755,62.939272699994035,62.939272699994035,62.939272699994035,62.939272699994035,64.19143070001155,x,1.2449362999759614,None,,,,,,,,SC_en,001,2025-03-07_12h30.16.419,MainFlow,2024.2.4,129.77473698834208,2025-03-07 12h30.27.025501 +0700,
2,3,10,word/worden0103.png,17,17,0,x,0.7650003000162542,None,0,17,17,17,64.19773120002355,,,,,,,64.19773120002355,64.19773120002355,65.18488140008412,65.18869810004253,65.18869810004253,65.18869810004253,65.18869810004253,65.95508810004685,x,0.7650003000162542,None,,,,,,,,SC_en,001,2025-03-07_12h30.16.419,MainFlow,2024.2.4,129.77473698834208,2025-03-07 12h30.27.025501 +0700,
2,3,75,word/worden0753.png,18,18,0,x,0.5939522000262514,None,0,18,18,18,65.9614401999861,,,,,,,65.9614401999861,65.9614401999861,66.94949030003045,66.95362290006597,66.95362290006597,66.95362290006597,66.95362290006597,67.55256069998723,x,0.5939522000262514,None,,,,,,,,SC_en,001,2025-03-07_12h30.16.419,MainFlow,2024.2.4,129.77473698834208,2025-03-07 12h30.27.025501 +0700,
2,2,63,word/worden0632.png,19,19,0,x,0.41961710003670305,None,0,19,19,19,67.5590015000198,,,,,,,67.5590015000198,67.5590015000198,68.5461873000022,68.5518237000797,68.5518237000797,68.5518237000797,68.5518237000797,68.97675929998513,x,0.41961710003670305,None,,,,,,,,SC_en,001,2025-03-07_12h30.16.419,MainFlow,2024.2.4,129.77473698834208,2025-03-07 12h30.27.025501 +0700,
2,3,11,word/worden0113.png,20,20,0,x,0.3664774999488145,None,0,20,20,20,68.9831198999891,,,,,,,68.9831198999891,68.9831198999891,69.9702905000886,69.97428450000007,69.97428450000007,69.97428450000007,69.97428450000007,70.34501170006115,x,0.3664774999488145,None,,,,,,,,SC_en,001,2025-03-07_12h30.16.419,MainFlow,2024.2.4,129.77473698834208,2025-03-07 12h30.27.025501 +0700,
2,2,89,word/worden0892.png,21,21,0,x,0.44260629999917,None,0,21,21,21,70.35142550000455,,,,,,,70.35142550000455,70.35142550000455,71.3383447000524,71.34244969999418,71.34244969999418,71.34244969999418,71.34244969999418,71.78904770000372,x,0.44260629999917,None,,,,,,,,SC_en,001,2025-03-07_12h30.16.419,MainFlow,2024.2.4,129.77473698834208,2025-03-07 12h30.27.025501 +0700,
2,1,9,word/worden0091.png,22,22,0,z,0.8268919000402093,None,0,22,22,22,71.79550960008055,,,,,,,71.79550960008055,71.79550960008055,72.78255980007816,72.78659050003625,72.78659050003625,72.78659050003625,72.78659050003625,73.61537790007424,z,0.8268919000402093,None,,,,,,,,SC_en,001,2025-03-07_12h30.16.419,MainFlow,2024.2.4,129.77473698834208,2025-03-07 12h30.27.025501 +0700,
2,3,28,word/worden0283.png,23,23,0,x,1.528664099983871,None,0,23,23,23,73.6219199000625,,,,,,,73.6219199000625,73.6219199000625,74.60911970003508,74.61339220008813,74.61339220008813,74.61339220008813,74.61339220008813,76.14340599998832,x,1.528664099983871,None,,,,,,,,SC_en,001,2025-03-07_12h30.16.419,MainFlow,2024.2.4,129.77473698834208,2025-03-07 12h30.27.025501 +0700,
2,1,82,word/worden0821.png,24,24,0,z,1.3144905999070033,None,0,24,24,24,76.14979679998942,,,,,,,76.14979679998942,76.14979679998942,77.13681950001046,77.14088550000452,77.14088550000452,77.14088550000452,77.14088550000452,78.4625728999963,z,1.3144905999070033,None,,,,,,,,SC_en,001,2025-03-07_12h30.16.419,MainFlow,2024.2.4,129.77473698834208,2025-03-07 12h30.27.025501 +0700,
2,2,28,word/worden0282.png,25,25,0,x,0.7902469999389723,None,0,25,25,25,78.46912150003482,,,,,,,78.46912150003482,78.46912150003482,79.45600290002767,79.46034330001567,79.46034330001567,79.46034330001567,79.46034330001567,80.2541989000747,x,0.7902469999389723,None,,,,,,,,SC_en,001,2025-03-07_12h30.16.419,MainFlow,2024.2.4,129.77473698834208,2025-03-07 12h30.27.025501 +0700,
2,1,23,word/worden0231.png,26,26,0,z,0.6965474999742582,None,0,26,26,26,80.26070139999501,,,,,,,80.26070139999501,80.26070139999501,81.24728760006838,81.25136840005871,81.25136840005871,81.25136840005871,81.25136840005871,81.94867950002663,z,0.6965474999742582,None,,,,,,,,SC_en,001,2025-03-07_12h30.16.419,MainFlow,2024.2.4,129.77473698834208,2025-03-07 12h30.27.025501 +0700,
2,2,42,word/worden0422.png,27,27,0,x,0.5465676999883726,None,0,27,27,27,81.95496980007738,,,,,,,81.95496980007738,81.95496980007738,82.94162890000734,82.94595070008654,82.94595070008654,82.94595070008654,82.94595070008654,83.49735010007862,x,0.5465676999883726,None,,,,,,,,SC_en,001,2025-03-07_12h30.16.419,MainFlow,2024.2.4,129.77473698834208,2025-03-07 12h30.27.025501 +0700,
2,2,93,word/worden0932.png,28,28,0,x,0.8266548999818042,None,0,28,28,28,83.50377750000916,,,,,,,83.50377750000916,83.50377750000916,84.49066630005836,84.49451160000172,84.49451160000172,84.49451160000172,84.49451160000172,85.32372630003374,x,0.8266548999818042,None,,,,,,,,SC_en,001,2025-03-07_12h30.16.419,MainFlow,2024.2.4,129.77473698834208,2025-03-07 12h30.27.025501 +0700,
2,1,88,word/worden0881.png,29,29,0,z,1.5373022999847308,None,0,29,29,29,85.33020399999805,,,,,,,85.33020399999805,85.33020399999805,86.31711529998574,86.32177610008512,86.32177610008512,86.32177610008512,86.32177610008512,87.86545979999937,z,1.5373022999847308,None,,,,,,,,SC_en,001,2025-03-07_12h30.16.419,MainFlow,2024.2.4,129.77473698834208,2025-03-07 12h30.27.025501 +0700,
2,3,31,word/worden0313.png,30,30,0,x,0.7907366999424994,None,0,30,30,30,87.87138220004272,,,,,,,87.87138220004272,87.87138220004272,88.85895370005164,88.86281489999965,88.86281489999965,88.86281489999965,88.86281489999965,89.65700490004383,x,0.7907366999424994,None,,,,,,,,SC_en,001,2025-03-07_12h30.16.419,MainFlow,2024.2.4,129.77473698834208,2025-03-07 12h30.27.025501 +0700,
2,2,75,word/worden0752.png,31,31,0,x,1.2928217001026496,None,0,31,31,31,89.66340930003207,,,,,,,89.66340930003207,89.66340930003207,90.65094010008033,90.65500999998767,90.65500999998767,90.65500999998767,90.65500999998767,91.94892240001354,x,1.2928217001026496,None,,,,,,,,SC_en,001,2025-03-07_12h30.16.419,MainFlow,2024.2.4,129.77473698834208,2025-03-07 12h30.27.025501 +0700,
2,2,48,word/worden0482.png,32,32,0,x,1.0690724001033232,None,0,32,32,32,91.9548171000788,,,,,,,91.9548171000788,91.9548171000788,92.94240560010076,92.94659900001716,92.94659900001716,92.94659900001716,92.94659900001716,94.01773590000812,x,1.0690724001033232,None,,,,,,,,SC_en,001,2025-03-07_12h30.16.419,MainFlow,2024.2.4,129.77473698834208,2025-03-07 12h30.27.025501 +0700,
2,1,26,word/worden0261.png,33,33,0,x,0.7370617999695241,None,0,33,33,33,94.02415710000787,,,,,,,94.02415710000787,94.02415710000787,95.01295960007701,95.01724910002667,95.01724910002667,95.01724910002667,95.01724910002667,95.75503500003833,x,0.7370617999695241,None,,,,,,,,SC_en,001,2025-03-07_12h30.16.419,MainFlow,2024.2.4,129.77473698834208,2025-03-07 12h30.27.025501 +0700,
2,2,41,word/worden0412.png,34,34,0,x,0.5075876999180764,None,0,34,34,34,95.76114890002646,,,,,,,95.76114890002646,95.76114890002646,96.7480743000051,96.75234240002465,96.75234240002465,96.75234240002465,96.75234240002465,97.2617414999986,x,0.5075876999180764,None,,,,,,,,SC_en,001,2025-03-07_12h30.16.419,MainFlow,2024.2.4,129.77473698834208,2025-03-07 12h30.27.025501 +0700,
2,3,66,word/worden0663.png,35,35,0,x,1.3174886000342667,None,0,35,35,35,97.26812740007881,,,,,,,97.26812740007881,97.26812740007881,98.25515890005045,98.25943340000231,98.25943340000231,98.25943340000231,98.25943340000231,99.58131520007737,x,1.3174886000342667,None,,,,,,,,SC_en,001,2025-03-07_12h30.16.419,MainFlow,2024.2.4,129.77473698834208,2025-03-07 12h30.27.025501 +0700,
2,1,6,word/worden0061.png,36,36,0,x,0.4678560000611469,None,0,36,36,36,99.58746700000484,,,,,,,99.58746700000484,99.58746700000484,100.57449840009212,100.5788523000665,100.5788523000665,100.5788523000665,100.5788523000665,101.05317070009187,x,0.4678560000611469,None,,,,,,,,SC_en,001,2025-03-07_12h30.16.419,MainFlow,2024.2.4,129.77473698834208,2025-03-07 12h30.27.025501 +0700,
2,1,42,word/worden0421.png,37,37,0,z,1.4287938999477774,None,0,37,37,37,101.05952890007757,,,,,,,101.05952890007757,101.05952890007757,102.04663780005649,102.0507334000431,102.0507334000431,102.0507334000431,102.0507334000431,103.48365710000508,z,1.4287938999477774,None,,,,,,,,SC_en,001,2025-03-07_12h30.16.419,MainFlow,2024.2.4,129.77473698834208,2025-03-07 12h30.27.025501 +0700,
2,3,41,word/worden0413.png,38,38,0,x,0.8481155000627041,None,0,38,38,38,103.49012430000585,,,,,,,103.49012430000585,103.49012430000585,104.47713260003366,104.48126160004176,104.48126160004176,104.48126160004176,104.48126160004176,105.33105410006829,x,0.8481155000627041,None,,,,,,,,SC_en,001,2025-03-07_12h30.16.419,MainFlow,2024.2.4,129.77473698834208,2025-03-07 12h30.27.025501 +0700,
2,2,23,word/worden0232.png,39,39,0,x,0.5687619999516755,None,0,39,39,39,105.33746110007633,,,,,,,105.33746110007633,105.33746110007633,106.32478080003057,106.32881000009365,106.32881000009365,106.32881000009365,106.32881000009365,106.9004579000175,x,0.5687619999516755,None,,,,,,,,SC_en,001,2025-03-07_12h30.16.419,MainFlow,2024.2.4,129.77473698834208,2025-03-07 12h30.27.025501 +0700,
2,3,96,word/worden0963.png,40,40,0,x,1.354477099957876,None,0,40,40,40,106.90669690002687,,,,,,,106.90669690002687,106.90669690002687,107.89402050001081,107.89826370007358,107.89826370007358,107.89826370007358,107.89826370007358,109.25444980000611,x,1.354477099957876,None,,,,,,,,SC_en,001,2025-03-07_12h30.16.419,MainFlow,2024.2.4,129.77473698834208,2025-03-07 12h30.27.025501 +0700,
2,1,61,word/worden0611.png,41,41,0,z,0.862905599991791,None,0,41,41,41,109.26097120007034,,,,,,,109.26097120007034,109.26097120007034,110.24839730001986,110.25261060008779,110.25261060008779,110.25261060008779,110.25261060008779,111.12232780002523,z,0.862905599991791,None,,,,,,,,SC_en,001,2025-03-07_12h30.16.419,MainFlow,2024.2.4,129.77473698834208,2025-03-07 12h30.27.025501 +0700,
2,3,9,word/worden0093.png,42,42,0,x,0.9942038001026958,None,0,42,42,42,111.12880440009758,,,,,,,111.12880440009758,111.12880440009758,112.11619890003931,112.1203882000409,112.1203882000409,112.1203882000409,112.1203882000409,113.1153441000497,x,0.9942038001026958,None,,,,,,,,SC_en,001,2025-03-07_12h30.16.419,MainFlow,2024.2.4,129.77473698834208,2025-03-07 12h30.27.025501 +0700,
2,3,63,word/worden0633.png,43,43,0,x,1.4648394000250846,None,0,43,43,43,113.12164660007693,,,,,,,113.12164660007693,113.12164660007693,114.10945940006059,114.11322830000427,114.11322830000427,114.11322830000427,114.11322830000427,115.58067639998626,x,1.4648394000250846,None,,,,,,,,SC_en,001,2025-03-07_12h30.16.419,MainFlow,2024.2.4,129.77473698834208,2025-03-07 12h30.27.025501 +0700,
2,3,50,word/worden0503.png,44,44,0,x,0.988619799958542,None,0,44,44,44,115.58710370003246,,,,,,,115.58710370003246,115.58710370003246,116.57433810003567,116.57840250001755,116.57840250001755,116.57840250001755,116.57840250001755,117.5735598000465,x,0.988619799958542,None,,,,,,,,SC_en,001,2025-03-07_12h30.16.419,MainFlow,2024.2.4,129.77473698834208,2025-03-07 12h30.27.025501 +0700,
2,2,27,word/worden0272.png,45,45,0,x,0.49182660004589707,None,0,45,45,45,117.5800890000537,,,,,,,117.5800890000537,117.5800890000537,118.5672360000899,118.5713751000585,118.5713751000585,118.5713751000585,118.5713751000585,119.06668729998637,x,0.49182660004589707,None,,,,,,,,SC_en,001,2025-03-07_12h30.16.419,MainFlow,2024.2.4,129.77473698834208,2025-03-07 12h30.27.025501 +0700,
2,2,61,word/worden0612.png,46,46,0,x,0.5503363999305293,None,0,46,46,46,119.07304759998806,,,,,,,119.07304759998806,119.07304759998806,120.0602165000746,120.06435900006909,120.06435900006909,120.06435900006909,120.06435900006909,120.6155402000295,x,0.5503363999305293,None,,,,,,,,SC_en,001,2025-03-07_12h30.16.419,MainFlow,2024.2.4,129.77473698834208,2025-03-07 12h30.27.025501 +0700,
2,3,7,word/worden0073.png,47,47,0,x,0.48600599996279925,None,0,47,47,47,120.62175080005545,,,,,,,120.62175080005545,120.62175080005545,121.60888200008776,121.61296340008266,121.61296340008266,121.61296340008266,121.61296340008266,122.10131300007924,x,0.48600599996279925,None,,,,,,,,SC_en,001,2025-03-07_12h30.16.419,MainFlow,2024.2.4,129.77473698834208,2025-03-07 12h30.27.025501 +0700,
2,3,23,word/worden0233.png,48,48,0,x,0.6245757000287995,None,0,48,48,48,122.10774520004634,,,,,,,122.10774520004634,122.10774520004634,123.09435290005058,123.09854840009939,123.09854840009939,123.09854840009939,123.09854840009939,123.72625750000589,x,0.6245757000287995,None,,,,,,,,SC_en,001,2025-03-07_12h30.16.419,MainFlow,2024.2.4,129.77473698834208,2025-03-07 12h30.27.025501 +0700,
2,1,95,word/worden0951.png,49,49,0,z,0.6739461000543088,None,0,49,49,49,123.7327471000608,,,,,,,123.7327471000608,123.7327471000608,124.71970540005714,124.72359579999465,124.72359579999465,124.72359579999465,124.72359579999465,125.39972039998975,z,0.6739461000543088,None,,,,,,,,SC_en,001,2025-03-07_12h30.16.419,MainFlow,2024.2.4,129.77473698834208,2025-03-07 12h30.27.025501 +0700,
2,3,42,word/worden0423.png,50,50,0,x,0.673638500040397,None,0,50,50,50,125.40620210010093,,,,,,,125.40620210010093,125.40620210010093,126.39306830009446,126.39713749999646,126.39713749999646,126.39713749999646,126.39713749999646,127.07357240002602,x,0.673638500040397,None,,,,,,,,SC_en,001,2025-03-07_12h30.16.419,MainFlow,2024.2.4,129.77473698834208,2025-03-07 12h30.27.025501 +0700,
2,1,30,word/worden0301.png,51,51,0,z,0.6535117999883369,None,0,51,51,51,127.08005079999566,,,,,,,127.08005079999566,127.08005079999566,128.06750160001684,128.07177000003867,128.07177000003867,128.07177000003867,128.07177000003867,128.72622300009243,z,0.6535117999883369,None,,,,,,,,SC_en,001,2025-03-07_12h30.16.419,MainFlow,2024.2.4,129.77473698834208,2025-03-07 12h30.27.025501 +0700,
2,3,87,word/worden0873.png,52,52,0,x,0.5011417000787333,None,0,52,52,52,128.7325228000991,,,,,,,128.7325228000991,128.7325228000991,129.71976200002246,129.7239367000293,129.7239367000293,129.7239367000293,129.7239367000293,130.22605110006407,x,0.5011417000787333,None,,,,,,,,SC_en,001,2025-03-07_12h30.16.419,MainFlow,2024.2.4,129.77473698834208,2025-03-07 12h30.27.025501 +0700,
2,2,6,word/worden0062.png,53,53,0,x,0.46466380008496344,None,0,53,53,53,130.23239670007024,,,,,,,130.23239670007024,130.23239670007024,131.21997129998636,131.22395890008193,131.22395890008193,131.22395890008193,131.22395890008193,131.6914813000476,x,0.46466380008496344,None,,,,,,,,SC_en,001,2025-03-07_12h30.16.419,MainFlow,2024.2.4,129.77473698834208,2025-03-07 12h30.27.025501 +0700,
2,2,68,word/worden0682.png,54,54,0,x,0.4230703000212088,None,0,54,54,54,131.69793440005742,,,,,,,131.69793440005742,131.69793440005742,132.68477990000974,132.68894280004315,132.68894280004315,132.68894280004315,132.68894280004315,133.11512850003783,x,0.4230703000212088,None,,,,,,,,SC_en,001,2025-03-07_12h30.16.419,MainFlow,2024.2.4,129.77473698834208,2025-03-07 12h30.27.025501 +0700,
2,3,1,word/worden0013.png,55,55,0,x,0.428084300016053,None,0,55,55,55,133.1215520000551,,,,,,,133.1215520000551,133.1215520000551,134.10911510000005,134.11319310008548,134.11319310008548,134.11319310008548,134.11319310008548,134.54527750005946,x,0.428084300016053,None,,,,,,,,SC_en,001,2025-03-07_12h30.16.419,MainFlow,2024.2.4,129.77473698834208,2025-03-07 12h30.27.025501 +0700,
2,2,94,word/worden0942.png,56,56,0,x,0.4664204999571666,None,0,56,56,56,134.5516576000955,,,,,,,134.5516576000955,134.5516576000955,135.5398904000176,135.54413809999824,135.54413809999824,135.54413809999824,135.54413809999824,136.01752210000996,x,0.4664204999571666,None,,,,,,,,SC_en,001,2025-03-07_12h30.16.419,MainFlow,2024.2.4,129.77473698834208,2025-03-07 12h30.27.025501 +0700,
2,3,82,word/worden0823.png,57,57,0,x,0.4045764000620693,None,0,57,57,57,136.02421709999908,,,,,,,136.02421709999908,136.02421709999908,137.01158920000307,137.01577110006474,137.01577110006474,137.01577110006474,137.01577110006474,137.42747130000498,x,0.4045764000620693,None,,,,,,,,SC_en,001,2025-03-07_12h30.16.419,MainFlow,2024.2.4,129.77473698834208,2025-03-07 12h30.27.025501 +0700,
2,1,89,word/worden0891.png,58,58,0,z,0.5290248999372125,None,0,58,58,58,137.43390950001776,,,,,,,137.43390950001776,137.43390950001776,138.42133949999698,138.42531600000802,138.42531600000802,138.42531600000802,138.42531600000802,138.9553982000798,z,0.5290248999372125,None,,,,,,,,SC_en,001,2025-03-07_12h30.16.419,MainFlow,2024.2.4,129.77473698834208,2025-03-07 12h30.27.025501 +0700,
2,1,31,word/worden0311.png,59,59,0,z,0.5644629000453278,None,0,59,59,59,138.96174230007455,,,,,,,138.96174230007455,138.96174230007455,139.94900770008098,139.95312910003122,139.95312910003122,139.95312910003122,139.95312910003122,140.52449680003338,z,0.5644629000453278,None,,,,,,,,SC_en,001,2025-03-07_12h30.16.419,MainFlow,2024.2.4,129.77473698834208,2025-03-07 12h30.27.025501 +0700,
2,2,51,word/worden0512.png,60,60,0,x,0.560181500040926,None,0,60,60,60,140.53101440006867,,,,,,,140.53101440006867,140.53101440006867,141.51807600003667,141.52222600008827,141.52222600008827,141.52222600008827,141.52222600008827,142.08658920007292,x,0.560181500040926,None,,,,,,,,SC_en,001,2025-03-07_12h30.16.419,MainFlow,2024.2.4,129.77473698834208,2025-03-07 12h30.27.025501 +0700,
2,3,44,word/worden0443.png,61,61,0,x,0.8709761999780312,None,0,61,61,61,142.09319240006153,,,,,,,142.09319240006153,142.09319240006153,143.08083029999398,143.0846765000606,143.0846765000606,143.0846765000606,143.0846765000606,143.96213480003644,x,0.8709761999780312,None,,,,,,,,SC_en,001,2025-03-07_12h30.16.419,MainFlow,2024.2.4,129.77473698834208,2025-03-07 12h30.27.025501 +0700,
2,1,1,word/worden0011.png,62,62,0,z,0.4644838999956846,None,0,62,62,62,143.9684551000828,,,,,,,143.9684551000828,143.9684551000828,144.9558675000444,144.9607031000778,144.9607031000778,144.9607031000778,144.9607031000778,145.42700750008225,z,0.4644838999956846,None,,,,,,,,SC_en,001,2025-03-07_12h30.16.419,MainFlow,2024.2.4,129.77473698834208,2025-03-07 12h30.27.025501 +0700,
2,1,96,word/worden0961.png,63,63,0,z,0.6643141999375075,None,0,63,63,63,145.4334838000359,,,,,,,145.4334838000359,145.4334838000359,146.42085860006046,146.42480660008732,146.42480660008732,146.42480660008732,146.42480660008732,147.0940399999963,z,0.6643141999375075,None,,,,,,,,SC_en,001,2025-03-07_12h30.16.419,MainFlow,2024.2.4,129.77473698834208,2025-03-07 12h30.27.025501 +0700,
2,1,11,word/worden0111.png,64,64,0,x,0.7202593999681994,None,0,64,64,64,147.10039959999267,,,,,,,147.10039959999267,147.10039959999267,148.08826350001618,148.0928957000142,148.0928957000142,148.0928957000142,148.0928957000142,148.8165958999889,x,0.7202593999681994,None,,,,,,,,SC_en,001,2025-03-07_12h30.16.419,MainFlow,2024.2.4,129.77473698834208,2025-03-07 12h30.27.025501 +0700,
2,3,70,word/worden0703.png,65,65,0,x,0.4979741999413818,None,0,65,65,65,148.82262690004427,,,,,,,148.82262690004427,148.82262690004427,149.80994730000384,149.8140464000171,149.8140464000171,149.8140464000171,149.8140464000171,150.31625840009656,x,0.4979741999413818,None,,,,,,,,SC_en,001,2025-03-07_12h30.16.419,MainFlow,2024.2.4,129.77473698834208,2025-03-07 12h30.27.025501 +0700,
2,3,71,word/worden0713.png,66,66,0,x,0.4969483999302611,None,0,66,66,66,150.32261989999097,,,,,,,150.32261989999097,150.32261989999097,151.3101442999905,151.31436950003263,151.31436950003263,151.31436950003263,151.31436950003263,151.81615730002522,x,0.4969483999302611,None,,,,,,,,SC_en,001,2025-03-07_12h30.16.419,MainFlow,2024.2.4,129.77473698834208,2025-03-07 12h30.27.025501 +0700,
2,1,68,word/worden0681.png,67,67,0,z,0.7167783000040799,None,0,67,67,67,151.82257030007895,,,,,,,151.82257030007895,151.82257030007895,152.80966290005017,152.81370250007603,152.81370250007603,152.81370250007603,152.81370250007603,153.53175359999295,z,0.7167783000040799,None,,,,,,,,SC_en,001,2025-03-07_12h30.16.419,MainFlow,2024.2.4,129.77473698834208,2025-03-07 12h30.27.025501 +0700,
2,2,88,word/worden0882.png,68,68,0,x,0.6906646999996156,None,0,68,68,68,153.53773790004198,,,,,,,153.53773790004198,153.53773790004198,154.52517110004555,154.5291885000188,154.5291885000188,154.5291885000188,154.5291885000188,155.22567630000412,x,0.6906646999996156,None,,,,,,,,SC_en,001,2025-03-07_12h30.16.419,MainFlow,2024.2.4,129.77473698834208,2025-03-07 12h30.27.025501 +0700,
2,2,50,word/worden0502.png,69,69,0,x,0.7052519000135362,None,0,69,69,69,155.23214099998586,,,,,,,155.23214099998586,155.23214099998586,156.21906730008777,156.22343550005462,156.22343550005462,156.22343550005462,156.22343550005462,156.93397610005923,x,0.7052519000135362,None,,,,,,,,SC_en,001,2025-03-07_12h30.16.419,MainFlow,2024.2.4,129.77473698834208,2025-03-07 12h30.27.025501 +0700,
2,3,93,word/worden0933.png,70,70,0,x,1.3897843000013381,None,0,70,70,70,156.9405157000292,,,,,,,156.9405157000292,156.9405157000292,157.92752989998553,157.93170590000227,157.93170590000227,157.93170590000227,157.93170590000227,159.3228387000272,x,1.3897843000013381,None,,,,,,,,SC_en,001,2025-03-07_12h30.16.419,MainFlow,2024.2.4,129.77473698834208,2025-03-07 12h30.27.025501 +0700,
2,1,63,word/worden0631.png,71,71,0,z,0.7052620000904426,None,0,71,71,71,159.32912800007034,,,,,,,159.32912800007034,159.32912800007034,160.31672280002385,160.3208375000395,160.3208375000395,160.3208375000395,160.3208375000395,161.03107000002638,z,0.7052620000904426,None,,,,,,,,SC_en,001,2025-03-07_12h30.16.419,MainFlow,2024.2.4,129.77473698834208,2025-03-07 12h30.27.025501 +0700,
2,2,7,word/worden0072.png,72,72,0,x,0.5298921000212431,None,0,72,72,72,161.0374139000196,,,,,,,161.0374139000196,161.0374139000196,162.02588060009293,162.03030500002205,162.03030500002205,162.03030500002205,162.03030500002205,162.56654620007612,x,0.5298921000212431,None,,,,,,,,SC_en,001,2025-03-07_12h30.16.419,MainFlow,2024.2.4,129.77473698834208,2025-03-07 12h30.27.025501 +0700,
2,2,64,word/worden0642.png,73,73,0,x,0.6178697000723332,None,0,73,73,73,162.57239210000262,,,,,,,162.57239210000262,162.57239210000262,163.56225429999176,163.5668158000335,163.5668158000335,163.5668158000335,163.5668158000335,164.18623630004004,x,0.6178697000723332,None,,,,,,,,SC_en,001,2025-03-07_12h30.16.419,MainFlow,2024.2.4,129.77473698834208,2025-03-07 12h30.27.025501 +0700,
2,1,24,word/worden0241.png,74,74,0,z,0.8667933999095112,None,0,74,74,74,164.19255440006964,,,,,,,164.19255440006964,164.19255440006964,165.1820492000552,165.18650300009176,165.18650300009176,165.18650300009176,165.18650300009176,166.05559060000814,z,0.8667933999095112,None,,,,,,,,SC_en,001,2025-03-07_12h30.16.419,MainFlow,2024.2.4,129.77473698834208,2025-03-07 12h30.27.025501 +0700,
2,2,1,word/worden0012.png,75,75,0,x,0.5069897000212222,None,0,75,75,75,166.06200450006872,,,,,,,166.06200450006872,166.06200450006872,167.05040340009145,167.05489120003767,167.05489120003767,167.05489120003767,167.05489120003767,167.56331390002742,x,0.5069897000212222,None,,,,,,,,SC_en,001,2025-03-07_12h30.16.419,MainFlow,2024.2.4,129.77473698834208,2025-03-07 12h30.27.025501 +0700,
2,1,46,word/worden0461.png,76,76,0,z,0.5660839000483975,None,0,76,76,76,167.56968970003072,,,,,,,167.56968970003072,167.56968970003072,168.55622300005052,168.56049810000695,168.56049810000695,168.56049810000695,168.56049810000695,169.1323424000293,z,0.5660839000483975,None,,,,,,,,SC_en,001,2025-03-07_12h30.16.419,MainFlow,2024.2.4,129.77473698834208,2025-03-07 12h30.27.025501 +0700,
2,3,52,word/worden0523.png,77,77,0,x,0.9554161999840289,None,0,77,77,77,169.1388142000651,,,,,,,169.1388142000651,169.1388142000651,170.12590780004393,170.13030050008092,170.13030050008092,170.13030050008092,170.13030050008092,171.09086710005067,x,0.9554161999840289,None,,,,,,,,SC_en,001,2025-03-07_12h30.16.419,MainFlow,2024.2.4,129.77473698834208,2025-03-07 12h30.27.025501 +0700,
2,2,31,word/worden0312.png,78,78,0,x,0.6008828999474645,None,0,78,78,78,171.0973088000901,,,,,,,171.0973088000901,171.0973088000901,172.08455870009493,172.08874320005998,172.08874320005998,172.08874320005998,172.08874320005998,172.6952045999933,x,0.6008828999474645,None,,,,,,,,SC_en,001,2025-03-07_12h30.16.419,MainFlow,2024.2.4,129.77473698834208,2025-03-07 12h30.27.025501 +0700,
2,2,95,word/worden0952.png,79,79,0,x,1.1699340998893604,None,0,79,79,79,172.70146880007815,,,,,,,172.70146880007815,172.70146880007815,173.68866730004083,173.69269230007194,173.69269230007194,173.69269230007194,173.69269230007194,174.8684074000921,x,1.1699340998893604,None,,,,,,,,SC_en,001,2025-03-07_12h30.16.419,MainFlow,2024.2.4,129.77473698834208,2025-03-07 12h30.27.025501 +0700,
2,1,93,word/worden0931.png,80,80,0,z,0.6916961999377236,None,0,80,80,80,174.8748523000395,,,,,,,174.8748523000395,174.8748523000395,175.8615134001011,175.8654147000052,175.8654147000052,175.8654147000052,175.8654147000052,176.56270380003843,z,0.6916961999377236,None,,,,,,,,SC_en,001,2025-03-07_12h30.16.419,MainFlow,2024.2.4,129.77473698834208,2025-03-07 12h30.27.025501 +0700,
2,1,71,word/worden0711.png,81,81,0,z,0.7999242000514641,None,0,81,81,81,176.5691299000755,,,,,,,176.5691299000755,176.5691299000755,177.5569881000556,177.56119480007328,177.56119480007328,177.56119480007328,177.56119480007328,178.3680933000287,z,0.7999242000514641,None,,,,,,,,SC_en,001,2025-03-07_12h30.16.419,MainFlow,2024.2.4,129.77473698834208,2025-03-07 12h30.27.025501 +0700,
2,1,48,word/worden0481.png,82,82,0,z,0.6887697998899966,None,0,82,82,82,178.37460410001222,,,,,,,178.37460410001222,178.37460410001222,179.36204989999533,179.36596870003268,179.36596870003268,179.36596870003268,179.36596870003268,180.0560725000687,z,0.6887697998899966,None,,,,,,,,SC_en,001,2025-03-07_12h30.16.419,MainFlow,2024.2.4,129.77473698834208,2025-03-07 12h30.27.025501 +0700,
2,1,94,word/worden0941.png,83,83,0,z,1.0706957000074908,None,0,83,83,83,180.06239179999102,,,,,,,180.06239179999102,180.06239179999102,181.05014950002078,181.05421319999732,181.05421319999732,181.05421319999732,181.05421319999732,182.13204240007326,z,1.0706957000074908,None,,,,,,,,SC_en,001,2025-03-07_12h30.16.419,MainFlow,2024.2.4,129.77473698834208,2025-03-07 12h30.27.025501 +0700,
2,3,68,word/worden0683.png,84,84,0,x,1.776514400029555,None,0,84,84,84,182.13866040005814,,,,,,,182.13866040005814,182.13866040005814,183.1261415000772,183.130342700053,183.130342700053,183.130342700053,183.130342700053,184.90964570001233,x,1.776514400029555,None,,,,,,,,SC_en,001,2025-03-07_12h30.16.419,MainFlow,2024.2.4,129.77473698834208,2025-03-07 12h30.27.025501 +0700,
2,2,66,word/worden0662.png,85,85,0,x,0.9379977999487892,None,0,85,85,85,184.916114200023,,,,,,,184.916114200023,184.916114200023,185.90405300003476,185.90826970001217,185.90826970001217,185.90826970001217,185.90826970001217,186.84742250002455,x,0.9379977999487892,None,,,,,,,,SC_en,001,2025-03-07_12h30.16.419,MainFlow,2024.2.4,129.77473698834208,2025-03-07 12h30.27.025501 +0700,
2,3,95,word/worden0953.png,86,86,0,x,1.202125099953264,None,0,86,86,86,186.85374739998952,,,,,,,186.85374739998952,186.85374739998952,187.84226250008214,187.8470237000147,187.8470237000147,187.8470237000147,187.8470237000147,189.05634460004512,x,1.202125099953264,None,,,,,,,,SC_en,001,2025-03-07_12h30.16.419,MainFlow,2024.2.4,129.77473698834208,2025-03-07 12h30.27.025501 +0700,
2,3,30,word/worden0303.png,87,87,0,x,0.6143966000527143,None,0,87,87,87,189.06290710007306,,,,,,,189.06290710007306,189.06290710007306,190.05026190006174,190.0542720000958,190.0542720000958,190.0542720000958,190.0542720000958,190.67435550002847,x,0.6143966000527143,None,,,,,,,,SC_en,001,2025-03-07_12h30.16.419,MainFlow,2024.2.4,129.77473698834208,2025-03-07 12h30.27.025501 +0700,
2,3,22,word/worden0223.png,88,88,0,x,0.7306417999789119,None,0,88,88,88,190.6810743000824,,,,,,,190.6810743000824,190.6810743000824,191.66847530007362,191.67246150004212,191.67246150004212,191.67246150004212,191.67246150004212,192.4038692000322,x,0.7306417999789119,None,,,,,,,,SC_en,001,2025-03-07_12h30.16.419,MainFlow,2024.2.4,129.77473698834208,2025-03-07 12h30.27.025501 +0700,
2,1,75,word/worden0751.png,89,89,0,z,0.5542764000128955,None,0,89,89,89,192.41016830003355,,,,,,,192.41016830003355,192.41016830003355,193.39810410002246,193.4029015999986,193.4029015999986,193.4029015999986,193.4029015999986,193.95964970008936,z,0.5542764000128955,None,,,,,,,,SC_en,001,2025-03-07_12h30.16.419,MainFlow,2024.2.4,129.77473698834208,2025-03-07 12h30.27.025501 +0700,
2,1,64,word/worden0641.png,90,90,0,z,0.6928572999313474,None,0,90,90,90,193.96610670001246,,,,,,,193.96610670001246,193.96610670001246,194.95354120002594,194.95789319998585,194.95789319998585,194.95789319998585,194.95789319998585,195.6540524000302,z,0.6928572999313474,None,,,,,,,,SC_en,001,2025-03-07_12h30.16.419,MainFlow,2024.2.4,129.77473698834208,2025-03-07 12h30.27.025501 +0700,
2,1,27,word/worden0271.png,91,91,0,z,0.6089742999756709,None,0,91,91,91,195.6603863000637,,,,,,,195.6603863000637,195.6603863000637,196.6474859000882,196.65174680005293,196.65174680005293,196.65174680005293,196.65174680005293,197.26508460007608,z,0.6089742999756709,None,,,,,,,,SC_en,001,2025-03-07_12h30.16.419,MainFlow,2024.2.4,129.77473698834208,2025-03-07 12h30.27.025501 +0700,
2,2,24,word/worden0242.png,92,92,0,x,0.7056736000813544,None,0,92,92,92,197.2714994000271,,,,,,,197.2714994000271,197.2714994000271,198.2592112000566,198.26329420006368,198.26329420006368,198.26329420006368,198.26329420006368,198.9732855000766,x,0.7056736000813544,None,,,,,,,,SC_en,001,2025-03-07_12h30.16.419,MainFlow,2024.2.4,129.77473698834208,2025-03-07 12h30.27.025501 +0700,
2,1,87,word/worden0871.png,93,93,0,z,0.5469435000559315,None,0,93,93,93,198.97978170006536,,,,,,,198.97978170006536,198.97978170006536,199.9668374999892,199.97099210007582,199.97099210007582,199.97099210007582,199.97099210007582,200.5216802000068,z,0.5469435000559315,None,,,,,,,,SC_en,001,2025-03-07_12h30.16.419,MainFlow,2024.2.4,129.77473698834208,2025-03-07 12h30.27.025501 +0700,
2,1,7,word/worden0071.png,94,94,0,z,0.41604539996478707,None,0,94,94,94,200.52807200001553,,,,,,,200.52807200001553,200.52807200001553,201.51625169999897,201.52088690001983,201.52088690001983,201.52088690001983,201.52088690001983,201.939056500094,z,0.41604539996478707,None,,,,,,,,SC_en,001,2025-03-07_12h30.16.419,MainFlow,2024.2.4,129.77473698834208,2025-03-07 12h30.27.025501 +0700,
2,2,9,word/worden0092.png,95,95,0,x,0.5044436999596655,None,0,95,95,95,201.94529659999534,,,,,,,201.94529659999534,201.94529659999534,202.9328176000854,202.93690070009325,202.93690070009325,202.93690070009325,202.93690070009325,203.44578559999354,x,0.5044436999596655,None,,,,,,,,SC_en,001,2025-03-07_12h30.16.419,MainFlow,2024.2.4,129.77473698834208,2025-03-07 12h30.27.025501 +0700,
2,1,44,word/worden0441.png,96,96,0,z,0.69247190002352,None,0,96,96,96,203.4523113000905,,,,,,,203.4523113000905,203.4523113000905,204.4397957000183,204.44416389998514,204.44416389998514,204.44416389998514,204.44416389998514,205.14044660003856,z,0.69247190002352,None,,,,,,,,SC_en,001,2025-03-07_12h30.16.419,MainFlow,2024.2.4,129.77473698834208,2025-03-07 12h30.27.025501 +0700,
2,2,10,word/worden0102.png,97,97,0,x,0.5719241000479087,None,0,97,97,97,205.1466352000134,,,,,,,205.1466352000134,205.1466352000134,206.1338720000349,206.13799980003387,206.13799980003387,206.13799980003387,206.13799980003387,206.71644009999,x,0.5719241000479087,None,,,,,,,,SC_en,001,2025-03-07_12h30.16.419,MainFlow,2024.2.4,129.77473698834208,2025-03-07 12h30.27.025501 +0700,
2,2,82,word/worden0822.png,98,98,0,x,0.9095042999833822,None,0,98,98,98,206.72282920009457,,,,,,,206.72282920009457,206.72282920009457,207.709958499996,207.7139923000941,207.7139923000941,207.7139923000941,207.7139923000941,208.6260010000551,x,0.9095042999833822,None,,,,,,,,SC_en,001,2025-03-07_12h30.16.419,MainFlow,2024.2.4,129.77473698834208,2025-03-07 12h30.27.025501 +0700,
2,3,89,word/worden0893.png,99,99,0,x,0.46271929994691163,None,0,99,99,99,208.63248360005673,,,,,,,208.63248360005673,208.63248360005673,209.61996050004382,209.62439620005898,209.62439620005898,209.62439620005898,209.62439620005898,210.0916603000369,x,0.46271929994691163,None,,,,,,,,SC_en,001,2025-03-07_12h30.16.419,MainFlow,2024.2.4,129.77473698834208,2025-03-07 12h30.27.025501 +0700,
2,2,44,word/worden0442.png,100,100,0,x,0.41086469998117536,None,0,100,100,100,210.09777330001816,,,,,,,210.09777330001816,210.09777330001816,211.08579190005548,211.09058960003313,211.09058960003313,211.09058960003313,211.09058960003313,211.50837970001157,x,0.41086469998117536,None,,,,,,,,SC_en,001,2025-03-07_12h30.16.419,MainFlow,2024.2.4,129.77473698834208,2025-03-07 12h30.27.025501 +0700,
2,1,52,word/worden0521.png,101,101,0,z,0.5637158000608906,None,0,101,101,101,211.5149236000143,,,,,,,211.5149236000143,211.5149236000143,212.50297040003352,212.50758540001698,212.50758540001698,212.50758540001698,212.50758540001698,213.0783676999854,z,0.5637158000608906,None,,,,,,,,SC_en,001,2025-03-07_12h30.16.419,MainFlow,2024.2.4,129.77473698834208,2025-03-07 12h30.27.025501 +0700,
2,1,51,word/worden0511.png,102,102,0,z,0.5543100000359118,None,0,102,102,102,213.08483160007745,,,,,,,213.08483160007745,213.08483160007745,214.07151540007908,214.07570340007078,214.07570340007078,214.07570340007078,214.07570340007078,214.6336420000298,z,0.5543100000359118,None,,,,,,,,SC_en,001,2025-03-07_12h30.16.419,MainFlow,2024.2.4,129.77473698834208,2025-03-07 12h30.27.025501 +0700,
2,3,51,word/worden0513.png,103,103,0,x,0.5686512999236584,None,0,103,103,103,214.64001460000873,,,,,,,214.64001460000873,214.64001460000873,215.62708000000566,215.6312105000252,215.6312105000252,215.6312105000252,215.6312105000252,216.20332100009546,x,0.5686512999236584,None,,,,,,,,SC_en,001,2025-03-07_12h30.16.419,MainFlow,2024.2.4,129.77473698834208,2025-03-07 12h30.27.025501 +0700,
2,2,8,word/worden0082.png,104,104,0,x,0.4112940999912098,None,0,104,104,104,216.20975879998878,,,,,,,216.20975879998878,216.20975879998878,217.19799300003797,217.20231050008442,217.20231050008442,217.20231050008442,217.20231050008442,217.6203737000469,x,0.4112940999912098,None,,,,,,,,SC_en,001,2025-03-07_12h30.16.419,MainFlow,2024.2.4,129.77473698834208,2025-03-07 12h30.27.025501 +0700,
2,2,3,word/worden0032.png,105,105,0,x,0.5248082999605685,None,0,105,105,105,217.62669740000274,,,,,,,217.62669740000274,217.62669740000274,218.61368400009815,218.61783990007825,218.61783990007825,218.61783990007825,218.61783990007825,219.14802180009428,x,0.5248082999605685,None,,,,,,,,SC_en,001,2025-03-07_12h30.16.419,MainFlow,2024.2.4,129.77473698834208,2025-03-07 12h30.27.025501 +0700,
2,3,3,word/worden0033.png,106,106,0,x,0.4154900999274105,None,0,106,106,106,219.1544371000491,,,,,,,219.1544371000491,219.1544371000491,220.14126210007817,220.14558230002876,220.14558230002876,220.14558230002876,220.14558230002876,220.5649151999969,x,0.4154900999274105,None,,,,,,,,SC_en,001,2025-03-07_12h30.16.419,MainFlow,2024.2.4,129.77473698834208,2025-03-07 12h30.27.025501 +0700,
2,3,64,word/worden0643.png,107,107,0,x,0.47892549994867295,None,0,107,107,107,220.5711759000551,,,,,,,220.5711759000551,220.5711759000551,221.5579255000921,221.56184340000618,221.56184340000618,221.56184340000618,221.56184340000618,222.0437080000993,x,0.47892549994867295,None,,,,,,,,SC_en,001,2025-03-07_12h30.16.419,MainFlow,2024.2.4,129.77473698834208,2025-03-07 12h30.27.025501 +0700,
2,3,26,word/worden0263.png,108,108,0,x,0.3543442999944091,None,0,108,108,108,222.0501285000937,,,,,,,222.0501285000937,222.0501285000937,223.0366838000482,223.04058220004663,223.04058220004663,223.04058220004663,223.04058220004663,223.3980673000915,x,0.3543442999944091,None,,,,,,,,SC_en,001,2025-03-07_12h30.16.419,MainFlow,2024.2.4,129.77473698834208,2025-03-07 12h30.27.025501 +0700,
2,2,96,word/worden0962.png,109,109,0,x,0.44339570007286966,None,0,109,109,109,223.40449410001747,,,,,,,223.40449410001747,223.40449410001747,224.39158060005866,224.395907200058,224.395907200058,224.395907200058,224.395907200058,224.8425490000518,x,0.44339570007286966,None,,,,,,,,SC_en,001,2025-03-07_12h30.16.419,MainFlow,2024.2.4,129.77473698834208,2025-03-07 12h30.27.025501 +0700,
2,1,22,word/worden0221.png,110,110,0,z,0.5036530999932438,None,0,110,110,110,224.84854590008035,,,,,,,224.84854590008035,224.84854590008035,225.83550350007135,225.83973760006484,225.83973760006484,225.83973760006484,225.83973760006484,226.348955100053,z,0.5036530999932438,None,,,,,,,,SC_en,001,2025-03-07_12h30.16.419,MainFlow,2024.2.4,129.77473698834208,2025-03-07 12h30.27.025501 +0700,
2,2,22,word/worden0222.png,111,111,0,x,0.8366569000063464,None,0,111,111,111,226.35549830005039,,,,,,,226.35549830005039,226.35549830005039,227.34252820000984,227.346545800101,227.346545800101,227.346545800101,227.346545800101,228.18935590004548,x,0.8366569000063464,None,,,,,,,,SC_en,001,2025-03-07_12h30.16.419,MainFlow,2024.2.4,129.77473698834208,2025-03-07 12h30.27.025501 +0700,
2,2,26,word/worden0262.png,112,112,0,x,0.4144891999894753,None,0,112,112,112,228.19584770000074,,,,,,,228.19584770000074,228.19584770000074,229.18269839999266,229.18652119999751,229.18652119999751,229.18652119999751,229.18652119999751,229.60605830000713,x,0.4144891999894753,None,,,,,,,,SC_en,001,2025-03-07_12h30.16.419,MainFlow,2024.2.4,129.77473698834208,2025-03-07 12h30.27.025501 +0700,
2,3,48,word/worden0483.png,113,113,0,x,0.44190430000890046,None,0,113,113,113,229.6125354000833,,,,,,,229.6125354000833,229.6125354000833,230.5989256000612,230.603110200027,230.603110200027,230.603110200027,230.603110200027,231.05061610008124,x,0.44190430000890046,None,,,,,,,,SC_en,001,2025-03-07_12h30.16.419,MainFlow,2024.2.4,129.77473698834208,2025-03-07 12h30.27.025501 +0700,
2,2,87,word/worden0872.png,114,114,0,x,0.6475338999880478,None,0,114,114,114,231.0571007000981,,,,,,,231.0571007000981,231.0571007000981,232.04366070008837,232.04775930009782,232.04775930009782,232.04775930009782,232.04775930009782,232.69622819998767,x,0.6475338999880478,None,,,,,,,,SC_en,001,2025-03-07_12h30.16.419,MainFlow,2024.2.4,129.77473698834208,2025-03-07 12h30.27.025501 +0700,
2,1,10,word/worden0101.png,115,115,0,z,0.4359650999540463,None,0,115,115,115,232.7025891999947,,,,,,,232.7025891999947,232.7025891999947,233.68911250005476,233.69303660001606,233.69303660001606,233.69303660001606,233.69303660001606,234.1337235000683,z,0.4359650999540463,None,,,,,,,,SC_en,001,2025-03-07_12h30.16.419,MainFlow,2024.2.4,129.77473698834208,2025-03-07 12h30.27.025501 +0700,
2,3,8,word/worden0083.png,116,116,0,x,0.5819681000430137,None,0,116,116,116,234.14021320000757,,,,,,,234.14021320000757,234.14021320000757,235.12668620003387,235.13070530002005,235.13070530002005,235.13070530002005,235.13070530002005,235.7170669999905,x,0.5819681000430137,None,,,,,,,,SC_en,001,2025-03-07_12h30.16.419,MainFlow,2024.2.4,129.77473698834208,2025-03-07 12h30.27.025501 +0700,
2,3,94,word/worden0943.png,117,117,0,x,0.46759669994935393,None,0,117,117,117,235.72333629999775,,,,,,,235.72333629999775,235.72333629999775,236.710856800084,236.71490230003837,236.71490230003837,236.71490230003837,236.71490230003837,237.18940630008,x,0.46759669994935393,None,,,,,,,,SC_en,001,2025-03-07_12h30.16.419,MainFlow,2024.2.4,129.77473698834208,2025-03-07 12h30.27.025501 +0700,
2,2,11,word/worden0112.png,118,118,0,x,0.4339820999884978,None,0,118,118,118,237.19605720008258,,,,,,,237.19605720008258,237.19605720008258,238.18268000008538,238.18667200009804,238.18667200009804,238.18667200009804,238.18667200009804,238.6267882999964,x,0.4339820999884978,None,,,,,,,,SC_en,001,2025-03-07_12h30.16.419,MainFlow,2024.2.4,129.77473698834208,2025-03-07 12h30.27.025501 +0700,
2,3,24,word/worden0243.png,119,119,0,x,0.43516260001342744,None,0,119,119,119,238.63301160000265,,,,,,,238.63301160000265,238.63301160000265,239.62049150001258,239.62457870005164,239.62457870005164,239.62457870005164,239.62457870005164,240.06409160001203,x,0.43516260001342744,None,,,,,,,,SC_en,001,2025-03-07_12h30.16.419,MainFlow,2024.2.4,129.77473698834208,2025-03-07 12h30.27.025501 +0700,
,,,,,,,,,,,,,,,,,,,,,,,,,,,,,,,,240.06418260000646,240.07055360008962,240.07055360008962,241.90478179999627,space,1.8334702000720426,None,SC_en,001,2025-03-07_12h30.16.419,MainFlow,2024.2.4,129.77473698834208,2025-03-07 12h30.27.025501 +0700,
