lang,stimuli,imageid,worddir,thisN,thisTrialN,thisRepN,key_resp.keys,key_resp.rt,key_resp.duration,trials.thisRepN,trials.thisTrialN,trials.thisN,trials.thisIndex,thisRow.t,notes,tutorial.started,tutorial.stopped,key_instruct.keys,key_instruct.rt,key_instruct.duration,instructblank.started,cross1.started,letterselect.started,imageword.started,text_2.started,cross2.started,key_resp.started,letterselect.stopped,trials.key_resp.keys,trials.key_resp.rt,trials.key_resp.duration,instructblank.stopped,cross1.stopped,ending.started,text_3.started,ending_key.started,ending.stopped,ending_key.keys,ending_key.rt,ending_key.duration,participant,session,date,expName,psychopyVersion,frameRate,expStart,
,,,,,,,,,,,,,,,,0.003231499998946674,1.9337967000028584,space,1.857434799996554,None,,,,,,,,,,,,,,,,,,,,,SS_en,001,2025-03-11_10h10.22.519,MainFlow,2024.2.4,143.5309179789933,2025-03-11 10h10.45.980609 +0700,
2,1,66,word/worden0661.png,0,0,0,z,1.124741499996162,None,0,0,0,0,1.9694760000129463,,,,,,,1.9694760000129463,1.9694760000129463,2.952870000008261,2.9769661000027554,2.9769661000027554,2.9769661000027554,2.9769661000027554,4.103435299999546,z,1.124741499996162,None,,,,,,,,,,SS_en,001,2025-03-11_10h10.22.519,MainFlow,2024.2.4,143.5309179789933,2025-03-11 10h10.45.980609 +0700,
2,1,3,word/worden0031.png,1,1,0,z,0.5787180000043008,None,0,1,1,1,4.108475200002431,,,,,,,4.108475200002431,4.108475200002431,5.109725600006641,5.112741500008269,5.112741500008269,5.112741500008269,5.112741500008269,5.693180600006599,z,0.5787180000043008,None,,,,,,,,,,SS_en,001,2025-03-11_10h10.22.519,MainFlow,2024.2.4,143.5309179789933,2025-03-11 10h10.45.980609 +0700,
2,2,71,word/worden0712.png,2,2,0,x,0.6830602999980329,None,0,2,2,2,5.698517900003935,,,,,,,5.698517900003935,5.698517900003935,6.717982700007269,6.721776200007298,6.721776200007298,6.721776200007298,6.721776200007298,7.4078994000010425,x,0.6830602999980329,None,,,,,,,,,,SS_en,001,2025-03-11_10h10.22.519,MainFlow,2024.2.4,143.5309179789933,2025-03-11 10h10.45.980609 +0700,
2,3,27,word/worden0273.png,3,3,0,x,0.5659289000032004,None,0,3,3,3,7.413353100011591,,,,,,,7.413353100011591,7.413353100011591,8.417909700001474,8.420732300000964,8.420732300000964,8.420732300000964,8.420732300000964,8.991294500010554,x,0.5659289000032004,None,,,,,,,,,,SS_en,001,2025-03-11_10h10.22.519,MainFlow,2024.2.4,143.5309179789933,2025-03-11 10h10.45.980609 +0700,
2,3,88,word/worden0883.png,4,4,0,x,0.7933526999986498,None,0,4,4,4,8.996546000009403,,,,,,,8.996546000009403,8.996546000009403,10.00852339999983,10.01249850000022,10.01249850000022,10.01249850000022,10.01249850000022,10.811474500005716,x,0.7933526999986498,None,,,,,,,,,,SS_en,001,2025-03-11_10h10.22.519,MainFlow,2024.2.4,143.5309179789933,2025-03-11 10h10.45.980609 +0700,
2,1,28,word/worden0281.png,5,5,0,z,0.5513834000012139,None,0,5,5,5,10.817320000001928,,,,,,,10.817320000001928,10.817320000001928,11.831803500012029,11.835539500010782,11.835539500010782,11.835539500010782,11.835539500010782,12.394949100009399,z,0.5513834000012139,None,,,,,,,,,,SS_en,001,2025-03-11_10h10.22.519,MainFlow,2024.2.4,143.5309179789933,2025-03-11 10h10.45.980609 +0700,
2,1,50,word/worden0501.png,6,6,0,z,0.5909036000084598,None,0,6,6,6,12.39879460001248,,,,,,,12.39879460001248,12.39879460001248,13.400530500002787,13.404313999999431,13.404313999999431,13.404313999999431,13.404313999999431,13.999459400001797,z,0.5909036000084598,None,,,,,,,,,,SS_en,001,2025-03-11_10h10.22.519,MainFlow,2024.2.4,143.5309179789933,2025-03-11 10h10.45.980609 +0700,
2,1,41,word/worden0411.png,7,7,0,z,0.47868250000465196,None,0,7,7,7,14.005237100005616,,,,,,,14.005237100005616,14.005237100005616,15.013665200007381,15.016536900002393,15.016536900002393,15.016536900002393,15.016536900002393,15.497052200007602,z,0.47868250000465196,None,15.016536900002393,15.016536900002393,,,,,,,,SS_en,001,2025-03-11_10h10.22.519,MainFlow,2024.2.4,143.5309179789933,2025-03-11 10h10.45.980609 +0700,
2,2,52,word/worden0522.png,8,8,0,x,0.8063567999924999,None,0,8,8,8,15.50203680001141,,,,,,,15.50203680001141,15.50203680001141,16.498944999999367,16.502006700000493,16.502006700000493,16.502006700000493,16.502006700000493,17.315485400002217,x,0.8063567999924999,None,,,,,,,,,,SS_en,001,2025-03-11_10h10.22.519,MainFlow,2024.2.4,143.5309179789933,2025-03-11 10h10.45.980609 +0700,
2,3,6,word/worden0063.png,9,9,0,x,3.490535999997519,None,0,9,9,9,17.32106480000948,,,,,,,17.32106480000948,17.32106480000948,18.33682250000129,18.339830700002494,18.339830700002494,18.339830700002494,18.339830700002494,21.837213500009966,x,3.490535999997519,None,,,,,,,,,,SS_en,001,2025-03-11_10h10.22.519,MainFlow,2024.2.4,143.5309179789933,2025-03-11 10h10.45.980609 +0700,
2,3,46,word/worden0463.png,10,10,0,x,2.25598029998946,None,0,10,10,10,21.841329000002588,,,,,,,21.841329000002588,21.841329000002588,22.845822100003716,22.848627700004727,22.848627700004727,22.848627700004727,22.848627700004727,25.106946500003687,x,2.25598029998946,None,,,,,,,,,,SS_en,001,2025-03-11_10h10.22.519,MainFlow,2024.2.4,143.5309179789933,2025-03-11 10h10.45.980609 +0700,
2,2,30,word/worden0302.png,11,11,0,x,0.6969720999913989,None,0,11,11,11,25.11147700001311,,,,,,,25.11147700001311,25.11147700001311,26.120063599999412,26.123880300001474,26.123880300001474,26.123880300001474,26.123880300001474,26.827275300005567,x,0.6969720999913989,None,,,,,,,,,,SS_en,001,2025-03-11_10h10.22.519,MainFlow,2024.2.4,143.5309179789933,2025-03-11 10h10.45.980609 +0700,
2,2,46,word/worden0462.png,12,12,0,x,0.5121868000132963,None,0,12,12,12,26.833070500011672,,,,,,,26.833070500011672,26.833070500011672,27.826876100007212,27.82964590001211,27.82964590001211,27.82964590001211,27.82964590001211,28.34831430000486,x,0.5121868000132963,None,,,,,,,,,,SS_en,001,2025-03-11_10h10.22.519,MainFlow,2024.2.4,143.5309179789933,2025-03-11 10h10.45.980609 +0700,
2,2,70,word/worden0702.png,13,13,0,x,1.4001795999938622,None,0,13,13,13,28.353692400007276,,,,,,,28.353692400007276,28.353692400007276,29.359181600011652,29.362254899999243,29.362254899999243,29.362254899999243,29.362254899999243,30.765374900001916,x,1.4001795999938622,None,,,,,,,,,,SS_en,001,2025-03-11_10h10.22.519,MainFlow,2024.2.4,143.5309179789933,2025-03-11 10h10.45.980609 +0700,
2,1,70,word/worden0701.png,14,14,0,z,0.5658676000020932,None,0,14,14,14,30.770124000002397,,,,,,,30.770124000002397,30.770124000002397,31.771498200003407,31.774308800013387,31.774308800013387,31.774308800013387,31.774308800013387,32.347390300012194,z,0.5658676000020932,None,,,,,,,,,,SS_en,001,2025-03-11_10h10.22.519,MainFlow,2024.2.4,143.5309179789933,2025-03-11 10h10.45.980609 +0700,
2,1,8,word/worden0081.png,15,15,0,z,0.5215003000048455,None,0,15,15,15,32.35280190000776,,,,,,,32.35280190000776,32.35280190000776,33.35376250000263,33.35656330001075,33.35656330001075,33.35656330001075,33.35656330001075,33.882293900009245,z,0.5215003000048455,None,,,,,,,,,,SS_en,001,2025-03-11_10h10.22.519,MainFlow,2024.2.4,143.5309179789933,2025-03-11 10h10.45.980609 +0700,
2,3,61,word/worden0613.png,16,16,0,x,1.2117451999947662,None,0,16,16,16,33.88740640001197,,,,,,,33.88740640001197,33.88740640001197,34.88735550000274,34.89037510000344,34.89037510000344,34.89037510000344,34.89037510000344,36.103777700001956,x,1.2117451999947662,None,,,,,,,,,,SS_en,001,2025-03-11_10h10.22.519,MainFlow,2024.2.4,143.5309179789933,2025-03-11 10h10.45.980609 +0700,
2,3,10,word/worden0103.png,17,17,0,x,0.9351764000020921,None,0,17,17,17,36.10908819999895,,,,,,,36.10908819999895,36.10908819999895,37.106984900005045,37.10973350000859,37.10973350000859,37.10973350000859,37.10973350000859,38.04791540000588,x,0.9351764000020921,None,,,,,,,,,,SS_en,001,2025-03-11_10h10.22.519,MainFlow,2024.2.4,143.5309179789933,2025-03-11 10h10.45.980609 +0700,
2,3,75,word/worden0753.png,18,18,0,x,0.6360699000069872,None,0,18,18,18,38.053230500008794,,,,,,,38.053230500008794,38.053230500008794,39.057495600005495,39.06053560000146,39.06053560000146,39.06053560000146,39.06053560000146,39.70097770000575,x,0.6360699000069872,None,,,,,,,,,,SS_en,001,2025-03-11_10h10.22.519,MainFlow,2024.2.4,143.5309179789933,2025-03-11 10h10.45.980609 +0700,
2,2,63,word/worden0632.png,19,19,0,x,0.4458029999950668,None,0,19,19,19,39.705651399999624,,,,,,,39.705651399999624,39.705651399999624,40.70796350001183,40.710794800004805,40.710794800004805,40.710794800004805,40.710794800004805,41.158757100012735,x,0.4458029999950668,None,,,,,,,,,,SS_en,001,2025-03-11_10h10.22.519,MainFlow,2024.2.4,143.5309179789933,2025-03-11 10h10.45.980609 +0700,
2,3,11,word/worden0113.png,20,20,0,x,0.5943154999986291,None,0,20,20,20,41.163709900007234,,,,,,,41.163709900007234,41.163709900007234,42.1832362000132,42.18697580001026,42.18697580001026,42.18697580001026,42.18697580001026,42.78454170000623,x,0.5943154999986291,None,,,,,,,,,,SS_en,001,2025-03-11_10h10.22.519,MainFlow,2024.2.4,143.5309179789933,2025-03-11 10h10.45.980609 +0700,
2,2,89,word/worden0892.png,21,21,0,x,0.7696769000031054,None,0,21,21,21,42.790310399999726,,,,,,,42.790310399999726,42.790310399999726,43.79805420000048,43.800805999999284,43.800805999999284,43.800805999999284,43.800805999999284,44.57478629999969,x,0.7696769000031054,None,,,,,,,,,,SS_en,001,2025-03-11_10h10.22.519,MainFlow,2024.2.4,143.5309179789933,2025-03-11 10h10.45.980609 +0700,
2,1,9,word/worden0091.png,22,22,0,z,1.0148665000015171,None,0,22,22,22,44.579689200007124,,,,,,,44.579689200007124,44.579689200007124,45.58629110000038,45.58916270000918,45.58916270000918,45.58916270000918,45.58916270000918,46.60925110000244,z,1.0148665000015171,None,,,,,,,,,,SS_en,001,2025-03-11_10h10.22.519,MainFlow,2024.2.4,143.5309179789933,2025-03-11 10h10.45.980609 +0700,
2,3,28,word/worden0283.png,23,23,0,z,0.47701810000580736,None,0,23,23,23,46.6142061999999,,,,,,,46.6142061999999,46.6142061999999,47.61119390001113,47.61400810000487,47.61400810000487,47.61400810000487,47.61400810000487,48.09451500000432,z,0.47701810000580736,None,,,,,,,,,,SS_en,001,2025-03-11_10h10.22.519,MainFlow,2024.2.4,143.5309179789933,2025-03-11 10h10.45.980609 +0700,
2,1,82,word/worden0821.png,24,24,0,z,0.49645890000101645,None,0,24,24,24,48.09981990000233,,,,,,,48.09981990000233,48.09981990000233,49.10467030000291,49.1074973000068,49.1074973000068,49.1074973000068,49.1074973000068,49.608442100012326,z,0.49645890000101645,None,,,,,,,,,,SS_en,001,2025-03-11_10h10.22.519,MainFlow,2024.2.4,143.5309179789933,2025-03-11 10h10.45.980609 +0700,
2,2,28,word/worden0282.png,25,25,0,x,0.6687725999945542,None,0,25,25,25,49.61352110000735,,,,,,,49.61352110000735,49.61352110000735,50.63129200000549,50.63461940000707,50.63461940000707,50.63461940000707,50.63461940000707,51.310617700000876,x,0.6687725999945542,None,,,,,,,,,,SS_en,001,2025-03-11_10h10.22.519,MainFlow,2024.2.4,143.5309179789933,2025-03-11 10h10.45.980609 +0700,
2,1,23,word/worden0231.png,26,26,0,z,0.6459513000008883,None,0,26,26,26,51.3165003000031,,,,,,,51.3165003000031,51.3165003000031,52.31128730000637,52.314078499999596,52.314078499999596,52.314078499999596,52.314078499999596,52.962086800005636,z,0.6459513000008883,None,,,,,,,,,,SS_en,001,2025-03-11_10h10.22.519,MainFlow,2024.2.4,143.5309179789933,2025-03-11 10h10.45.980609 +0700,
2,2,42,word/worden0422.png,27,27,0,x,0.6577326999977231,None,0,27,27,27,52.966984000013326,,,,,,,52.966984000013326,52.966984000013326,53.98557430000801,53.98880970000755,53.98880970000755,53.98880970000755,53.98880970000755,54.650559300003806,x,0.6577326999977231,None,,,,,,,,,,SS_en,001,2025-03-11_10h10.22.519,MainFlow,2024.2.4,143.5309179789933,2025-03-11 10h10.45.980609 +0700,
2,2,93,word/worden0932.png,28,28,0,x,0.6109536000003573,None,0,28,28,28,54.65545930000371,,,,,,,54.65545930000371,54.65545930000371,55.657156800007215,55.66026290001173,55.66026290001173,55.66026290001173,55.66026290001173,56.27554529999907,x,0.6109536000003573,None,,,,,,,,,,SS_en,001,2025-03-11_10h10.22.519,MainFlow,2024.2.4,143.5309179789933,2025-03-11 10h10.45.980609 +0700,
2,1,88,word/worden0881.png,29,29,0,z,0.6216219000052661,None,0,29,29,29,56.28046410001116,,,,,,,56.28046410001116,56.28046410001116,57.27666420000605,57.280134700005874,57.280134700005874,57.280134700005874,57.280134700005874,57.90540130001318,z,0.6216219000052661,None,,,,,,,,,,SS_en,001,2025-03-11_10h10.22.519,MainFlow,2024.2.4,143.5309179789933,2025-03-11 10h10.45.980609 +0700,
2,3,31,word/worden0313.png,30,30,0,x,1.0543323000019882,None,0,30,30,30,57.91044980000879,,,,,,,57.91044980000879,57.91044980000879,58.909263400011696,58.912068800011184,58.912068800011184,58.912068800011184,58.912068800011184,59.96875200000068,x,1.0543323000019882,None,,,,,,,,,,SS_en,001,2025-03-11_10h10.22.519,MainFlow,2024.2.4,143.5309179789933,2025-03-11 10h10.45.980609 +0700,
2,2,75,word/worden0752.png,31,31,0,x,0.6378650999977253,None,0,31,31,31,59.9739724000101,,,,,,,59.9739724000101,59.9739724000101,60.9952525000117,60.99889540000004,60.99889540000004,60.99889540000004,60.99889540000004,61.64056270000583,x,0.6378650999977253,None,,,,,,,,,,SS_en,001,2025-03-11_10h10.22.519,MainFlow,2024.2.4,143.5309179789933,2025-03-11 10h10.45.980609 +0700,
2,2,48,word/worden0482.png,32,32,0,x,0.5945723000040743,None,0,32,32,32,61.64595340000233,,,,,,,61.64595340000233,61.64595340000233,62.64810920000309,62.6509289000096,62.6509289000096,62.6509289000096,62.6509289000096,63.25138159999915,x,0.5945723000040743,None,,,,,,,,,,SS_en,001,2025-03-11_10h10.22.519,MainFlow,2024.2.4,143.5309179789933,2025-03-11 10h10.45.980609 +0700,
2,1,26,word/worden0261.png,33,33,0,z,1.3069556999980705,None,0,33,33,33,63.25650800000585,,,,,,,63.25650800000585,63.25650800000585,64.2586037000001,64.26138870000432,64.26138870000432,64.26138870000432,64.26138870000432,65.57217490000767,z,1.3069556999980705,None,,,,,,,,,,SS_en,001,2025-03-11_10h10.22.519,MainFlow,2024.2.4,143.5309179789933,2025-03-11 10h10.45.980609 +0700,
2,2,41,word/worden0412.png,34,34,0,x,0.7730737999954727,None,0,34,34,34,65.57786920000217,,,,,,,65.57786920000217,65.57786920000217,66.57960510000703,66.58239000001049,66.58239000001049,66.58239000001049,66.58239000001049,67.3616963000095,x,0.7730737999954727,None,,,,,,,,,,SS_en,001,2025-03-11_10h10.22.519,MainFlow,2024.2.4,143.5309179789933,2025-03-11 10h10.45.980609 +0700,
2,3,66,word/worden0663.png,35,35,0,x,2.185782400003518,None,0,35,35,35,67.36692970000149,,,,,,,67.36692970000149,67.36692970000149,68.36701110001013,68.37010420000297,68.37010420000297,68.37010420000297,68.37010420000297,70.56237580000015,x,2.185782400003518,None,,,,,,,,,,SS_en,001,2025-03-11_10h10.22.519,MainFlow,2024.2.4,143.5309179789933,2025-03-11 10h10.45.980609 +0700,
2,1,6,word/worden0061.png,36,36,0,z,0.6547990999970352,None,0,36,36,36,70.56787340001028,,,,,,,70.56787340001028,70.56787340001028,71.57245600000897,71.57571040000767,71.57571040000767,71.57571040000767,71.57571040000767,72.23760890000267,z,0.6547990999970352,None,,,,,,,,,,SS_en,001,2025-03-11_10h10.22.519,MainFlow,2024.2.4,143.5309179789933,2025-03-11 10h10.45.980609 +0700,
2,1,42,word/worden0421.png,37,37,0,z,0.7649831000017002,None,0,37,37,37,72.24133230000734,,,,,,,72.24133230000734,72.24133230000734,73.24302920000628,73.24674050000613,73.24674050000613,73.24674050000613,73.24674050000613,74.01582650000637,z,0.7649831000017002,None,,,,,,,,,,SS_en,001,2025-03-11_10h10.22.519,MainFlow,2024.2.4,143.5309179789933,2025-03-11 10h10.45.980609 +0700,
2,3,41,word/worden0413.png,38,38,0,x,0.9834325999981957,None,0,38,38,38,74.02047640000819,,,,,,,74.02047640000819,74.02047640000819,75.0414635000052,75.044781900011,75.044781900011,75.044781900011,75.044781900011,76.03346500000043,x,0.9834325999981957,None,75.044781900011,75.044781900011,,,,,,,,SS_en,001,2025-03-11_10h10.22.519,MainFlow,2024.2.4,143.5309179789933,2025-03-11 10h10.45.980609 +0700,
2,2,23,word/worden0232.png,39,39,0,x,0.9779627000098117,None,0,39,39,39,76.03883499999938,,,,,,,76.03883499999938,76.03883499999938,77.05007500000647,77.05297140000039,77.05297140000039,77.05297140000039,77.05297140000039,78.03335789999983,x,0.9779627000098117,None,,,,,,,,,,SS_en,001,2025-03-11_10h10.22.519,MainFlow,2024.2.4,143.5309179789933,2025-03-11 10h10.45.980609 +0700,
2,3,96,word/worden0963.png,40,40,0,x,0.7831610999855911,None,0,40,40,40,78.03861690001213,,,,,,,78.03861690001213,78.03861690001213,79.05919810000341,79.06297380001342,79.06297380001342,79.06297380001342,79.06297380001342,79.85506090000854,x,0.7831610999855911,None,,,,,,,,,,SS_en,001,2025-03-11_10h10.22.519,MainFlow,2024.2.4,143.5309179789933,2025-03-11 10h10.45.980609 +0700,
2,1,61,word/worden0611.png,41,41,0,z,0.6703627999959281,None,0,41,41,41,79.85790710001311,,,,,,,79.85790710001311,79.85790710001311,80.8695507000084,80.87327770001139,80.87327770001139,80.87327770001139,80.87327770001139,81.54815110001073,z,0.6703627999959281,None,80.87327770001139,80.87327770001139,,,,,,,,SS_en,001,2025-03-11_10h10.22.519,MainFlow,2024.2.4,143.5309179789933,2025-03-11 10h10.45.980609 +0700,
2,3,9,word/worden0093.png,42,42,0,z,2.6598900000099093,None,0,42,42,42,81.55324890000338,,,,,,,81.55324890000338,81.55324890000338,82.5538394000032,82.55672200000845,82.55672200000845,82.55672200000845,82.55672200000845,85.21886870000162,z,2.6598900000099093,None,,,,,,,,,,SS_en,001,2025-03-11_10h10.22.519,MainFlow,2024.2.4,143.5309179789933,2025-03-11 10h10.45.980609 +0700,
2,3,63,word/worden0633.png,43,43,0,z,4.949724100006279,None,0,43,43,43,85.22460050000518,,,,,,,85.22460050000518,85.22460050000518,86.24419490000582,86.24793599999975,86.24793599999975,86.24793599999975,86.24793599999975,91.20411330000206,z,4.949724100006279,None,,,,,,,,,,SS_en,001,2025-03-11_10h10.22.519,MainFlow,2024.2.4,143.5309179789933,2025-03-11 10h10.45.980609 +0700,
2,3,50,word/worden0503.png,44,44,0,x,1.1550453999952879,None,0,44,44,44,91.20949040001142,,,,,,,91.20949040001142,91.20949040001142,92.21232180000516,92.21508440001344,92.21508440001344,92.21508440001344,92.21508440001344,93.37728870000865,x,1.1550453999952879,None,,,,,,,,,,SS_en,001,2025-03-11_10h10.22.519,MainFlow,2024.2.4,143.5309179789933,2025-03-11 10h10.45.980609 +0700,
2,2,27,word/worden0272.png,45,45,0,x,0.5913549999968382,None,0,45,45,45,93.38267230000929,,,,,,,93.38267230000929,93.38267230000929,94.39019740000367,94.39321000000928,94.39321000000928,94.39321000000928,94.39321000000928,94.98873290000483,x,0.5913549999968382,None,,,,,,,,,,SS_en,001,2025-03-11_10h10.22.519,MainFlow,2024.2.4,143.5309179789933,2025-03-11 10h10.45.980609 +0700,
2,2,61,word/worden0612.png,46,46,0,x,0.5245968000090215,None,0,46,46,46,94.99354520000634,,,,,,,94.99354520000634,94.99354520000634,95.99402350001037,95.99687330001325,95.99687330001325,95.99687330001325,95.99687330001325,96.52367520000553,x,0.5245968000090215,None,,,,,,,,,,SS_en,001,2025-03-11_10h10.22.519,MainFlow,2024.2.4,143.5309179789933,2025-03-11 10h10.45.980609 +0700,
2,3,7,word/worden0073.png,47,47,0,x,0.706849099995452,None,0,47,47,47,96.52815740001097,,,,,,,96.52815740001097,96.52815740001097,97.54850290001195,97.55190910000238,97.55190910000238,97.55190910000238,97.55190910000238,98.26525950001087,x,0.706849099995452,None,,,,,,,,,,SS_en,001,2025-03-11_10h10.22.519,MainFlow,2024.2.4,143.5309179789933,2025-03-11 10h10.45.980609 +0700,
2,3,23,word/worden0233.png,48,48,0,x,0.6812370999978157,None,0,48,48,48,98.27082480001263,,,,,,,98.27082480001263,98.27082480001263,99.2741376000049,99.27703480000491,99.27703480000491,99.27703480000491,99.27703480000491,99.96080480000819,x,0.6812370999978157,None,,,,,,,,,,SS_en,001,2025-03-11_10h10.22.519,MainFlow,2024.2.4,143.5309179789933,2025-03-11 10h10.45.980609 +0700,
2,1,95,word/worden0951.png,49,49,0,z,0.695687800005544,None,0,49,49,49,99.964787600009,,,,,,,99.964787600009,99.964787600009,100.9651836000121,100.96796470000118,100.96796470000118,100.96796470000118,100.96796470000118,101.6676099000033,z,0.695687800005544,None,,,,,,,,,,SS_en,001,2025-03-11_10h10.22.519,MainFlow,2024.2.4,143.5309179789933,2025-03-11 10h10.45.980609 +0700,
2,3,42,word/worden0423.png,50,50,0,x,0.815466899992316,None,0,50,50,50,101.67282110000087,,,,,,,101.67282110000087,101.67282110000087,102.68865340000775,102.69230640000023,102.69230640000023,102.69230640000023,102.69230640000023,103.51477870000235,x,0.815466899992316,None,,,,,,,,,,SS_en,001,2025-03-11_10h10.22.519,MainFlow,2024.2.4,143.5309179789933,2025-03-11 10h10.45.980609 +0700,
2,1,30,word/worden0301.png,51,51,0,z,0.537692199999583,None,0,51,51,51,103.51969590000226,,,,,,,103.51969590000226,103.51969590000226,104.52402060000168,104.52691730001243,104.52691730001243,104.52691730001243,104.52691730001243,105.07095870000194,z,0.537692199999583,None,,,,,,,,,,SS_en,001,2025-03-11_10h10.22.519,MainFlow,2024.2.4,143.5309179789933,2025-03-11 10h10.45.980609 +0700,
2,3,87,word/worden0873.png,52,52,0,x,1.3913427000079537,None,0,52,52,52,105.07560999999987,,,,,,,105.07560999999987,105.07560999999987,106.07389980000153,106.07685950001178,106.07685950001178,106.07685950001178,106.07685950001178,107.4718450000073,x,1.3913427000079537,None,,,,,,,,,,SS_en,001,2025-03-11_10h10.22.519,MainFlow,2024.2.4,143.5309179789933,2025-03-11 10h10.45.980609 +0700,
2,2,6,word/worden0062.png,53,53,0,x,0.5463943000067957,None,0,53,53,53,107.47716660000151,,,,,,,107.47716660000151,107.47716660000151,108.49612760001037,108.49951460000011,108.49951460000011,108.49951460000011,108.49951460000011,109.0482958000066,x,0.5463943000067957,None,,,,,,,,,,SS_en,001,2025-03-11_10h10.22.519,MainFlow,2024.2.4,143.5309179789933,2025-03-11 10h10.45.980609 +0700,
2,2,68,word/worden0682.png,54,54,0,x,0.4536437000060687,None,0,54,54,54,109.05331020000449,,,,,,,109.05331020000449,109.05331020000449,110.07368359999964,110.07736070000101,110.07736070000101,110.07736070000101,110.07736070000101,110.53529260000505,x,0.4536437000060687,None,,,,,,,,,,SS_en,001,2025-03-11_10h10.22.519,MainFlow,2024.2.4,143.5309179789933,2025-03-11 10h10.45.980609 +0700,
2,3,1,word/worden0013.png,55,55,0,x,0.5678160000097705,None,0,55,55,55,110.54030420001072,,,,,,,110.54030420001072,110.54030420001072,111.55923780000012,111.56285440000647,111.56285440000647,111.56285440000647,111.56285440000647,112.1373983000085,x,0.5678160000097705,None,,,,,,,,,,SS_en,001,2025-03-11_10h10.22.519,MainFlow,2024.2.4,143.5309179789933,2025-03-11 10h10.45.980609 +0700,
2,2,94,word/worden0942.png,56,56,0,x,0.9955084000102943,None,0,56,56,56,112.14283390001219,,,,,,,112.14283390001219,112.14283390001219,113.14775960000406,113.15071050000552,113.15071050000552,113.15071050000552,113.15071050000552,114.1507580000034,x,0.9955084000102943,None,,,,,,,,,,SS_en,001,2025-03-11_10h10.22.519,MainFlow,2024.2.4,143.5309179789933,2025-03-11 10h10.45.980609 +0700,
2,3,82,word/worden0823.png,57,57,0,x,0.48273090001021046,None,0,57,57,57,114.15646389999893,,,,,,,114.15646389999893,114.15646389999893,115.17621930000314,115.1795179000037,115.1795179000037,115.1795179000037,115.1795179000037,115.66550930000085,x,0.48273090001021046,None,,,,,,,,,,SS_en,001,2025-03-11_10h10.22.519,MainFlow,2024.2.4,143.5309179789933,2025-03-11 10h10.45.980609 +0700,
2,1,89,word/worden0891.png,58,58,0,z,0.7134622000012314,None,0,58,58,58,115.67005359999894,,,,,,,115.67005359999894,115.67005359999894,116.68175840000913,116.68519120001292,116.68519120001292,116.68519120001292,116.68519120001292,117.4021255000116,z,0.7134622000012314,None,,,,,,,,,,SS_en,001,2025-03-11_10h10.22.519,MainFlow,2024.2.4,143.5309179789933,2025-03-11 10h10.45.980609 +0700,
2,1,31,word/worden0311.png,59,59,0,z,0.6579009999986738,None,0,59,59,59,117.40757930000836,,,,,,,117.40757930000836,117.40757930000836,118.40425590000814,118.40726540000469,118.40726540000469,118.40726540000469,118.40726540000469,119.06684150001092,z,0.6579009999986738,None,,,,,,,,,,SS_en,001,2025-03-11_10h10.22.519,MainFlow,2024.2.4,143.5309179789933,2025-03-11 10h10.45.980609 +0700,
2,2,51,word/worden0512.png,60,60,0,x,0.6248609000031138,None,0,60,60,60,119.07212560001062,,,,,,,119.07212560001062,119.07212560001062,120.07801720000862,120.08085110000684,120.08085110000684,120.08085110000684,120.08085110000684,120.71242280000297,x,0.6248609000031138,None,,,,,,,,,,SS_en,001,2025-03-11_10h10.22.519,MainFlow,2024.2.4,143.5309179789933,2025-03-11 10h10.45.980609 +0700,
2,3,44,word/worden0443.png,61,61,0,x,1.0881088000023738,None,0,61,61,61,120.71765280001273,,,,,,,120.71765280001273,120.71765280001273,121.72310790000483,121.7261506000068,121.7261506000068,121.7261506000068,121.7261506000068,122.81721590000961,x,1.0881088000023738,None,,,,,,,,,,SS_en,001,2025-03-11_10h10.22.519,MainFlow,2024.2.4,143.5309179789933,2025-03-11 10h10.45.980609 +0700,
2,1,1,word/worden0011.png,62,62,0,z,0.6283295000030193,None,0,62,62,62,122.82214640000893,,,,,,,122.82214640000893,122.82214640000893,123.82420010000351,123.82726930000354,123.82726930000354,123.82726930000354,123.82726930000354,124.46183970000129,z,0.6283295000030193,None,,,,,,,,,,SS_en,001,2025-03-11_10h10.22.519,MainFlow,2024.2.4,143.5309179789933,2025-03-11 10h10.45.980609 +0700,
2,1,96,word/worden0961.png,63,63,0,z,0.7847414999996545,None,0,63,63,63,124.46695900001214,,,,,,,124.46695900001214,124.46695900001214,125.48753180001222,125.49114930001087,125.49114930001087,125.49114930001087,125.49114930001087,126.28088010000647,z,0.7847414999996545,None,,,,,,,,,,SS_en,001,2025-03-11_10h10.22.519,MainFlow,2024.2.4,143.5309179789933,2025-03-11 10h10.45.980609 +0700,
2,1,11,word/worden0111.png,64,64,0,x,1.0419614999991609,None,0,64,64,64,126.28613659999974,,,,,,,126.28613659999974,126.28613659999974,127.29065439999977,127.29345730000932,127.29345730000932,127.29345730000932,127.29345730000932,128.33796230000735,x,1.0419614999991609,None,,,,,,,,,,SS_en,001,2025-03-11_10h10.22.519,MainFlow,2024.2.4,143.5309179789933,2025-03-11 10h10.45.980609 +0700,
2,3,70,word/worden0703.png,65,65,0,x,1.1608635999873513,None,0,65,65,65,128.34336389999953,,,,,,,128.34336389999953,128.34336389999953,129.34976490000554,129.35269850000623,129.35269850000623,129.35269850000623,129.35269850000623,130.51754990000336,x,1.1608635999873513,None,129.35269850000623,129.35269850000623,,,,,,,,SS_en,001,2025-03-11_10h10.22.519,MainFlow,2024.2.4,143.5309179789933,2025-03-11 10h10.45.980609 +0700,
2,3,71,word/worden0713.png,66,66,0,x,0.5352626999956556,None,0,66,66,66,130.52358890000323,,,,,,,130.52358890000323,130.52358890000323,131.5232975000108,131.52611200000683,131.52611200000683,131.52611200000683,131.52611200000683,132.06435970000166,x,0.5352626999956556,None,,,,,,,,,,SS_en,001,2025-03-11_10h10.22.519,MainFlow,2024.2.4,143.5309179789933,2025-03-11 10h10.45.980609 +0700,
2,1,68,word/worden0681.png,67,67,0,z,1.3122117000020808,None,0,67,67,67,132.06961850001244,,,,,,,132.06961850001244,132.06961850001244,133.07102190000296,133.07392130000517,133.07392130000517,133.07392130000517,133.07392130000517,134.39058520000253,z,1.3122117000020808,None,,,,,,,,,,SS_en,001,2025-03-11_10h10.22.519,MainFlow,2024.2.4,143.5309179789933,2025-03-11 10h10.45.980609 +0700,
2,2,88,word/worden0882.png,68,68,0,x,3.304172700009076,None,0,68,68,68,134.3956607,,,,,,,134.3956607,134.3956607,135.39798750000773,135.40142290000222,135.40142290000222,135.40142290000222,135.40142290000222,138.71044890000485,x,3.304172700009076,None,,,,,,,,,,SS_en,001,2025-03-11_10h10.22.519,MainFlow,2024.2.4,143.5309179789933,2025-03-11 10h10.45.980609 +0700,
2,2,50,word/worden0502.png,69,69,0,x,0.9614225999976043,None,0,69,69,69,138.71520020000753,,,,,,,138.71520020000753,138.71520020000753,139.73621890001232,139.74089880000975,139.74089880000975,139.74089880000975,139.74089880000975,140.70963450000272,x,0.9614225999976043,None,,,,,,,,,,SS_en,001,2025-03-11_10h10.22.519,MainFlow,2024.2.4,143.5309179789933,2025-03-11 10h10.45.980609 +0700,
2,3,93,word/worden0933.png,70,70,0,x,2.0884761000052094,None,0,70,70,70,140.7138896000106,,,,,,,140.7138896000106,140.7138896000106,141.71158000000287,141.71449920001032,141.71449920001032,141.71449920001032,141.71449920001032,143.8058627999999,x,2.0884761000052094,None,,,,,,,,,,SS_en,001,2025-03-11_10h10.22.519,MainFlow,2024.2.4,143.5309179789933,2025-03-11 10h10.45.980609 +0700,
2,1,63,word/worden0631.png,71,71,0,z,0.6572648000001209,None,0,71,71,71,143.81057090000832,,,,,,,143.81057090000832,143.81057090000832,144.82663429999957,144.83023940000567,144.83023940000567,144.83023940000567,144.83023940000567,145.49257840000791,z,0.6572648000001209,None,,,,,,,,,,SS_en,001,2025-03-11_10h10.22.519,MainFlow,2024.2.4,143.5309179789933,2025-03-11 10h10.45.980609 +0700,
2,2,7,word/worden0072.png,72,72,0,x,0.7221869000059087,None,0,72,72,72,145.49758950000978,,,,,,,145.49758950000978,145.49758950000978,146.52125250000972,146.52454009999929,146.52454009999929,146.52454009999929,146.52454009999929,147.24922000001243,x,0.7221869000059087,None,,,,,,,,,,SS_en,001,2025-03-11_10h10.22.519,MainFlow,2024.2.4,143.5309179789933,2025-03-11 10h10.45.980609 +0700,
2,2,64,word/worden0642.png,73,73,0,x,0.6404081000073347,None,0,73,73,73,147.25422070000786,,,,,,,147.25422070000786,147.25422070000786,148.25797109999985,148.2611537000048,148.2611537000048,148.2611537000048,148.2611537000048,148.90982060000533,x,0.6404081000073347,None,,,,,,,,,,SS_en,001,2025-03-11_10h10.22.519,MainFlow,2024.2.4,143.5309179789933,2025-03-11 10h10.45.980609 +0700,
2,1,24,word/worden0241.png,74,74,0,z,0.9318359999888344,None,0,74,74,74,148.9134778000007,,,,,,,148.9134778000007,148.9134778000007,149.92940980001003,149.93328840000322,149.93328840000322,149.93328840000322,149.93328840000322,150.86668000000645,z,0.9318359999888344,None,,,,,,,,,,SS_en,001,2025-03-11_10h10.22.519,MainFlow,2024.2.4,143.5309179789933,2025-03-11 10h10.45.980609 +0700,
2,2,1,word/worden0012.png,75,75,0,x,0.6021058000042103,None,0,75,75,75,150.87153670001135,,,,,,,150.87153670001135,150.87153670001135,151.8698340000119,151.87268900001072,151.87268900001072,151.87268900001072,151.87268900001072,152.477361199999,x,0.6021058000042103,None,,,,,,,,,,SS_en,001,2025-03-11_10h10.22.519,MainFlow,2024.2.4,143.5309179789933,2025-03-11 10h10.45.980609 +0700,
2,1,46,word/worden0461.png,76,76,0,z,0.9011492999998154,None,0,76,76,76,152.48252600000706,,,,,,,152.48252600000706,152.48252600000706,153.48561440000776,153.4884594000032,153.4884594000032,153.4884594000032,153.4884594000032,154.39365240000188,z,0.9011492999998154,None,,,,,,,,,,SS_en,001,2025-03-11_10h10.22.519,MainFlow,2024.2.4,143.5309179789933,2025-03-11 10h10.45.980609 +0700,
2,3,52,word/worden0523.png,77,77,0,x,1.025494700006675,None,0,77,77,77,154.39864579999994,,,,,,,154.39864579999994,154.39864579999994,155.40076350000163,155.40364520000003,155.40364520000003,155.40364520000003,155.40364520000003,156.43453769999905,x,1.025494700006675,None,,,,,,,,,,SS_en,001,2025-03-11_10h10.22.519,MainFlow,2024.2.4,143.5309179789933,2025-03-11 10h10.45.980609 +0700,
2,2,31,word/worden0312.png,78,78,0,x,1.013206399991759,None,0,78,78,78,156.43995300000824,,,,,,,156.43995300000824,156.43995300000824,157.44276470001205,157.44562399999995,157.44562399999995,157.44562399999995,157.44562399999995,158.46197120001307,x,1.013206399991759,None,,,,,,,,,,SS_en,001,2025-03-11_10h10.22.519,MainFlow,2024.2.4,143.5309179789933,2025-03-11 10h10.45.980609 +0700,
2,2,95,word/worden0952.png,79,79,0,x,0.6592738000035752,None,0,79,79,79,158.46726180000405,,,,,,,158.46726180000405,158.46726180000405,159.4857847000094,159.48911000000953,159.48911000000953,159.48911000000953,159.48911000000953,160.1555275999999,x,0.6592738000035752,None,,,,,,,,,,SS_en,001,2025-03-11_10h10.22.519,MainFlow,2024.2.4,143.5309179789933,2025-03-11 10h10.45.980609 +0700,
2,1,93,word/worden0931.png,80,80,0,z,0.9185395999957109,None,0,80,80,80,160.1613600000128,,,,,,,160.1613600000128,160.1613600000128,161.16137310001068,161.16449380000995,161.16449380000995,161.16449380000995,161.16449380000995,162.08646410000802,z,0.9185395999957109,None,,,,,,,,,,SS_en,001,2025-03-11_10h10.22.519,MainFlow,2024.2.4,143.5309179789933,2025-03-11 10h10.45.980609 +0700,
2,1,71,word/worden0711.png,81,81,0,z,0.561962499996298,None,0,81,81,81,162.09156150001218,,,,,,,162.09156150001218,162.09156150001218,163.09372640000947,163.09678610000992,163.09678610000992,163.09678610000992,163.09678610000992,163.66234629999963,z,0.561962499996298,None,,,,,,,,,,SS_en,001,2025-03-11_10h10.22.519,MainFlow,2024.2.4,143.5309179789933,2025-03-11 10h10.45.980609 +0700,
2,1,48,word/worden0481.png,82,82,0,z,0.6083774000144331,None,0,82,82,82,163.66767160000745,,,,,,,163.66767160000745,163.66767160000745,164.67282089999935,164.67613620001066,164.67613620001066,164.67613620001066,164.67613620001066,165.28848560000188,z,0.6083774000144331,None,,,,,,,,,,SS_en,001,2025-03-11_10h10.22.519,MainFlow,2024.2.4,143.5309179789933,2025-03-11 10h10.45.980609 +0700,
2,1,94,word/worden0941.png,83,83,0,z,0.7494558000034885,None,0,83,83,83,165.2937954000081,,,,,,,165.2937954000081,165.2937954000081,166.29836870000872,166.30129370000213,166.30129370000213,166.30129370000213,166.30129370000213,167.05734300000768,z,0.7494558000034885,None,,,,,,,,,,SS_en,001,2025-03-11_10h10.22.519,MainFlow,2024.2.4,143.5309179789933,2025-03-11 10h10.45.980609 +0700,
2,3,68,word/worden0683.png,84,84,0,x,8.30786500000977,None,0,84,84,84,167.0627158000134,,,,,,,167.0627158000134,167.0627158000134,168.08154630000354,168.08487060001062,168.08487060001062,168.08487060001062,168.08487060001062,176.39605930000835,x,8.30786500000977,None,,,,,,,,,,SS_en,001,2025-03-11_10h10.22.519,MainFlow,2024.2.4,143.5309179789933,2025-03-11 10h10.45.980609 +0700,
2,2,66,word/worden0662.png,85,85,0,x,0.787779500009492,None,0,85,85,85,176.40130370001134,,,,,,,176.40130370001134,176.40130370001134,177.40601830001106,177.40911649999907,177.40911649999907,177.40911649999907,177.40911649999907,178.20106560000568,x,0.787779500009492,None,,,,,,,,,,SS_en,001,2025-03-11_10h10.22.519,MainFlow,2024.2.4,143.5309179789933,2025-03-11 10h10.45.980609 +0700,
2,3,95,word/worden0953.png,86,86,0,x,2.428897500009043,None,0,86,86,86,178.20647300001292,,,,,,,178.20647300001292,178.20647300001292,179.2088061000104,179.21179460000712,179.21179460000712,179.21179460000712,179.21179460000712,181.64530890001333,x,2.428897500009043,None,,,,,,,,,,SS_en,001,2025-03-11_10h10.22.519,MainFlow,2024.2.4,143.5309179789933,2025-03-11 10h10.45.980609 +0700,
2,3,30,word/worden0303.png,87,87,0,z,1.4733506000047782,None,0,87,87,87,181.65041710001242,,,,,,,181.65041710001242,181.65041710001242,182.6700058000133,182.67365770001197,182.67365770001197,182.67365770001197,182.67365770001197,184.15216070000315,z,1.4733506000047782,None,,,,,,,,,,SS_en,001,2025-03-11_10h10.22.519,MainFlow,2024.2.4,143.5309179789933,2025-03-11 10h10.45.980609 +0700,
2,3,22,word/worden0223.png,88,88,0,x,0.8346243999985745,None,0,88,88,88,184.1571999000007,,,,,,,184.1571999000007,184.1571999000007,185.15165430000343,185.1555226000055,185.1555226000055,185.1555226000055,185.1555226000055,185.99166300000797,x,0.8346243999985745,None,,,,,,,,,,SS_en,001,2025-03-11_10h10.22.519,MainFlow,2024.2.4,143.5309179789933,2025-03-11 10h10.45.980609 +0700,
2,1,75,word/worden0751.png,89,89,0,z,0.8994284000073094,None,0,89,89,89,185.99664029999985,,,,,,,185.99664029999985,185.99664029999985,186.9957534999994,186.99863250000635,186.99863250000635,186.99863250000635,186.99863250000635,187.9015175000095,z,0.8994284000073094,None,,,,,,,,,,SS_en,001,2025-03-11_10h10.22.519,MainFlow,2024.2.4,143.5309179789933,2025-03-11 10h10.45.980609 +0700,
2,1,64,word/worden0641.png,90,90,0,z,1.18795659999887,None,0,90,90,90,187.90609860001132,,,,,,,187.90609860001132,187.90609860001132,188.91115720001108,188.9141254000133,188.9141254000133,188.9141254000133,188.9141254000133,190.10864170000423,z,1.18795659999887,None,,,,,,,,,,SS_en,001,2025-03-11_10h10.22.519,MainFlow,2024.2.4,143.5309179789933,2025-03-11 10h10.45.980609 +0700,
2,1,27,word/worden0271.png,91,91,0,z,0.42180650000227615,None,0,91,91,91,190.11387160001323,,,,,,,190.11387160001323,190.11387160001323,191.11561040001106,191.11850219999906,191.11850219999906,191.11850219999906,191.11850219999906,191.5469163000089,z,0.42180650000227615,None,,,,,,,,,,SS_en,001,2025-03-11_10h10.22.519,MainFlow,2024.2.4,143.5309179789933,2025-03-11 10h10.45.980609 +0700,
2,2,24,word/worden0242.png,92,92,0,x,2.086888599995291,None,0,92,92,92,191.55122610001126,,,,,,,191.55122610001126,191.55122610001126,192.5512130999996,192.5540492,192.5540492,192.5540492,192.5540492,194.6427212000126,x,2.086888599995291,None,,,,,,,,,,SS_en,001,2025-03-11_10h10.22.519,MainFlow,2024.2.4,143.5309179789933,2025-03-11 10h10.45.980609 +0700,
2,1,87,word/worden0871.png,93,93,0,z,0.8605534999951487,None,0,93,93,93,194.64795750001213,,,,,,,194.64795750001213,194.64795750001213,195.65307360001316,195.65645470000163,195.65645470000163,195.65645470000163,195.65645470000163,196.51900410000235,z,0.8605534999951487,None,,,,,,,,,,SS_en,001,2025-03-11_10h10.22.519,MainFlow,2024.2.4,143.5309179789933,2025-03-11 10h10.45.980609 +0700,
2,1,7,word/worden0071.png,94,94,0,z,0.4919860000081826,None,0,94,94,94,196.5237724000035,,,,,,,196.5237724000035,196.5237724000035,197.52819360001013,197.53225270000985,197.53225270000985,197.53225270000985,197.53225270000985,198.02608470000268,z,0.4919860000081826,None,,,,,,,,,,SS_en,001,2025-03-11_10h10.22.519,MainFlow,2024.2.4,143.5309179789933,2025-03-11 10h10.45.980609 +0700,
2,2,9,word/worden0092.png,95,95,0,x,0.7188824000040768,None,0,95,95,95,198.03052440000465,,,,,,,198.03052440000465,198.03052440000465,199.0518213000032,199.05533410000498,199.05533410000498,199.05533410000498,199.05533410000498,199.78037400000903,x,0.7188824000040768,None,199.05533410000498,199.05533410000498,,,,,,,,SS_en,001,2025-03-11_10h10.22.519,MainFlow,2024.2.4,143.5309179789933,2025-03-11 10h10.45.980609 +0700,
2,1,44,word/worden0441.png,96,96,0,z,0.5511086000042269,None,0,96,96,96,199.7856305000023,,,,,,,199.7856305000023,199.7856305000023,200.79913600000145,200.80293320000055,200.80293320000055,200.80293320000055,200.80293320000055,201.35781050000514,z,0.5511086000042269,None,,,,,,,,,,SS_en,001,2025-03-11_10h10.22.519,MainFlow,2024.2.4,143.5309179789933,2025-03-11 10h10.45.980609 +0700,
2,2,10,word/worden0102.png,97,97,0,x,0.7222022999922046,None,0,97,97,97,201.3632990000042,,,,,,,201.3632990000042,201.3632990000042,202.36496859999897,202.3681085999997,202.3681085999997,202.3681085999997,202.3681085999997,203.0924786000105,x,0.7222022999922046,None,,,,,,,,,,SS_en,001,2025-03-11_10h10.22.519,MainFlow,2024.2.4,143.5309179789933,2025-03-11 10h10.45.980609 +0700,
2,2,82,word/worden0822.png,98,98,0,x,1.1607932000042638,None,0,98,98,98,203.09802689999924,,,,,,,203.09802689999924,203.09802689999924,204.1013021000108,204.10495550000633,204.10495550000633,204.10495550000633,204.10495550000633,205.2680079999991,x,1.1607932000042638,None,,,,,,,,,,SS_en,001,2025-03-11_10h10.22.519,MainFlow,2024.2.4,143.5309179789933,2025-03-11 10h10.45.980609 +0700,
2,3,89,word/worden0893.png,99,99,0,x,1.030101199998171,None,0,99,99,99,205.2745353000064,,,,,,,205.2745353000064,205.2745353000064,206.29590150000877,206.30090120001114,206.30090120001114,206.30090120001114,206.30090120001114,207.33750520000467,x,1.030101199998171,None,,,,,,,,,,SS_en,001,2025-03-11_10h10.22.519,MainFlow,2024.2.4,143.5309179789933,2025-03-11 10h10.45.980609 +0700,
2,2,44,word/worden0442.png,100,100,0,x,0.5972040999913588,None,0,100,100,100,207.3422389000043,,,,,,,207.3422389000043,207.3422389000043,208.35299400000076,208.3574573000078,208.3574573000078,208.3574573000078,208.3574573000078,208.9605869000079,x,0.5972040999913588,None,208.3574573000078,208.3574573000078,,,,,,,,SS_en,001,2025-03-11_10h10.22.519,MainFlow,2024.2.4,143.5309179789933,2025-03-11 10h10.45.980609 +0700,
2,1,52,word/worden0521.png,101,101,0,z,0.6659604000014951,None,0,101,101,101,208.9654639000073,,,,,,,208.9654639000073,208.9654639000073,209.96998940000776,209.97442420000152,209.97442420000152,209.97442420000152,209.97442420000152,210.64800800000376,z,0.6659604000014951,None,,,,,,,,,,SS_en,001,2025-03-11_10h10.22.519,MainFlow,2024.2.4,143.5309179789933,2025-03-11 10h10.45.980609 +0700,
2,1,51,word/worden0511.png,102,102,0,z,0.42568559999926947,None,0,102,102,102,210.65296300000045,,,,,,,210.65296300000045,210.65296300000045,211.65515930000402,211.65953640000953,211.65953640000953,211.65953640000953,211.65953640000953,212.0916137000022,z,0.42568559999926947,None,,,,,,,,,,SS_en,001,2025-03-11_10h10.22.519,MainFlow,2024.2.4,143.5309179789933,2025-03-11 10h10.45.980609 +0700,
2,3,51,word/worden0513.png,103,103,0,x,1.1197454999928595,None,0,103,103,103,212.09697790000064,,,,,,,212.09697790000064,212.09697790000064,213.09864670000388,213.10294960001193,213.10294960001193,213.10294960001193,213.10294960001193,214.23005240000202,x,1.1197454999928595,None,,,,,,,,,,SS_en,001,2025-03-11_10h10.22.519,MainFlow,2024.2.4,143.5309179789933,2025-03-11 10h10.45.980609 +0700,
2,2,8,word/worden0082.png,104,104,0,x,1.0259603000013158,None,0,104,104,104,214.23528090000036,,,,,,,214.23528090000036,214.23528090000036,215.2417955000128,215.2451727000007,215.2451727000007,215.2451727000007,215.2451727000007,216.27825840000878,x,1.0259603000013158,None,,,,,,,,,,SS_en,001,2025-03-11_10h10.22.519,MainFlow,2024.2.4,143.5309179789933,2025-03-11 10h10.45.980609 +0700,
2,2,3,word/worden0032.png,105,105,0,x,0.4598471000063,None,0,105,105,105,216.2830551000079,,,,,,,216.2830551000079,216.2830551000079,217.28833619999932,217.29133400000865,217.29133400000865,217.29133400000865,217.29133400000865,217.75701640000625,x,0.4598471000063,None,,,,,,,,,,SS_en,001,2025-03-11_10h10.22.519,MainFlow,2024.2.4,143.5309179789933,2025-03-11 10h10.45.980609 +0700,
2,3,3,word/worden0033.png,106,106,0,x,0.47180899999511894,None,0,106,106,106,217.76159150000603,,,,,,,217.76159150000603,217.76159150000603,218.78463740000734,218.78820870000345,218.78820870000345,218.78820870000345,218.78820870000345,219.26283950000652,x,0.47180899999511894,None,,,,,,,,,,SS_en,001,2025-03-11_10h10.22.519,MainFlow,2024.2.4,143.5309179789933,2025-03-11 10h10.45.980609 +0700,
2,3,64,word/worden0643.png,107,107,0,x,0.7267674000031548,None,0,107,107,107,219.26818540001113,,,,,,,219.26818540001113,219.26818540001113,220.27012950000062,220.27369860000908,220.27369860000908,220.27369860000908,220.27369860000908,221.00543010000547,x,0.7267674000031548,None,,,,,,,,,,SS_en,001,2025-03-11_10h10.22.519,MainFlow,2024.2.4,143.5309179789933,2025-03-11 10h10.45.980609 +0700,
2,3,26,word/worden0263.png,108,108,0,x,0.4862435000104597,None,0,108,108,108,221.0111237000092,,,,,,,221.0111237000092,221.0111237000092,222.0102765000047,222.01412030000938,222.01412030000938,222.01412030000938,222.01412030000938,222.5062079000054,x,0.4862435000104597,None,,,,,,,,,,SS_en,001,2025-03-11_10h10.22.519,MainFlow,2024.2.4,143.5309179789933,2025-03-11 10h10.45.980609 +0700,
2,2,96,word/worden0962.png,109,109,0,x,0.9345476000016788,None,0,109,109,109,222.51126730001124,,,,,,,222.51126730001124,222.51126730001124,223.5152167000051,223.5196139000036,223.5196139000036,223.5196139000036,223.5196139000036,224.45868600001268,x,0.9345476000016788,None,,,,,,,,,,SS_en,001,2025-03-11_10h10.22.519,MainFlow,2024.2.4,143.5309179789933,2025-03-11 10h10.45.980609 +0700,
2,1,22,word/worden0221.png,110,110,0,z,0.553675100003602,None,0,110,110,110,224.4651881000027,,,,,,,224.4651881000027,224.4651881000027,225.46601770000416,225.47043900001154,225.47043900001154,225.47043900001154,225.47043900001154,226.02648860000772,z,0.553675100003602,None,,,,,,,,,,SS_en,001,2025-03-11_10h10.22.519,MainFlow,2024.2.4,143.5309179789933,2025-03-11 10h10.45.980609 +0700,
2,2,22,word/worden0222.png,111,111,0,x,0.5521195000037551,None,0,111,111,111,226.0316038000019,,,,,,,226.0316038000019,226.0316038000019,227.04440740001155,227.04782479999994,227.04782479999994,227.04782479999994,227.04782479999994,227.6014959000022,x,0.5521195000037551,None,,,,,,,,,,SS_en,001,2025-03-11_10h10.22.519,MainFlow,2024.2.4,143.5309179789933,2025-03-11 10h10.45.980609 +0700,
2,2,26,word/worden0262.png,112,112,0,x,0.5574296999984654,None,0,112,112,112,227.60667350000585,,,,,,,227.60667350000585,227.60667350000585,228.60814520000713,228.6111005999992,228.6111005999992,228.6111005999992,228.6111005999992,229.1703611000121,x,0.5574296999984654,None,,,,,,,,,,SS_en,001,2025-03-11_10h10.22.519,MainFlow,2024.2.4,143.5309179789933,2025-03-11 10h10.45.980609 +0700,
2,3,48,word/worden0483.png,113,113,0,x,0.7114787000027718,None,0,113,113,113,229.17581200000132,,,,,,,229.17581200000132,229.17581200000132,230.17950410000049,230.18253460001142,230.18253460001142,230.18253460001142,230.18253460001142,230.89997840000433,x,0.7114787000027718,None,,,,,,,,,,SS_en,001,2025-03-11_10h10.22.519,MainFlow,2024.2.4,143.5309179789933,2025-03-11 10h10.45.980609 +0700,
2,2,87,word/worden0872.png,114,114,0,x,0.6380479999934323,None,0,114,114,114,230.9046226000064,,,,,,,230.9046226000064,230.9046226000064,231.9096045000042,231.91249460000836,231.91249460000836,231.91249460000836,231.91249460000836,232.55222589999903,x,0.6380479999934323,None,,,,,,,,,,SS_en,001,2025-03-11_10h10.22.519,MainFlow,2024.2.4,143.5309179789933,2025-03-11 10h10.45.980609 +0700,
2,1,10,word/worden0101.png,115,115,0,z,0.5801041999948211,None,0,115,115,115,232.5571057000052,,,,,,,232.5571057000052,232.5571057000052,233.55808630000683,233.5612179000018,233.5612179000018,233.5612179000018,233.5612179000018,234.14895620000607,z,0.5801041999948211,None,,,,,,,,,,SS_en,001,2025-03-11_10h10.22.519,MainFlow,2024.2.4,143.5309179789933,2025-03-11 10h10.45.980609 +0700,
2,3,8,word/worden0083.png,116,116,0,x,0.5573551000125008,None,0,116,116,116,234.15415820000635,,,,,,,234.15415820000635,234.15415820000635,235.14801070000976,235.15090090000012,235.15090090000012,235.15090090000012,235.15090090000012,235.71232330000203,x,0.5573551000125008,None,,,,,,,,,,SS_en,001,2025-03-11_10h10.22.519,MainFlow,2024.2.4,143.5309179789933,2025-03-11 10h10.45.980609 +0700,
2,3,94,word/worden0943.png,117,117,0,x,0.5253969000041252,None,0,117,117,117,235.71667560000787,,,,,,,235.71667560000787,235.71667560000787,236.72065719999955,236.7235095000069,236.7235095000069,236.7235095000069,236.7235095000069,237.2521265000105,x,0.5253969000041252,None,,,,,,,,,,SS_en,001,2025-03-11_10h10.22.519,MainFlow,2024.2.4,143.5309179789933,2025-03-11 10h10.45.980609 +0700,
2,2,11,word/worden0112.png,118,118,0,x,0.47372719999111723,None,0,118,118,118,237.25755930000742,,,,,,,237.25755930000742,237.25755930000742,238.27963000000454,238.28316450001148,238.28316450001148,238.28316450001148,238.28316450001148,238.75924150001083,x,0.47372719999111723,None,,,,,,,,,,SS_en,001,2025-03-11_10h10.22.519,MainFlow,2024.2.4,143.5309179789933,2025-03-11 10h10.45.980609 +0700,
2,3,24,word/worden0243.png,119,119,0,x,0.6509256999997888,None,0,119,119,119,238.76436020000256,,,,,,,238.76436020000256,238.76436020000256,239.76957120001316,239.77257180000015,239.77257180000015,239.77257180000015,239.77257180000015,240.42672070000845,x,0.6509256999997888,None,,,,,,,,,,SS_en,001,2025-03-11_10h10.22.519,MainFlow,2024.2.4,143.5309179789933,2025-03-11 10h10.45.980609 +0700,
,,,,,,,,,,,,,,,,,,,,,,,,,,,,,,,,,,240.42702909999934,240.4305502000061,240.4305502000061,243.79307480000716,space,3.3550953999947524,None,SS_en,001,2025-03-11_10h10.22.519,MainFlow,2024.2.4,143.5309179789933,2025-03-11 10h10.45.980609 +0700,
