lang,stimuli,imageid,worddir,thisN,thisTrialN,thisRepN,key_resp.keys,key_resp.rt,key_resp.duration,trials.thisRepN,trials.thisTrialN,trials.thisN,trials.thisIndex,thisRow.t,notes,tutorial.started,tutorial.stopped,key_instruct.keys,key_instruct.rt,key_instruct.duration,instructblank.started,cross1.started,letterselect.started,imageword.started,text_2.started,cross2.started,key_resp.started,letterselect.stopped,trials.key_resp.keys,trials.key_resp.rt,trials.key_resp.duration,instructblank.stopped,cross1.stopped,ending.started,text_3.started,ending_key.started,ending.stopped,ending_key.keys,ending_key.rt,ending_key.duration,participant,session,date,expName,psychopyVersion,frameRate,expStart,
,,,,,,,,,,,,,,,,0.0033454000076744705,2.8314455000072485,space,2.7878883000084898,None,,,,,,,,,,,,,,,,,,,,,SS_th,001,2025-03-11_10h05.47.881,MainFlow,2024.2.4,144.44229387409962,2025-03-11 10h05.58.273963 +0700,
1,3,89,word/wordth0893.png,0,0,0,x,2.842946999997366,None,0,0,0,0,2.8707561000046553,,,,,,,2.8707561000046553,2.8707561000046553,3.8525313999998616,3.8763805000053253,3.8763805000053253,3.8763805000053253,3.8763805000053253,6.72158950001176,x,2.842946999997366,None,,,,,,,,,,SS_th,001,2025-03-11_10h05.47.881,MainFlow,2024.2.4,144.44229387409962,2025-03-11 10h05.58.273963 +0700,
1,3,28,word/wordth0283.png,1,1,0,x,0.9831345999991754,None,0,1,1,1,6.727611500013154,,,,,,,6.727611500013154,6.727611500013154,7.730097100007697,7.732883300006506,7.732883300006506,7.732883300006506,7.732883300006506,8.72005820000777,x,0.9831345999991754,None,,,,,,,,,,SS_th,001,2025-03-11_10h05.47.881,MainFlow,2024.2.4,144.44229387409962,2025-03-11 10h05.58.273963 +0700,
1,2,87,word/wordth0872.png,2,2,0,x,2.1550140000035753,None,0,2,2,2,8.724782400007825,,,,,,,8.724782400007825,8.724782400007825,9.72760380001273,9.730470800001058,9.730470800001058,9.730470800001058,9.730470800001058,11.892300700012129,x,2.1550140000035753,None,,,,,,,,,,SS_th,001,2025-03-11_10h05.47.881,MainFlow,2024.2.4,144.44229387409962,2025-03-11 10h05.58.273963 +0700,
1,2,68,word/wordth0682.png,3,3,0,x,1.2425093000056222,None,0,3,3,3,11.897725700007868,,,,,,,11.897725700007868,11.897725700007868,12.903226200010977,12.906050700010383,12.906050700010383,12.906050700010383,12.906050700010383,14.151175300008617,x,1.2425093000056222,None,,,,,,,,,,SS_th,001,2025-03-11_10h05.47.881,MainFlow,2024.2.4,144.44229387409962,2025-03-11 10h05.58.273963 +0700,
1,2,11,word/wordth0112.png,4,4,0,x,0.6870314000116196,None,0,4,4,4,14.157076500006951,,,,,,,14.157076500006951,14.157076500006951,15.16796570000588,15.170831700001145,15.170831700001145,15.170831700001145,15.170831700001145,15.863481700012926,x,0.6870314000116196,None,15.170831700001145,15.170831700001145,,,,,,,,SS_th,001,2025-03-11_10h05.47.881,MainFlow,2024.2.4,144.44229387409962,2025-03-11 10h05.58.273963 +0700,
1,3,11,word/wordth0113.png,5,5,0,x,0.6898175999958767,None,0,5,5,5,15.869069100008346,,,,,,,15.869069100008346,15.869069100008346,16.87670780000917,16.879517500012298,16.879517500012298,16.879517500012298,16.879517500012298,17.573635900000227,x,0.6898175999958767,None,,,,,,,,,,SS_th,001,2025-03-11_10h05.47.881,MainFlow,2024.2.4,144.44229387409962,2025-03-11 10h05.58.273963 +0700,
1,2,71,word/wordth0712.png,6,6,0,x,0.7122360999928787,None,0,6,6,6,17.579238600010285,,,,,,,17.579238600010285,17.579238600010285,18.57540830000653,18.578414500007057,18.578414500007057,18.578414500007057,18.578414500007057,19.293691700004274,x,0.7122360999928787,None,,,,,,,,,,SS_th,001,2025-03-11_10h05.47.881,MainFlow,2024.2.4,144.44229387409962,2025-03-11 10h05.58.273963 +0700,
1,3,44,word/wordth0443.png,7,7,0,x,0.6304531000059796,None,0,7,7,7,19.299046500003897,,,,,,,19.299046500003897,19.299046500003897,20.305847800002084,20.308810600006836,20.308810600006836,20.308810600006836,20.308810600006836,20.946071100013796,x,0.6304531000059796,None,,,,,,,,,,SS_th,001,2025-03-11_10h05.47.881,MainFlow,2024.2.4,144.44229387409962,2025-03-11 10h05.58.273963 +0700,
1,2,82,word/wordth0822.png,8,8,0,x,0.48283799999626353,None,0,8,8,8,20.951419700009865,,,,,,,20.951419700009865,20.951419700009865,21.95348590001231,21.956375700014178,21.956375700014178,21.956375700014178,21.956375700014178,22.44629160000477,x,0.48283799999626353,None,,,,,,,,,,SS_th,001,2025-03-11_10h05.47.881,MainFlow,2024.2.4,144.44229387409962,2025-03-11 10h05.58.273963 +0700,
1,2,28,word/wordth0282.png,9,9,0,x,0.919276999993599,None,0,9,9,9,22.45136750000529,,,,,,,22.45136750000529,22.45136750000529,23.468472300010035,23.471804000000702,23.471804000000702,23.471804000000702,23.471804000000702,24.397907600010512,x,0.919276999993599,None,,,,,,,,,,SS_th,001,2025-03-11_10h05.47.881,MainFlow,2024.2.4,144.44229387409962,2025-03-11 10h05.58.273963 +0700,
1,1,23,word/wordth0231.png,10,10,0,z,5.77199809999729,None,0,10,10,10,24.402140300007886,,,,,,,24.402140300007886,24.402140300007886,25.406847900012508,25.40976110000338,25.40976110000338,25.40976110000338,25.40976110000338,31.186699800004135,z,5.77199809999729,None,,,,,,,,,,SS_th,001,2025-03-11_10h05.47.881,MainFlow,2024.2.4,144.44229387409962,2025-03-11 10h05.58.273963 +0700,
1,2,63,word/wordth0632.png,11,11,0,x,0.785872799999197,None,0,11,11,11,31.19252840000263,,,,,,,31.19252840000263,31.19252840000263,32.18816910000169,32.19117930000357,32.19117930000357,32.19117930000357,32.19117930000357,32.97835760000453,x,0.785872799999197,None,,,,,,,,,,SS_th,001,2025-03-11_10h05.47.881,MainFlow,2024.2.4,144.44229387409962,2025-03-11 10h05.58.273963 +0700,
1,3,71,word/wordth0713.png,12,12,0,x,0.6240112999948906,None,0,12,12,12,32.98388080000586,,,,,,,32.98388080000586,32.98388080000586,33.97919230000116,33.98259010000038,33.98259010000038,33.98259010000038,33.98259010000038,34.60998040001141,x,0.6240112999948906,None,,,,,,,,,,SS_th,001,2025-03-11_10h05.47.881,MainFlow,2024.2.4,144.44229387409962,2025-03-11 10h05.58.273963 +0700,
1,1,1,word/wordth0011.png,13,13,0,z,0.7077764999994542,None,0,13,13,13,34.61562290000438,,,,,,,34.61562290000438,34.61562290000438,35.61338590001105,35.61631130000751,35.61631130000751,35.61631130000751,35.61631130000751,36.32589250001183,z,0.7077764999994542,None,,,,,,,,,,SS_th,001,2025-03-11_10h05.47.881,MainFlow,2024.2.4,144.44229387409962,2025-03-11 10h05.58.273963 +0700,
1,3,41,word/wordth0413.png,14,14,0,x,0.6824816000007559,None,0,14,14,14,36.33055690000765,,,,,,,36.33055690000765,36.33055690000765,37.338068100012606,37.34099490000517,37.34099490000517,37.34099490000517,37.34099490000517,38.02608090000285,x,0.6824816000007559,None,,,,,,,,,,SS_th,001,2025-03-11_10h05.47.881,MainFlow,2024.2.4,144.44229387409962,2025-03-11 10h05.58.273963 +0700,
1,2,64,word/wordth0642.png,15,15,0,x,0.4578726000036113,None,0,15,15,15,38.031596300003,,,,,,,38.031596300003,38.031596300003,39.03282040001068,39.03565190000518,39.03565190000518,39.03565190000518,39.03565190000518,39.49763120000716,x,0.4578726000036113,None,,,,,,,,,,SS_th,001,2025-03-11_10h05.47.881,MainFlow,2024.2.4,144.44229387409962,2025-03-11 10h05.58.273963 +0700,
1,3,6,word/wordth0063.png,16,16,0,x,0.6314841999992495,None,0,16,16,16,39.5033875000081,,,,,,,39.5033875000081,39.5033875000081,40.50882290001027,40.51181780001207,40.51181780001207,40.51181780001207,40.51181780001207,41.14554880000651,x,0.6314841999992495,None,,,,,,,,,,SS_th,001,2025-03-11_10h05.47.881,MainFlow,2024.2.4,144.44229387409962,2025-03-11 10h05.58.273963 +0700,
1,2,31,word/wordth0312.png,17,17,0,x,0.49173210001026746,None,0,17,17,17,41.15141150000272,,,,,,,41.15141150000272,41.15141150000272,42.15029000000504,42.153440300011425,42.153440300011425,42.153440300011425,42.153440300011425,42.650232400003006,x,0.49173210001026746,None,42.153440300011425,42.153440300011425,,,,,,,,SS_th,001,2025-03-11_10h05.47.881,MainFlow,2024.2.4,144.44229387409962,2025-03-11 10h05.58.273963 +0700,
1,1,46,word/wordth0461.png,18,18,0,z,0.5815481000026921,None,0,18,18,18,42.65570970000408,,,,,,,42.65570970000408,42.65570970000408,43.654598000008264,43.65745900000911,43.65745900000911,43.65745900000911,43.65745900000911,44.24215240000922,z,0.5815481000026921,None,,,,,,,,,,SS_th,001,2025-03-11_10h05.47.881,MainFlow,2024.2.4,144.44229387409962,2025-03-11 10h05.58.273963 +0700,
1,3,51,word/wordth0513.png,19,19,0,x,0.6326656000019284,None,0,19,19,19,44.24994510000397,,,,,,,44.24994510000397,44.24994510000397,45.2469570000103,45.2497982000059,45.2497982000059,45.2497982000059,45.2497982000059,45.88580710001406,x,0.6326656000019284,None,,,,,,,,,,SS_th,001,2025-03-11_10h05.47.881,MainFlow,2024.2.4,144.44229387409962,2025-03-11 10h05.58.273963 +0700,
1,2,26,word/wordth0262.png,20,20,0,x,0.5088893000065582,None,0,20,20,20,45.89118390000658,,,,,,,45.89118390000658,45.89118390000658,46.89645569999993,46.89949830000114,46.89949830000114,46.89949830000114,46.89949830000114,47.41344519999984,x,0.5088893000065582,None,,,,,,,,,,SS_th,001,2025-03-11_10h05.47.881,MainFlow,2024.2.4,144.44229387409962,2025-03-11 10h05.58.273963 +0700,
1,2,96,word/wordth0962.png,21,21,0,x,0.5323214000090957,None,0,21,21,21,47.418595400013146,,,,,,,47.418595400013146,47.418595400013146,48.43964030001371,48.44288740000047,48.44288740000047,48.44288740000047,48.44288740000047,48.982096000007004,x,0.5323214000090957,None,,,,,,,,,,SS_th,001,2025-03-11_10h05.47.881,MainFlow,2024.2.4,144.44229387409962,2025-03-11 10h05.58.273963 +0700,
1,1,31,word/wordth0311.png,22,22,0,z,0.5464136000082362,None,0,22,22,22,48.98766400000022,,,,,,,48.98766400000022,48.98766400000022,49.989613500001724,49.99260990000039,49.99260990000039,49.99260990000039,49.99260990000039,50.5457824000041,z,0.5464136000082362,None,,,,,,,,,,SS_th,001,2025-03-11_10h05.47.881,MainFlow,2024.2.4,144.44229387409962,2025-03-11 10h05.58.273963 +0700,
1,2,94,word/wordth0942.png,23,23,0,x,3.736937699999544,None,0,23,23,23,50.55009030000656,,,,,,,50.55009030000656,50.55009030000656,51.55252000001201,51.55549969999993,51.55549969999993,51.55549969999993,51.55549969999993,55.294014200000674,x,3.736937699999544,None,,,,,,,,,,SS_th,001,2025-03-11_10h05.47.881,MainFlow,2024.2.4,144.44229387409962,2025-03-11 10h05.58.273963 +0700,
1,3,48,word/wordth0483.png,24,24,0,x,0.9462632999930065,None,0,24,24,24,55.2990298000077,,,,,,,55.2990298000077,55.2990298000077,56.311298000000534,56.31480360000569,56.31480360000569,56.31480360000569,56.31480360000569,57.26607720000902,x,0.9462632999930065,None,,,,,,,,,,SS_th,001,2025-03-11_10h05.47.881,MainFlow,2024.2.4,144.44229387409962,2025-03-11 10h05.58.273963 +0700,
1,3,24,word/wordth0243.png,25,25,0,x,0.9353470000060042,None,0,25,25,25,57.270780400009244,,,,,,,57.270780400009244,57.270780400009244,58.27651570001035,58.27950160000182,58.27950160000182,58.27950160000182,58.27950160000182,59.21674580000399,x,0.9353470000060042,None,,,,,,,,,,SS_th,001,2025-03-11_10h05.47.881,MainFlow,2024.2.4,144.44229387409962,2025-03-11 10h05.58.273963 +0700,
1,1,87,word/wordth0871.png,26,26,0,z,0.636066099992604,None,0,26,26,26,59.221939900002326,,,,,,,59.221939900002326,59.221939900002326,60.21755930001382,60.220358000005945,60.220358000005945,60.220358000005945,60.220358000005945,60.86225120000017,z,0.636066099992604,None,,,,,,,,,,SS_th,001,2025-03-11_10h05.47.881,MainFlow,2024.2.4,144.44229387409962,2025-03-11 10h05.58.273963 +0700,
1,2,51,word/wordth0512.png,27,27,0,z,0.7911219999950845,None,0,27,27,27,60.86736540000129,,,,,,,60.86736540000129,60.86736540000129,61.88117960000818,61.88446660000773,61.88446660000773,61.88446660000773,61.88446660000773,62.681583800003864,z,0.7911219999950845,None,,,,,,,,,,SS_th,001,2025-03-11_10h05.47.881,MainFlow,2024.2.4,144.44229387409962,2025-03-11 10h05.58.273963 +0700,
1,3,27,word/wordth0273.png,28,28,0,x,0.8954080999974394,None,0,28,28,28,62.68647840000631,,,,,,,62.68647840000631,62.68647840000631,63.69945800000278,63.703005300005316,63.703005300005316,63.703005300005316,63.703005300005316,64.6045781000139,x,0.8954080999974394,None,,,,,,,,,,SS_th,001,2025-03-11_10h05.47.881,MainFlow,2024.2.4,144.44229387409962,2025-03-11 10h05.58.273963 +0700,
1,2,22,word/wordth0222.png,29,29,0,x,0.7167440000048373,None,0,29,29,29,64.60973120000563,,,,,,,64.60973120000563,64.60973120000563,65.61014100001194,65.61301390000153,65.61301390000153,65.61301390000153,65.61301390000153,66.33329420001246,x,0.7167440000048373,None,,,,,,,,,,SS_th,001,2025-03-11_10h05.47.881,MainFlow,2024.2.4,144.44229387409962,2025-03-11 10h05.58.273963 +0700,
1,3,23,word/wordth0233.png,30,30,0,z,1.6719473999983165,None,0,30,30,30,66.33857790000911,,,,,,,66.33857790000911,66.33857790000911,67.34290909999982,67.3456598000048,67.3456598000048,67.3456598000048,67.3456598000048,69.0204056000075,z,1.6719473999983165,None,,,,,,,,,,SS_th,001,2025-03-11_10h05.47.881,MainFlow,2024.2.4,144.44229387409962,2025-03-11 10h05.58.273963 +0700,
1,1,48,word/wordth0481.png,31,31,0,z,0.9737019000021974,None,0,31,31,31,69.025535400011,,,,,,,69.025535400011,69.025535400011,70.03066200000467,70.03356680000434,70.03356680000434,70.03356680000434,70.03356680000434,71.01325870001165,z,0.9737019000021974,None,,,,,,,,,,SS_th,001,2025-03-11_10h05.47.881,MainFlow,2024.2.4,144.44229387409962,2025-03-11 10h05.58.273963 +0700,
1,2,10,word/wordth0102.png,32,32,0,x,3.237111800001003,None,0,32,32,32,71.01836720001302,,,,,,,71.01836720001302,71.01836720001302,72.02007030000095,72.0228683000023,72.0228683000023,72.0228683000023,72.0228683000023,75.2634023000137,x,3.237111800001003,None,,,,,,,,,,SS_th,001,2025-03-11_10h05.47.881,MainFlow,2024.2.4,144.44229387409962,2025-03-11 10h05.58.273963 +0700,
1,3,64,word/wordth0643.png,33,33,0,x,7.005258400007733,None,0,33,33,33,75.26891750001232,,,,,,,75.26891750001232,75.26891750001232,76.27257840000675,76.27535050000006,76.27535050000006,76.27535050000006,76.27535050000006,83.28791480000655,x,7.005258400007733,None,,,,,,,,,,SS_th,001,2025-03-11_10h05.47.881,MainFlow,2024.2.4,144.44229387409962,2025-03-11 10h05.58.273963 +0700,
1,3,22,word/wordth0223.png,34,34,0,x,0.9335657000046922,None,0,34,34,34,83.29349440000078,,,,,,,83.29349440000078,83.29349440000078,84.29852680000477,84.30152700000326,84.30152700000326,84.30152700000326,84.30152700000326,85.23876860000018,x,0.9335657000046922,None,,,,,,,,,,SS_th,001,2025-03-11_10h05.47.881,MainFlow,2024.2.4,144.44229387409962,2025-03-11 10h05.58.273963 +0700,
1,1,42,word/wordth0421.png,35,35,0,z,0.8196683999995003,None,0,35,35,35,85.24451570000383,,,,,,,85.24451570000383,85.24451570000383,86.24271230000886,86.24560730000667,86.24560730000667,86.24560730000667,86.24560730000667,87.07167260001006,z,0.8196683999995003,None,,,,,,,,,,SS_th,001,2025-03-11_10h05.47.881,MainFlow,2024.2.4,144.44229387409962,2025-03-11 10h05.58.273963 +0700,
1,2,1,word/wordth0012.png,36,36,0,x,2.3051228999975137,None,0,36,36,36,87.07747750000271,,,,,,,87.07747750000271,87.07747750000271,88.08264620001137,88.0853921000089,88.0853921000089,88.0853921000089,88.0853921000089,90.39781850000145,x,2.3051228999975137,None,,,,,,,,,,SS_th,001,2025-03-11_10h05.47.881,MainFlow,2024.2.4,144.44229387409962,2025-03-11 10h05.58.273963 +0700,
1,1,82,word/wordth0821.png,37,37,0,z,0.6821272999950452,None,0,37,37,37,90.40320340001199,,,,,,,90.40320340001199,90.40320340001199,91.40830110000388,91.41104880000057,91.41104880000057,91.41104880000057,91.41104880000057,92.09993330000725,z,0.6821272999950452,None,,,,,,,,,,SS_th,001,2025-03-11_10h05.47.881,MainFlow,2024.2.4,144.44229387409962,2025-03-11 10h05.58.273963 +0700,
1,2,3,word/wordth0032.png,38,38,0,x,0.6832963000051677,None,0,38,38,38,92.10437470000761,,,,,,,92.10437470000761,92.10437470000761,93.10636390000582,93.10925320000388,93.10925320000388,93.10925320000388,93.10925320000388,93.79406310000923,x,0.6832963000051677,None,,,,,,,,,,SS_th,001,2025-03-11_10h05.47.881,MainFlow,2024.2.4,144.44229387409962,2025-03-11 10h05.58.273963 +0700,
1,1,68,word/wordth0681.png,39,39,0,z,0.6538266999996267,None,0,39,39,39,93.79870180001308,,,,,,,93.79870180001308,93.79870180001308,94.80334690000745,94.80630680000468,94.80630680000468,94.80630680000468,94.80630680000468,95.46743790000619,z,0.6538266999996267,None,,,,,,,,,,SS_th,001,2025-03-11_10h05.47.881,MainFlow,2024.2.4,144.44229387409962,2025-03-11 10h05.58.273963 +0700,
1,1,66,word/wordth0661.png,40,40,0,z,0.7080787000013515,None,0,40,40,40,95.4716546000127,,,,,,,95.4716546000127,95.4716546000127,96.47629090001283,96.47917470001266,96.47917470001266,96.47917470001266,96.47917470001266,97.1888803000038,z,0.7080787000013515,None,,,,,,,,,,SS_th,001,2025-03-11_10h05.47.881,MainFlow,2024.2.4,144.44229387409962,2025-03-11 10h05.58.273963 +0700,
1,2,42,word/wordth0422.png,41,41,0,x,0.90990050000255,None,0,41,41,41,97.19374120001157,,,,,,,97.19374120001157,97.19374120001157,98.19238930000574,98.1952442000038,98.1952442000038,98.1952442000038,98.1952442000038,99.11152720000246,x,0.90990050000255,None,,,,,,,,,,SS_th,001,2025-03-11_10h05.47.881,MainFlow,2024.2.4,144.44229387409962,2025-03-11 10h05.58.273963 +0700,
1,3,93,word/wordth0933.png,42,42,0,x,0.90272179999738,None,0,42,42,42,99.11677840001357,,,,,,,99.11677840001357,99.11677840001357,100.11847500001022,100.12132300001394,100.12132300001394,100.12132300001394,100.12132300001394,101.03071330000239,x,0.90272179999738,None,,,,,,,,,,SS_th,001,2025-03-11_10h05.47.881,MainFlow,2024.2.4,144.44229387409962,2025-03-11 10h05.58.273963 +0700,
1,1,71,word/wordth0711.png,43,43,0,z,1.0703878999920562,None,0,43,43,43,101.03374660000554,,,,,,,101.03374660000554,101.03374660000554,102.03425100000459,102.03708820001339,102.03708820001339,102.03708820001339,102.03708820001339,103.11072790001344,z,1.0703878999920562,None,102.03708820001339,102.03708820001339,,,,,,,,SS_th,001,2025-03-11_10h05.47.881,MainFlow,2024.2.4,144.44229387409962,2025-03-11 10h05.58.273963 +0700,
1,1,64,word/wordth0641.png,44,44,0,z,1.99194439999701,None,0,44,44,44,103.11609370000951,,,,,,,103.11609370000951,103.11609370000951,104.11827620000986,104.12128800000937,104.12128800000937,104.12128800000937,104.12128800000937,106.1166540000122,z,1.99194439999701,None,,,,,,,,,,SS_th,001,2025-03-11_10h05.47.881,MainFlow,2024.2.4,144.44229387409962,2025-03-11 10h05.58.273963 +0700,
1,1,88,word/wordth0881.png,45,45,0,z,0.5861962000053609,None,0,45,45,45,106.12237740001001,,,,,,,106.12237740001001,106.12237740001001,107.12517060000391,107.12796210001397,107.12796210001397,107.12796210001397,107.12796210001397,107.72236070000508,z,0.5861962000053609,None,,,,,,,,,,SS_th,001,2025-03-11_10h05.47.881,MainFlow,2024.2.4,144.44229387409962,2025-03-11 10h05.58.273963 +0700,
1,3,87,word/wordth0873.png,46,46,0,x,0.7641423000022769,None,0,46,46,46,107.72620990000723,,,,,,,107.72620990000723,107.72620990000723,108.72811320000619,108.73113070000545,108.73113070000545,108.73113070000545,108.73113070000545,109.49848160000693,x,0.7641423000022769,None,,,,,,,,,,SS_th,001,2025-03-11_10h05.47.881,MainFlow,2024.2.4,144.44229387409962,2025-03-11 10h05.58.273963 +0700,
1,3,3,word/wordth0033.png,47,47,0,x,1.3732438000006368,None,0,47,47,47,109.50388580000435,,,,,,,109.50388580000435,109.50388580000435,110.50492080001277,110.50769450000371,110.50769450000371,110.50769450000371,110.50769450000371,111.88699080000515,x,1.3732438000006368,None,,,,,,,,,,SS_th,001,2025-03-11_10h05.47.881,MainFlow,2024.2.4,144.44229387409962,2025-03-11 10h05.58.273963 +0700,
1,2,95,word/wordth0952.png,48,48,0,x,0.8831891000008909,None,0,48,48,48,111.89219460000459,,,,,,,111.89219460000459,111.89219460000459,112.89587390000816,112.89880940000876,112.89880940000876,112.89880940000876,112.89880940000876,113.78409920001286,x,0.8831891000008909,None,,,,,,,,,,SS_th,001,2025-03-11_10h05.47.881,MainFlow,2024.2.4,144.44229387409962,2025-03-11 10h05.58.273963 +0700,
1,1,11,word/wordth0111.png,49,49,0,z,0.9050491999951191,None,0,49,49,49,113.78925540001364,,,,,,,113.78925540001364,113.78925540001364,114.79090890000225,114.79372180000064,114.79372180000064,114.79372180000064,114.79372180000064,115.70582970000396,z,0.9050491999951191,None,,,,,,,,,,SS_th,001,2025-03-11_10h05.47.881,MainFlow,2024.2.4,144.44229387409962,2025-03-11 10h05.58.273963 +0700,
1,1,10,word/wordth0101.png,50,50,0,z,0.4526495000027353,None,0,50,50,50,115.71077600000717,,,,,,,115.71077600000717,115.71077600000717,116.71533410000848,116.71820510001271,116.71820510001271,116.71820510001271,116.71820510001271,117.17877500000759,z,0.4526495000027353,None,,,,,,,,,,SS_th,001,2025-03-11_10h05.47.881,MainFlow,2024.2.4,144.44229387409962,2025-03-11 10h05.58.273963 +0700,
1,1,44,word/wordth0441.png,51,51,0,z,0.424827800001367,None,0,51,51,51,117.18283280001197,,,,,,,117.18283280001197,117.18283280001197,118.1822172000102,118.18502110001282,118.18502110001282,118.18502110001282,118.18502110001282,118.61417160001292,z,0.424827800001367,None,,,,,,,,,,SS_th,001,2025-03-11_10h05.47.881,MainFlow,2024.2.4,144.44229387409962,2025-03-11 10h05.58.273963 +0700,
1,1,96,word/wordth0961.png,52,52,0,z,1.3155737000051886,None,0,52,52,52,118.6199445000093,,,,,,,118.6199445000093,118.6199445000093,119.6377138000098,119.64104770000267,119.64104770000267,119.64104770000267,119.64104770000267,120.9618679000123,z,1.3155737000051886,None,,,,,,,,,,SS_th,001,2025-03-11_10h05.47.881,MainFlow,2024.2.4,144.44229387409962,2025-03-11 10h05.58.273963 +0700,
1,2,27,word/wordth0272.png,53,53,0,x,0.75684220000403,None,0,53,53,53,120.96689230001357,,,,,,,120.96689230001357,120.96689230001357,121.97394830000121,121.97697770000377,121.97697770000377,121.97697770000377,121.97697770000377,122.738411000013,x,0.75684220000403,None,,,,,,,,,,SS_th,001,2025-03-11_10h05.47.881,MainFlow,2024.2.4,144.44229387409962,2025-03-11 10h05.58.273963 +0700,
1,1,63,word/wordth0631.png,54,54,0,z,0.7212518000014825,None,0,54,54,54,122.74416800000472,,,,,,,122.74416800000472,122.74416800000472,123.74792870000238,123.75090700000874,123.75090700000874,123.75090700000874,123.75090700000874,124.4746293000062,z,0.7212518000014825,None,,,,,,,,,,SS_th,001,2025-03-11_10h05.47.881,MainFlow,2024.2.4,144.44229387409962,2025-03-11 10h05.58.273963 +0700,
1,3,66,word/wordth0663.png,55,55,0,x,1.59231359999103,None,0,55,55,55,124.48001720001048,,,,,,,124.48001720001048,124.48001720001048,125.48605460001272,125.4889899000118,125.4889899000118,125.4889899000118,125.4889899000118,127.08559310001147,x,1.59231359999103,None,,,,,,,,,,SS_th,001,2025-03-11_10h05.47.881,MainFlow,2024.2.4,144.44229387409962,2025-03-11 10h05.58.273963 +0700,
1,3,88,word/wordth0883.png,56,56,0,x,0.9472428000008222,None,0,56,56,56,127.09064250001393,,,,,,,127.09064250001393,127.09064250001393,128.09494890000497,128.09775540001283,128.09775540001283,128.09775540001283,128.09775540001283,129.05049940000754,x,0.9472428000008222,None,,,,,,,,,,SS_th,001,2025-03-11_10h05.47.881,MainFlow,2024.2.4,144.44229387409962,2025-03-11 10h05.58.273963 +0700,
1,3,96,word/wordth0963.png,57,57,0,x,0.512697099999059,None,0,57,57,57,129.0556562000129,,,,,,,129.0556562000129,129.0556562000129,130.0574392000126,130.06024230000912,130.06024230000912,130.06024230000912,130.06024230000912,130.5775782000128,x,0.512697099999059,None,,,,,,,,,,SS_th,001,2025-03-11_10h05.47.881,MainFlow,2024.2.4,144.44229387409962,2025-03-11 10h05.58.273963 +0700,
1,2,52,word/wordth0522.png,58,58,0,x,0.7140056000062032,None,0,58,58,58,130.58294980000937,,,,,,,130.58294980000937,130.58294980000937,131.5964312000142,131.6001927000034,131.6001927000034,131.6001927000034,131.6001927000034,132.32173620001413,x,0.7140056000062032,None,,,,,,,,,,SS_th,001,2025-03-11_10h05.47.881,MainFlow,2024.2.4,144.44229387409962,2025-03-11 10h05.58.273963 +0700,
1,3,50,word/wordth0503.png,59,59,0,x,0.506609699994442,None,0,59,59,59,132.32748040001024,,,,,,,132.32748040001024,132.32748040001024,133.33169950000593,133.33464590000222,133.33464590000222,133.33464590000222,133.33464590000222,133.84917390000192,x,0.506609699994442,None,,,,,,,,,,SS_th,001,2025-03-11_10h05.47.881,MainFlow,2024.2.4,144.44229387409962,2025-03-11 10h05.58.273963 +0700,
1,3,61,word/wordth0613.png,60,60,0,x,0.5760248000005959,None,0,60,60,60,133.85319380000874,,,,,,,133.85319380000874,133.85319380000874,134.8663777000038,134.86984330000996,134.86984330000996,134.86984330000996,134.86984330000996,135.45189370001026,x,0.5760248000005959,None,,,,,,,,,,SS_th,001,2025-03-11_10h05.47.881,MainFlow,2024.2.4,144.44229387409962,2025-03-11 10h05.58.273963 +0700,
1,2,46,word/wordth0462.png,61,61,0,x,0.529456799995387,None,0,61,61,61,135.45695110000088,,,,,,,135.45695110000088,135.45695110000088,136.46134660000098,136.46432570001343,136.46432570001343,136.46432570001343,136.46432570001343,137.0002678000019,x,0.529456799995387,None,,,,,,,,,,SS_th,001,2025-03-11_10h05.47.881,MainFlow,2024.2.4,144.44229387409962,2025-03-11 10h05.58.273963 +0700,
1,1,61,word/wordth0611.png,62,62,0,z,1.0813323999900604,None,0,62,62,62,137.00531480000063,,,,,,,137.00531480000063,137.00531480000063,138.0099198000098,138.01286220000475,138.01286220000475,138.01286220000475,138.01286220000475,139.09792580000067,z,1.0813323999900604,None,,,,,,,,,,SS_th,001,2025-03-11_10h05.47.881,MainFlow,2024.2.4,144.44229387409962,2025-03-11 10h05.58.273963 +0700,
1,1,24,word/wordth0241.png,63,63,0,z,0.6283966000046348,None,0,63,63,63,139.10327880000114,,,,,,,139.10327880000114,139.10327880000114,140.10442700001295,140.10729530001117,140.10729530001117,140.10729530001117,140.10729530001117,140.74204989999998,z,0.6283966000046348,None,,,,,,,,,,SS_th,001,2025-03-11_10h05.47.881,MainFlow,2024.2.4,144.44229387409962,2025-03-11 10h05.58.273963 +0700,
1,2,89,word/wordth0892.png,64,64,0,x,0.7664575999951921,None,0,64,64,64,140.74765110001317,,,,,,,140.74765110001317,140.74765110001317,141.75253050000174,141.7555440000142,141.7555440000142,141.7555440000142,141.7555440000142,142.52804420000757,x,0.7664575999951921,None,,,,,,,,,,SS_th,001,2025-03-11_10h05.47.881,MainFlow,2024.2.4,144.44229387409962,2025-03-11 10h05.58.273963 +0700,
1,1,30,word/wordth0301.png,65,65,0,z,0.3673818000097526,None,0,65,65,65,142.5326056000049,,,,,,,142.5326056000049,142.5326056000049,143.53402190000634,143.53685460000997,143.53685460000997,143.53685460000997,143.53685460000997,143.90859750000527,z,0.3673818000097526,None,,,,,,,,,,SS_th,001,2025-03-11_10h05.47.881,MainFlow,2024.2.4,144.44229387409962,2025-03-11 10h05.58.273963 +0700,
1,1,93,word/wordth0931.png,66,66,0,z,0.5034850999945775,None,0,66,66,66,143.91375160000462,,,,,,,143.91375160000462,143.91375160000462,144.9197603000066,144.92276640000637,144.92276640000637,144.92276640000637,144.92276640000637,145.43063420000544,z,0.5034850999945775,None,,,,,,,,,,SS_th,001,2025-03-11_10h05.47.881,MainFlow,2024.2.4,144.44229387409962,2025-03-11 10h05.58.273963 +0700,
1,1,50,word/wordth0501.png,67,67,0,z,0.651071399988723,None,0,67,67,67,145.4368150000082,,,,,,,145.4368150000082,145.4368150000082,146.43379310000455,146.43674250000913,146.43674250000913,146.43674250000913,146.43674250000913,147.09041260000959,z,0.651071399988723,None,,,,,,,,,,SS_th,001,2025-03-11_10h05.47.881,MainFlow,2024.2.4,144.44229387409962,2025-03-11 10h05.58.273963 +0700,
1,3,82,word/wordth0823.png,68,68,0,x,1.0249077000044053,None,0,68,68,68,147.09516000001167,,,,,,,147.09516000001167,147.09516000001167,148.10553830000572,148.10833720001392,148.10833720001392,148.10833720001392,148.10833720001392,149.13693820001208,x,1.0249077000044053,None,148.10833720001392,148.10833720001392,,,,,,,,SS_th,001,2025-03-11_10h05.47.881,MainFlow,2024.2.4,144.44229387409962,2025-03-11 10h05.58.273963 +0700,
1,1,27,word/wordth0271.png,69,69,0,x,0.6237375999917276,None,0,69,69,69,149.14197080000304,,,,,,,149.14197080000304,149.14197080000304,150.1473066000035,150.15020620000723,150.15020620000723,150.15020620000723,150.15020620000723,150.77674740001385,x,0.6237375999917276,None,,,,,,,,,,SS_th,001,2025-03-11_10h05.47.881,MainFlow,2024.2.4,144.44229387409962,2025-03-11 10h05.58.273963 +0700,
1,3,52,word/wordth0523.png,70,70,0,x,0.7590544000122463,None,0,70,70,70,150.7827995000116,,,,,,,150.7827995000116,150.7827995000116,151.78218510000443,151.78508750000037,151.78508750000037,151.78508750000037,151.78508750000037,152.54609720000008,x,0.7590544000122463,None,,,,,,,,,,SS_th,001,2025-03-11_10h05.47.881,MainFlow,2024.2.4,144.44229387409962,2025-03-11 10h05.58.273963 +0700,
1,1,22,word/wordth0221.png,71,71,0,z,0.5399801000021398,None,0,71,71,71,152.55093000001216,,,,,,,152.55093000001216,152.55093000001216,153.5549667000014,153.5579815000092,153.5579815000092,153.5579815000092,153.5579815000092,154.1010285000084,z,0.5399801000021398,None,,,,,,,,,,SS_th,001,2025-03-11_10h05.47.881,MainFlow,2024.2.4,144.44229387409962,2025-03-11 10h05.58.273963 +0700,
1,1,6,word/wordth0061.png,72,72,0,z,0.5171700000064448,None,0,72,72,72,154.10620670000208,,,,,,,154.10620670000208,154.10620670000208,155.10398850000638,155.10675160000392,155.10675160000392,155.10675160000392,155.10675160000392,155.62908110000717,z,0.5171700000064448,None,,,,,,,,,,SS_th,001,2025-03-11_10h05.47.881,MainFlow,2024.2.4,144.44229387409962,2025-03-11 10h05.58.273963 +0700,
1,2,30,word/wordth0302.png,73,73,0,x,0.7161796000000322,None,0,73,73,73,155.6336946000083,,,,,,,155.6336946000083,155.6336946000083,156.63707100000465,156.64011360000586,156.64011360000586,156.64011360000586,156.64011360000586,157.3569780000107,x,0.7161796000000322,None,,,,,,,,,,SS_th,001,2025-03-11_10h05.47.881,MainFlow,2024.2.4,144.44229387409962,2025-03-11 10h05.58.273963 +0700,
1,1,51,word/wordth0511.png,74,74,0,z,0.8511469999939436,None,0,74,74,74,157.36252030001197,,,,,,,157.36252030001197,157.36252030001197,158.36729670000204,158.37008700000297,158.37008700000297,158.37008700000297,158.37008700000297,159.22481360001257,z,0.8511469999939436,None,,,,,,,,,,SS_th,001,2025-03-11_10h05.47.881,MainFlow,2024.2.4,144.44229387409962,2025-03-11 10h05.58.273963 +0700,
1,2,50,word/wordth0502.png,75,75,0,x,0.5485662999999477,None,0,75,75,75,159.23018779999984,,,,,,,159.23018779999984,159.23018779999984,160.2278052000038,160.23065200001292,160.23065200001292,160.23065200001292,160.23065200001292,160.78166170000623,x,0.5485662999999477,None,,,,,,,,,,SS_th,001,2025-03-11_10h05.47.881,MainFlow,2024.2.4,144.44229387409962,2025-03-11 10h05.58.273963 +0700,
1,3,95,word/wordth0953.png,76,76,0,x,0.8087893000047188,None,0,76,76,76,160.78828870000143,,,,,,,160.78828870000143,160.78828870000143,161.78843040000356,161.7914582000085,161.7914582000085,161.7914582000085,161.7914582000085,162.60629280000285,x,0.8087893000047188,None,,,,,,,,,,SS_th,001,2025-03-11_10h05.47.881,MainFlow,2024.2.4,144.44229387409962,2025-03-11 10h05.58.273963 +0700,
1,1,75,word/wordth0751.png,77,77,0,z,0.7926525999937439,None,0,77,77,77,162.61150800000178,,,,,,,162.61150800000178,162.61150800000178,163.61490340001183,163.61771160000353,163.61771160000353,163.61771160000353,163.61771160000353,164.41104690000066,z,0.7926525999937439,None,,,,,,,,,,SS_th,001,2025-03-11_10h05.47.881,MainFlow,2024.2.4,144.44229387409962,2025-03-11 10h05.58.273963 +0700,
1,1,95,word/wordth0951.png,78,78,0,z,0.8152599000022747,None,0,78,78,78,164.4166538999998,,,,,,,164.4166538999998,164.4166538999998,165.4160394000064,165.41917490000196,165.41917490000196,165.41917490000196,165.41917490000196,166.23691470001359,z,0.8152599000022747,None,,,,,,,,,,SS_th,001,2025-03-11_10h05.47.881,MainFlow,2024.2.4,144.44229387409962,2025-03-11 10h05.58.273963 +0700,
1,2,8,word/wordth0082.png,79,79,0,x,0.552821600009338,None,0,79,79,79,166.24264230001427,,,,,,,166.24264230001427,166.24264230001427,167.2475526000053,167.2504528000136,167.2504528000136,167.2504528000136,167.2504528000136,167.8065074000042,x,0.552821600009338,None,,,,,,,,,,SS_th,001,2025-03-11_10h05.47.881,MainFlow,2024.2.4,144.44229387409962,2025-03-11 10h05.58.273963 +0700,
1,3,75,word/wordth0753.png,80,80,0,x,0.8306144000089262,None,0,80,80,80,167.81184340000618,,,,,,,167.81184340000618,167.81184340000618,168.8130480000109,168.81587230000878,168.81587230000878,168.81587230000878,168.81587230000878,169.6536296000122,x,0.8306144000089262,None,,,,,,,,,,SS_th,001,2025-03-11_10h05.47.881,MainFlow,2024.2.4,144.44229387409962,2025-03-11 10h05.58.273963 +0700,
1,1,28,word/wordth0281.png,81,81,0,z,0.556116399995517,None,0,81,81,81,169.65873990001273,,,,,,,169.65873990001273,169.65873990001273,170.66347100000712,170.66641390000586,170.66641390000586,170.66641390000586,170.66641390000586,171.231136900009,z,0.556116399995517,None,,,,,,,,,,SS_th,001,2025-03-11_10h05.47.881,MainFlow,2024.2.4,144.44229387409962,2025-03-11 10h05.58.273963 +0700,
1,3,42,word/wordth0423.png,82,82,0,x,0.9201409999950556,None,0,82,82,82,171.2357222000137,,,,,,,171.2357222000137,171.2357222000137,172.2565398000006,172.25986970000667,172.25986970000667,172.25986970000667,172.25986970000667,173.18727030001173,x,0.9201409999950556,None,,,,,,,,,,SS_th,001,2025-03-11_10h05.47.881,MainFlow,2024.2.4,144.44229387409962,2025-03-11 10h05.58.273963 +0700,
1,3,46,word/wordth0463.png,83,83,0,x,0.977805200003786,None,0,83,83,83,173.1927347000019,,,,,,,173.1927347000019,173.1927347000019,174.1900183000107,174.1927917000139,174.1927917000139,174.1927917000139,174.1927917000139,175.1732386000076,x,0.977805200003786,None,,,,,,,,,,SS_th,001,2025-03-11_10h05.47.881,MainFlow,2024.2.4,144.44229387409962,2025-03-11 10h05.58.273963 +0700,
1,3,1,word/wordth0013.png,84,84,0,x,0.5727986999991117,None,0,84,84,84,175.1785138000123,,,,,,,175.1785138000123,175.1785138000123,176.17668820000836,176.17958960001124,176.17958960001124,176.17958960001124,176.17958960001124,176.75650250000763,x,0.5727986999991117,None,,,,,,,,,,SS_th,001,2025-03-11_10h05.47.881,MainFlow,2024.2.4,144.44229387409962,2025-03-11 10h05.58.273963 +0700,
1,2,70,word/wordth0702.png,85,85,0,x,0.5776845999935176,None,0,85,85,85,176.76156860000629,,,,,,,176.76156860000629,176.76156860000629,177.7664009,177.76939360001415,177.76939360001415,177.76939360001415,177.76939360001415,178.353214200004,x,0.5776845999935176,None,,,,,,,,,,SS_th,001,2025-03-11_10h05.47.881,MainFlow,2024.2.4,144.44229387409962,2025-03-11 10h05.58.273963 +0700,
1,1,7,word/wordth0071.png,86,86,0,z,0.512890799989691,None,0,86,86,86,178.35841910001182,,,,,,,178.35841910001182,178.35841910001182,179.35924630000954,179.36214960001234,179.36214960001234,179.36214960001234,179.36214960001234,179.8806762000022,z,0.512890799989691,None,,,,,,,,,,SS_th,001,2025-03-11_10h05.47.881,MainFlow,2024.2.4,144.44229387409962,2025-03-11 10h05.58.273963 +0700,
1,2,7,word/wordth0072.png,87,87,0,x,0.7176357999996981,None,0,87,87,87,179.88579860000755,,,,,,,179.88579860000755,179.88579860000755,180.8881024000002,180.89089620001323,180.89089620001323,180.89089620001323,180.89089620001323,181.60980360000394,x,0.7176357999996981,None,,,,,,,,,,SS_th,001,2025-03-11_10h05.47.881,MainFlow,2024.2.4,144.44229387409962,2025-03-11 10h05.58.273963 +0700,
1,2,24,word/wordth0242.png,88,88,0,x,0.6555890000017826,None,0,88,88,88,181.6148411000031,,,,,,,181.6148411000031,181.6148411000031,182.61950600000273,182.62238210000214,182.62238210000214,182.62238210000214,182.62238210000214,183.28298150000046,x,0.6555890000017826,None,,,,,,,,,,SS_th,001,2025-03-11_10h05.47.881,MainFlow,2024.2.4,144.44229387409962,2025-03-11 10h05.58.273963 +0700,
1,3,26,word/wordth0263.png,89,89,0,x,0.8882683999981964,None,0,89,89,89,183.28799430000072,,,,,,,183.28799430000072,183.28799430000072,184.2896943000087,184.2924783000053,184.2924783000053,184.2924783000053,184.2924783000053,185.18458510001074,x,0.8882683999981964,None,,,,,,,,,,SS_th,001,2025-03-11_10h05.47.881,MainFlow,2024.2.4,144.44229387409962,2025-03-11 10h05.58.273963 +0700,
1,2,23,word/wordth0232.png,90,90,0,x,0.38241209999250714,None,0,90,90,90,185.190408200011,,,,,,,185.190408200011,185.190408200011,186.18890650001413,186.1916773000121,186.1916773000121,186.1916773000121,186.1916773000121,186.58068040000217,x,0.38241209999250714,None,,,,,,,,,,SS_th,001,2025-03-11_10h05.47.881,MainFlow,2024.2.4,144.44229387409962,2025-03-11 10h05.58.273963 +0700,
1,2,75,word/wordth0752.png,91,91,0,x,0.5725347000116017,None,0,91,91,91,186.58589410000423,,,,,,,186.58589410000423,186.58589410000423,187.59032660000958,187.59332580000046,187.59332580000046,187.59332580000046,187.59332580000046,188.17107960001158,x,0.5725347000116017,None,,,,,,,,,,SS_th,001,2025-03-11_10h05.47.881,MainFlow,2024.2.4,144.44229387409962,2025-03-11 10h05.58.273963 +0700,
1,2,6,word/wordth0062.png,92,92,0,x,0.435995499996352,None,0,92,92,92,188.17667960000108,,,,,,,188.17667960000108,188.17667960000108,189.1769004000089,189.1800443000102,189.1800443000102,189.1800443000102,189.1800443000102,189.62269450000895,x,0.435995499996352,None,,,,,,,,,,SS_th,001,2025-03-11_10h05.47.881,MainFlow,2024.2.4,144.44229387409962,2025-03-11 10h05.58.273963 +0700,
1,2,93,word/wordth0932.png,93,93,0,x,0.5957427999965148,None,0,93,93,93,189.62720670001,,,,,,,189.62720670001,189.62720670001,190.6300254000089,190.63286670000525,190.63286670000525,190.63286670000525,190.63286670000525,191.23248430000967,x,0.5957427999965148,None,,,,,,,,,,SS_th,001,2025-03-11_10h05.47.881,MainFlow,2024.2.4,144.44229387409962,2025-03-11 10h05.58.273963 +0700,
1,2,48,word/wordth0482.png,94,94,0,x,0.38695600000210106,None,0,94,94,94,191.2378422000038,,,,,,,191.2378422000038,191.2378422000038,192.24422180000693,192.24701620000997,192.24701620000997,192.24701620000997,192.24701620000997,192.63693440001225,x,0.38695600000210106,None,,,,,,,,,,SS_th,001,2025-03-11_10h05.47.881,MainFlow,2024.2.4,144.44229387409962,2025-03-11 10h05.58.273963 +0700,
1,1,70,word/wordth0701.png,95,95,0,z,0.5365881999896374,None,0,95,95,95,192.6423485000123,,,,,,,192.6423485000123,192.6423485000123,193.65014760001213,193.653192400001,193.653192400001,193.653192400001,193.653192400001,194.19130350000341,z,0.5365881999896374,None,,,,,,,,,,SS_th,001,2025-03-11_10h05.47.881,MainFlow,2024.2.4,144.44229387409962,2025-03-11 10h05.58.273963 +0700,
1,2,66,word/wordth0662.png,96,96,0,x,0.6803868999995757,None,0,96,96,96,194.19571590000123,,,,,,,194.19571590000123,194.19571590000123,195.20004600001266,195.20279430001392,195.20279430001392,195.20279430001392,195.20279430001392,195.88459120001062,x,0.6803868999995757,None,,,,,,,,,,SS_th,001,2025-03-11_10h05.47.881,MainFlow,2024.2.4,144.44229387409962,2025-03-11 10h05.58.273963 +0700,
1,1,26,word/wordth0261.png,97,97,0,x,0.5863283000071533,None,0,97,97,97,195.8897757000086,,,,,,,195.8897757000086,195.8897757000086,196.90695470001083,196.9106790000078,196.9106790000078,196.9106790000078,196.9106790000078,197.5031248000014,x,0.5863283000071533,None,,,,,,,,,,SS_th,001,2025-03-11_10h05.47.881,MainFlow,2024.2.4,144.44229387409962,2025-03-11 10h05.58.273963 +0700,
1,3,9,word/wordth0093.png,98,98,0,x,0.6538213999883737,None,0,98,98,98,197.50766660000954,,,,,,,197.50766660000954,197.50766660000954,198.53202270000475,198.53547700001218,198.53547700001218,198.53547700001218,198.53547700001218,199.19632320001256,x,0.6538213999883737,None,,,,,,,,,,SS_th,001,2025-03-11_10h05.47.881,MainFlow,2024.2.4,144.44229387409962,2025-03-11 10h05.58.273963 +0700,
1,2,61,word/wordth0612.png,99,99,0,x,0.8640141000068979,None,0,99,99,99,199.20163650000177,,,,,,,199.20163650000177,199.20163650000177,200.20536010000797,200.20824140000332,200.20824140000332,200.20824140000332,200.20824140000332,201.07767440000316,x,0.8640141000068979,None,,,,,,,,,,SS_th,001,2025-03-11_10h05.47.881,MainFlow,2024.2.4,144.44229387409962,2025-03-11 10h05.58.273963 +0700,
1,3,8,word/wordth0083.png,100,100,0,x,0.6527726000058465,None,0,100,100,100,201.08320310000272,,,,,,,201.08320310000272,201.08320310000272,202.10357170000498,202.10698390001198,202.10698390001198,202.10698390001198,202.10698390001198,202.7649104000011,x,0.6527726000058465,None,,,,,,,,,,SS_th,001,2025-03-11_10h05.47.881,MainFlow,2024.2.4,144.44229387409962,2025-03-11 10h05.58.273963 +0700,
1,1,8,word/wordth0081.png,101,101,0,z,1.1168936000030953,None,0,101,101,101,202.77036040001258,,,,,,,202.77036040001258,202.77036040001258,203.77149580001424,203.7743080000073,203.7743080000073,203.7743080000073,203.7743080000073,204.89670860000479,z,1.1168936000030953,None,,,,,,,,,,SS_th,001,2025-03-11_10h05.47.881,MainFlow,2024.2.4,144.44229387409962,2025-03-11 10h05.58.273963 +0700,
1,2,44,word/wordth0442.png,102,102,0,x,0.4847983999934513,None,0,102,102,102,204.90205860001151,,,,,,,204.90205860001151,204.90205860001151,205.9032118000032,205.90634800000407,205.90634800000407,205.90634800000407,205.90634800000407,206.3968862000038,x,0.4847983999934513,None,,,,,,,,,,SS_th,001,2025-03-11_10h05.47.881,MainFlow,2024.2.4,144.44229387409962,2025-03-11 10h05.58.273963 +0700,
1,3,31,word/wordth0313.png,103,103,0,x,0.5489187000057427,None,0,103,103,103,206.4016571000102,,,,,,,206.4016571000102,206.4016571000102,207.40610090001428,207.40895020001335,207.40895020001335,207.40895020001335,207.40895020001335,207.96520090001286,x,0.5489187000057427,None,,,,,,,,,,SS_th,001,2025-03-11_10h05.47.881,MainFlow,2024.2.4,144.44229387409962,2025-03-11 10h05.58.273963 +0700,
1,1,89,word/wordth0891.png,104,104,0,z,0.6787438000028487,None,0,104,104,104,207.97071710000455,,,,,,,207.97071710000455,207.97071710000455,208.98867040000914,208.99157800000103,208.99157800000103,208.99157800000103,208.99157800000103,209.6737737000076,z,0.6787438000028487,None,,,,,,,,,,SS_th,001,2025-03-11_10h05.47.881,MainFlow,2024.2.4,144.44229387409962,2025-03-11 10h05.58.273963 +0700,
1,3,70,word/wordth0703.png,105,105,0,x,2.540625199995702,None,0,105,105,105,209.6788968000037,,,,,,,209.6788968000037,209.6788968000037,210.68330170000263,210.68611870000314,210.68611870000314,210.68611870000314,210.68611870000314,213.22796420000668,x,2.540625199995702,None,,,,,,,,,,SS_th,001,2025-03-11_10h05.47.881,MainFlow,2024.2.4,144.44229387409962,2025-03-11 10h05.58.273963 +0700,
1,3,68,word/wordth0683.png,106,106,0,x,0.7318970000051195,None,0,106,106,106,213.23364680001396,,,,,,,213.23364680001396,213.23364680001396,214.22836700000335,214.23128390000784,214.23128390000784,214.23128390000784,214.23128390000784,214.96469510000315,x,0.7318970000051195,None,,,,,,,,,,SS_th,001,2025-03-11_10h05.47.881,MainFlow,2024.2.4,144.44229387409962,2025-03-11 10h05.58.273963 +0700,
1,3,10,word/wordth0103.png,107,107,0,x,0.9135659000021406,None,0,107,107,107,214.9694021000032,,,,,,,214.9694021000032,214.9694021000032,215.97780340000463,215.98080870001286,215.98080870001286,215.98080870001286,215.98080870001286,216.9026062000048,x,0.9135659000021406,None,,,,,,,,,,SS_th,001,2025-03-11_10h05.47.881,MainFlow,2024.2.4,144.44229387409962,2025-03-11 10h05.58.273963 +0700,
1,3,94,word/wordth0943.png,108,108,0,x,0.9475499999971362,None,0,108,108,108,216.90665050000825,,,,,,,216.90665050000825,216.90665050000825,217.9099564000062,217.91314810000767,217.91314810000767,217.91314810000767,217.91314810000767,218.86621960000775,x,0.9475499999971362,None,,,,,,,,,,SS_th,001,2025-03-11_10h05.47.881,MainFlow,2024.2.4,144.44229387409962,2025-03-11 10h05.58.273963 +0700,
1,1,3,word/wordth0031.png,109,109,0,z,0.5375312999967718,None,0,109,109,109,218.8714481000061,,,,,,,218.8714481000061,218.8714481000061,219.86733350000577,219.87021300000197,219.87021300000197,219.87021300000197,219.87021300000197,220.41457110000192,z,0.5375312999967718,None,,,,,,,,,,SS_th,001,2025-03-11_10h05.47.881,MainFlow,2024.2.4,144.44229387409962,2025-03-11 10h05.58.273963 +0700,
1,3,63,word/wordth0633.png,110,110,0,x,0.5857057000102941,None,0,110,110,110,220.41972220000753,,,,,,,220.41972220000753,220.41972220000753,221.41943770000944,221.42255610000575,221.42255610000575,221.42255610000575,221.42255610000575,222.01103890000377,x,0.5857057000102941,None,,,,,,,,,,SS_th,001,2025-03-11_10h05.47.881,MainFlow,2024.2.4,144.44229387409962,2025-03-11 10h05.58.273963 +0700,
1,2,9,word/wordth0092.png,111,111,0,x,0.9211830999993253,None,0,111,111,111,222.0165568000084,,,,,,,222.0165568000084,222.0165568000084,223.0163365000044,223.0191341000027,223.0191341000027,223.0191341000027,223.0191341000027,223.9415844000032,x,0.9211830999993253,None,,,,,,,,,,SS_th,001,2025-03-11_10h05.47.881,MainFlow,2024.2.4,144.44229387409962,2025-03-11 10h05.58.273963 +0700,
1,3,7,word/wordth0073.png,112,112,0,x,0.7192039000074146,None,0,112,112,112,223.9468290000077,,,,,,,223.9468290000077,223.9468290000077,224.95040970000264,224.95328380000137,224.95328380000137,224.95328380000137,224.95328380000137,225.67862390000664,x,0.7192039000074146,None,,,,,,,,,,SS_th,001,2025-03-11_10h05.47.881,MainFlow,2024.2.4,144.44229387409962,2025-03-11 10h05.58.273963 +0700,
1,2,41,word/wordth0412.png,113,113,0,x,0.4473353000066709,None,0,113,113,113,225.684611100005,,,,,,,225.684611100005,225.684611100005,226.69879870000295,226.7021928000031,226.7021928000031,226.7021928000031,226.7021928000031,227.1565585000062,x,0.4473353000066709,None,,,,,,,,,,SS_th,001,2025-03-11_10h05.47.881,MainFlow,2024.2.4,144.44229387409962,2025-03-11 10h05.58.273963 +0700,
1,1,9,word/wordth0091.png,114,114,0,z,0.6310252999974182,None,0,114,114,114,227.16161750000902,,,,,,,227.16161750000902,227.16161750000902,228.16319090001343,228.16607400000794,228.16607400000794,228.16607400000794,228.16607400000794,228.80157020001207,z,0.6310252999974182,None,,,,,,,,,,SS_th,001,2025-03-11_10h05.47.881,MainFlow,2024.2.4,144.44229387409962,2025-03-11 10h05.58.273963 +0700,
1,1,94,word/wordth0941.png,115,115,0,z,0.5659215999912703,None,0,115,115,115,228.8069569000072,,,,,,,228.8069569000072,228.8069569000072,229.80217530000664,229.8049999000068,229.8049999000068,229.8049999000068,229.8049999000068,230.37809690000722,z,0.5659215999912703,None,,,,,,,,,,SS_th,001,2025-03-11_10h05.47.881,MainFlow,2024.2.4,144.44229387409962,2025-03-11 10h05.58.273963 +0700,
1,1,52,word/wordth0521.png,116,116,0,z,0.6457111000054283,None,0,116,116,116,230.38311530000647,,,,,,,230.38311530000647,230.38311530000647,231.385786800005,231.38878960000875,231.38878960000875,231.38878960000875,231.38878960000875,232.037651000006,z,0.6457111000054283,None,,,,,,,,,,SS_th,001,2025-03-11_10h05.47.881,MainFlow,2024.2.4,144.44229387409962,2025-03-11 10h05.58.273963 +0700,
1,2,88,word/wordth0882.png,117,117,0,x,0.6106314000062412,None,0,117,117,117,232.0425072000071,,,,,,,232.0425072000071,232.0425072000071,233.04661750000378,233.04950370000734,233.04950370000734,233.04950370000734,233.04950370000734,233.66160740000487,x,0.6106314000062412,None,,,,,,,,,,SS_th,001,2025-03-11_10h05.47.881,MainFlow,2024.2.4,144.44229387409962,2025-03-11 10h05.58.273963 +0700,
1,1,41,word/wordth0411.png,118,118,0,z,0.6989573000028031,None,0,118,118,118,233.667136700009,,,,,,,233.667136700009,233.667136700009,234.66769490001025,234.67060290000518,234.67060290000518,234.67060290000518,234.67060290000518,235.3767300000036,z,0.6989573000028031,None,,,,,,,,,,SS_th,001,2025-03-11_10h05.47.881,MainFlow,2024.2.4,144.44229387409962,2025-03-11 10h05.58.273963 +0700,
1,3,30,word/wordth0303.png,119,119,0,x,1.063092800002778,None,0,119,119,119,235.38217710000754,,,,,,,235.38217710000754,235.38217710000754,236.38511780000408,236.38796200000797,236.38796200000797,236.38796200000797,236.38796200000797,237.45304260001285,x,1.063092800002778,None,,,,,,,,,,SS_th,001,2025-03-11_10h05.47.881,MainFlow,2024.2.4,144.44229387409962,2025-03-11 10h05.58.273963 +0700,
,,,,,,,,,,,,,,,,,,,,,,,,,,,,,,,,,,237.45316760000424,237.4579636000126,237.4579636000126,239.65393210000184,space,2.1911554999969667,None,SS_th,001,2025-03-11_10h05.47.881,MainFlow,2024.2.4,144.44229387409962,2025-03-11 10h05.58.273963 +0700,
