lang,wordid,truestate,worddir,imgdir,thisN,thisTrialN,thisRepN,key_resp.keys,key_resp.rt,key_resp.duration,trials.thisRepN,trials.thisTrialN,trials.thisN,trials.thisIndex,thisRow.t,notes,tutorial.started,tutorial.stopped,key_instruct.keys,key_instruct.rt,key_instruct.duration,plusblank.started,wordshow.started,image.started,plsuer.started,wordshow.stopped,imageword.started,key_resp.started,trials.key_resp.keys,trials.key_resp.rt,trials.key_resp.duration,image.stopped,plsuer.stopped,plusblank.stopped,ending.started,text_3.started,ending_key.started,ending.stopped,ending_key.keys,ending_key.rt,ending_key.duration,participant,session,date,expName,psychopyVersion,frameRate,expStart,
,,,,,,,,,,,,,,,,,0.0037987000250723213,2.5191500000073574,space,2.4865256000193767,None,,,,,,,,,,,,,,,,,,,,,DM_en,001,2025-03-09_13h59.29.101,MainFlow,2024.2.4,143.93480328434595,2025-03-09 13h59.45.675052 +0700,
2,87,0,word/worden0871.png,image/False/imgf87.png,0,0,0,z,1.6830962999956682,None,0,0,0,0,2.57823520002421,,,,,,,4.031198200013023,3.539876800001366,3.5640450000064448,3.5640450000064448,4.024874499998987,5.174166300013894,5.174166300013894,z,1.6830962999956682,None,,,,,,,,,,,DM_en,001,2025-03-09_13h59.29.101,MainFlow,2024.2.4,143.93480328434595,2025-03-09 13h59.45.675052 +0700,
2,93,0,word/worden0931.png,image/False/imgf93.png,1,1,0,x,0.7333050000015646,None,0,1,1,1,6.864019700005883,,,,,,,8.363889800006291,7.869969000021229,7.873459599999478,7.873459599999478,8.35796890000347,9.445730900013587,9.445730900013587,x,0.7333050000015646,None,8.363889800006291,8.363889800006291,,,,,,,,,DM_en,001,2025-03-09_13h59.29.101,MainFlow,2024.2.4,143.93480328434595,2025-03-09 13h59.45.675052 +0700,
2,23,0,word/worden0231.png,image/False/imgf23.png,2,2,0,x,0.5258942999935243,None,0,2,2,2,10.190214600006584,,,,,,,11.690576499997405,11.196404500020435,11.200947800010908,11.200947800010908,11.685250200011069,12.836818500014488,12.836818500014488,x,0.5258942999935243,None,11.690576499997405,11.690576499997405,,,,,,,,,DM_en,001,2025-03-09_13h59.29.101,MainFlow,2024.2.4,143.93480328434595,2025-03-09 13h59.45.675052 +0700,
2,10,1,word/worden0101.png,image/True/img10.png,3,3,0,z,0.5533021000155713,None,0,3,3,3,13.37048940002569,,,,,,,14.863367900019512,14.36819910001941,14.37253170000622,14.37253170000622,14.858274199999869,15.971500600018771,15.971500600018771,z,0.5533021000155713,None,14.863367900019512,14.863367900019512,15.971500600018771,,,,,,,,DM_en,001,2025-03-09_13h59.29.101,MainFlow,2024.2.4,143.93480328434595,2025-03-09 13h59.45.675052 +0700,
2,50,0,word/worden0501.png,image/False/imgf50.png,4,4,0,x,0.47995360000641085,None,0,4,4,4,16.536713200010126,,,,,,,18.04390330001479,17.545450800011167,17.549949900014326,17.549949900014326,18.03752510002232,19.1387037000095,19.1387037000095,x,0.47995360000641085,None,,,,,,,,,,,DM_en,001,2025-03-09_13h59.29.101,MainFlow,2024.2.4,143.93480328434595,2025-03-09 13h59.45.675052 +0700,
2,33,1,word/worden0331.png,image/True/img33.png,5,5,0,z,0.47681640001246706,None,0,5,5,5,19.626225400017574,,,,,,,21.132957900001202,20.642230299999937,20.646747100021457,20.646747100021457,21.127499000023818,22.240795500023523,22.240795500023523,z,0.47681640001246706,None,,,,,,,,,,,DM_en,001,2025-03-09_13h59.29.101,MainFlow,2024.2.4,143.93480328434595,2025-03-09 13h59.45.675052 +0700,
2,95,0,word/worden0951.png,image/False/imgf95.png,6,6,0,x,0.6312718999979552,None,0,6,6,6,22.729884100001073,,,,,,,24.236761800013483,23.754218700021738,23.75939340001787,23.75939340001787,24.230724699998973,25.354147300007753,25.354147300007753,x,0.6312718999979552,None,,,,,,,,,,,DM_en,001,2025-03-09_13h59.29.101,MainFlow,2024.2.4,143.93480328434595,2025-03-09 13h59.45.675052 +0700,
2,7,0,word/worden0071.png,image/False/imgf07.png,7,7,0,x,0.5130471000156831,None,0,7,7,7,25.993062399997143,,,,,,,27.485984600003576,26.989093700016383,26.993251300009433,26.993251300009433,27.480406600021524,28.59495720002451,28.59495720002451,x,0.5130471000156831,None,27.485984600003576,27.485984600003576,28.59495720002451,,,,,,,,DM_en,001,2025-03-09_13h59.29.101,MainFlow,2024.2.4,143.93480328434595,2025-03-09 13h59.45.675052 +0700,
2,28,1,word/worden0281.png,image/True/img28.png,8,8,0,z,0.5054780000064056,None,0,8,8,8,29.11748830002034,,,,,,,30.617457000014838,30.121247700008098,30.12545590000809,30.12545590000809,30.612006000010297,31.746244400012074,31.746244400012074,z,0.5054780000064056,None,30.617457000014838,30.617457000014838,,,,,,,,,DM_en,001,2025-03-09_13h59.29.101,MainFlow,2024.2.4,143.93480328434595,2025-03-09 13h59.45.675052 +0700,
2,38,1,word/worden0381.png,image/True/img38.png,9,9,0,z,0.5399539000063669,None,0,9,9,9,32.2618075000064,,,,,,,33.76851640001405,33.27204010001151,33.275357500009704,33.275357500009704,33.76233930001035,34.85984780002036,34.85984780002036,z,0.5399539000063669,None,,,,,,,,,,,DM_en,001,2025-03-09_13h59.29.101,MainFlow,2024.2.4,143.93480328434595,2025-03-09 13h59.45.675052 +0700,
2,33,0,word/worden0331.png,image/False/imgf33.png,10,10,0,x,0.5548041999863926,None,0,10,10,10,35.407241300010355,,,,,,,36.90022200002568,36.404362400004175,36.408070400008,36.408070400008,36.894501900009345,38.02085790000274,38.02085790000274,x,0.5548041999863926,None,36.90022200002568,36.90022200002568,38.02085790000274,,,,,,,,DM_en,001,2025-03-09_13h59.29.101,MainFlow,2024.2.4,143.93480328434595,2025-03-09 13h59.45.675052 +0700,
2,76,1,word/worden0761.png,image/True/img76.png,11,11,0,z,0.5932728000043426,None,0,11,11,11,38.58763370002271,,,,,,,40.09476040001027,39.60161780001363,39.60659020001185,39.60659020001185,40.088563199999044,41.19973610001034,41.19973610001034,z,0.5932728000043426,None,,,,,,,,,,,DM_en,001,2025-03-09_13h59.29.101,MainFlow,2024.2.4,143.93480328434595,2025-03-09 13h59.45.675052 +0700,
2,75,0,word/worden0751.png,image/False/imgf75.png,12,12,0,x,1.045552099996712,None,0,12,12,12,41.8025811999978,,,,,,,43.29440040001646,42.79935470002238,42.80211830002372,42.80211830002372,43.28865390000283,44.40365449999808,44.40365449999808,x,1.045552099996712,None,43.29440040001646,43.29440040001646,44.40365449999808,,,,,,,,DM_en,001,2025-03-09_13h59.29.101,MainFlow,2024.2.4,143.93480328434595,2025-03-09 13h59.45.675052 +0700,
2,7,1,word/worden0071.png,image/True/img07.png,13,13,0,z,0.4695404999947641,None,0,13,13,13,45.46060700001544,,,,,,,46.94655839999905,46.45384390000254,46.45738910001819,46.45738910001819,46.94043160000001,48.0715756000136,48.0715756000136,z,0.4695404999947641,None,46.94655839999905,46.94655839999905,48.0715756000136,,,,,,,,DM_en,001,2025-03-09_13h59.29.101,MainFlow,2024.2.4,143.93480328434595,2025-03-09 13h59.45.675052 +0700,
2,51,1,word/worden0511.png,image/True/img51.png,14,14,0,x,1.994210100005148,None,0,14,14,14,48.55057870000019,,,,,,,50.05788710000343,49.558385000011185,49.56260740000289,49.56260740000289,50.051369499997236,51.15171830001054,51.15171830001054,x,1.994210100005148,None,,,,,,,,,,,DM_en,001,2025-03-09_13h59.29.101,MainFlow,2024.2.4,143.93480328434595,2025-03-09 13h59.45.675052 +0700,
2,59,0,word/worden0591.png,image/False/imgf59.png,15,15,0,x,0.5147403000155464,None,0,15,15,15,53.15354900000966,,,,,,,54.660398800013354,54.16605310002342,54.169286100019235,54.169286100019235,54.65402760001598,55.73410729999887,55.73410729999887,x,0.5147403000155464,None,,,,,,,,,,,DM_en,001,2025-03-09_13h59.29.101,MainFlow,2024.2.4,143.93480328434595,2025-03-09 13h59.45.675052 +0700,
2,54,0,word/worden0541.png,image/False/imgf54.png,16,16,0,x,0.5123180999944452,None,0,16,16,16,56.259106100013014,,,,,,,57.76384090000647,57.269362699997146,57.27252590001444,57.27252590001444,57.757563600025605,58.86708960001124,58.86708960001124,x,0.5123180999944452,None,,,,,,,,,,,DM_en,001,2025-03-09_13h59.29.101,MainFlow,2024.2.4,143.93480328434595,2025-03-09 13h59.45.675052 +0700,
2,6,1,word/worden0061.png,image/True/img06.png,17,17,0,z,0.5490364000143018,None,0,17,17,17,59.38839960002224,,,,,,,60.89521400001831,60.40150370000629,60.40489050000906,60.40489050000906,60.88886760000605,61.97461150001618,61.97461150001618,z,0.5490364000143018,None,,,,,,,,,,,DM_en,001,2025-03-09_13h59.29.101,MainFlow,2024.2.4,143.93480328434595,2025-03-09 13h59.45.675052 +0700,
2,41,1,word/worden0411.png,image/True/img41.png,18,18,0,z,1.910748699971009,None,0,18,18,18,62.53378130000783,,,,,,,64.04088830002001,63.54448740000953,63.547852900024736,63.547852900024736,64.03469570001471,65.1451503999997,65.1451503999997,z,1.910748699971009,None,,,,,,,,,,,DM_en,001,2025-03-09_13h59.29.101,MainFlow,2024.2.4,143.93480328434595,2025-03-09 13h59.45.675052 +0700,
2,42,0,word/worden0421.png,image/False/imgf42.png,19,19,0,x,1.0237066999834497,None,0,19,19,19,67.06843169999775,,,,,,,68.57526700000744,68.08493020001333,68.08977010002127,68.08977010002127,68.5693145999976,69.69401620002463,69.69401620002463,x,1.0237066999834497,None,,,,,,,,,,,DM_en,001,2025-03-09_13h59.29.101,MainFlow,2024.2.4,143.93480328434595,2025-03-09 13h59.45.675052 +0700,
2,64,0,word/worden0641.png,image/False/imgf64.png,20,20,0,z,1.3331975000037346,None,0,20,20,20,70.72855680002249,,,,,,,72.23324349999893,71.74969900000724,71.75284820000525,71.75284820000525,72.22696600001655,73.30388849999872,73.30388849999872,z,1.3331975000037346,None,,,71.75284820000525,,,,,,,,DM_en,001,2025-03-09_13h59.29.101,MainFlow,2024.2.4,143.93480328434595,2025-03-09 13h59.45.675052 +0700,
2,96,1,word/worden0961.png,image/True/img96.png,21,21,0,z,0.5180834000057075,None,0,21,21,21,74.64949490001891,,,,,,,76.15630339999916,75.66470429999754,75.66806920000818,75.66806920000818,76.14989710002556,77.2588324000244,77.2588324000244,z,0.5180834000057075,None,,,,,,,,,,,DM_en,001,2025-03-09_13h59.29.101,MainFlow,2024.2.4,143.93480328434595,2025-03-09 13h59.45.675052 +0700,
2,76,0,word/worden0761.png,image/False/imgf76.png,22,22,0,x,0.6028608000196982,None,0,22,22,22,77.78820800001267,,,,,,,79.28148180001881,78.78355439999723,78.78873610001756,78.78873610001756,79.27597080002306,80.40412800002377,80.40412800002377,x,0.6028608000196982,None,79.28148180001881,79.28148180001881,80.40412800002377,,,,,,,,DM_en,001,2025-03-09_13h59.29.101,MainFlow,2024.2.4,143.93480328434595,2025-03-09 13h59.45.675052 +0700,
2,17,1,word/worden0171.png,image/True/img17.png,23,23,0,z,0.6944270999811124,None,0,23,23,23,81.01623580002342,,,,,,,82.51617129999795,82.02030850001029,82.0232414000202,82.0232414000202,82.51032480000868,83.61697990001994,83.61697990001994,z,0.6944270999811124,None,82.51617129999795,82.51617129999795,,,,,,,,,DM_en,001,2025-03-09_13h59.29.101,MainFlow,2024.2.4,143.93480328434595,2025-03-09 13h59.45.675052 +0700,
2,6,1,word/worden0061.png,image/True/img06.png,24,24,0,z,0.630518399993889,None,0,24,24,24,84.32114470002125,,,,,,,85.80704539999715,85.31305810000049,85.31592459999956,85.31592459999956,85.80115370001295,86.90400940002291,86.90400940002291,z,0.630518399993889,None,85.80704539999715,85.80704539999715,86.90400940002291,,,,,,,,DM_en,001,2025-03-09_13h59.29.101,MainFlow,2024.2.4,143.93480328434595,2025-03-09 13h59.45.675052 +0700,
2,88,1,word/worden0881.png,image/True/img88.png,25,25,0,z,0.4875212000042666,None,0,25,25,25,87.54282210001838,,,,,,,89.04985510002007,88.55664910000633,88.56011800002307,88.56011800002307,89.04367900002399,90.16799600000377,90.16799600000377,z,0.4875212000042666,None,,,,,,,,,,,DM_en,001,2025-03-09_13h59.29.101,MainFlow,2024.2.4,143.93480328434595,2025-03-09 13h59.45.675052 +0700,
2,44,1,word/worden0441.png,image/True/img44.png,26,26,0,z,0.5553843000088818,None,0,26,26,26,90.6611155999999,,,,,,,92.16789090001839,91.66844160002074,91.67264980002074,91.67264980002074,92.1621544000227,93.25550590001512,93.25550590001512,z,0.5553843000088818,None,,,,,,,,,,,DM_en,001,2025-03-09_13h59.29.101,MainFlow,2024.2.4,143.93480328434595,2025-03-09 13h59.45.675052 +0700,
2,27,0,word/worden0271.png,image/False/imgf27.png,27,27,0,x,0.5653009999950882,None,0,27,27,27,93.81935000000522,,,,,,,95.32628300000215,94.83773660002043,94.84105790001922,94.84105790001922,95.32004700001562,96.41036120001809,96.41036120001809,x,0.5653009999950882,None,,,,,,,,,,,DM_en,001,2025-03-09_13h59.29.101,MainFlow,2024.2.4,143.93480328434595,2025-03-09 13h59.45.675052 +0700,
2,14,0,word/worden0141.png,image/False/imgf14.png,28,28,0,x,0.5684696000244003,None,0,28,28,28,96.98552330001257,,,,,,,98.49258099999861,98.00372140001855,98.00743200001307,98.00743200001307,98.48624060000293,99.5996081000194,99.5996081000194,x,0.5684696000244003,None,,,,,,,,,,,DM_en,001,2025-03-09_13h59.29.101,MainFlow,2024.2.4,143.93480328434595,2025-03-09 13h59.45.675052 +0700,
2,40,0,word/worden0401.png,image/False/imgf40.png,29,29,0,x,0.2557960000121966,None,0,29,29,29,100.18009990002611,,,,,,,101.67202320002252,101.17709520002245,101.17985450002016,101.17985450002016,101.66632450002362,102.78964280002401,102.78964280002401,x,0.2557960000121966,None,101.67202320002252,101.67202320002252,102.78964280002401,,,,,,,,DM_en,001,2025-03-09_13h59.29.101,MainFlow,2024.2.4,143.93480328434595,2025-03-09 13h59.45.675052 +0700,
2,1,0,word/worden0011.png,image/False/imgf01.png,30,30,0,x,0.5213861000083853,None,0,30,30,30,103.05368810001528,,,,,,,104.56068390002474,104.07048990001203,104.07410150000942,104.07410150000942,104.55457940002088,105.6449962000188,105.6449962000188,x,0.5213861000083853,None,,,,,,,,,,,DM_en,001,2025-03-09_13h59.29.101,MainFlow,2024.2.4,143.93480328434595,2025-03-09 13h59.45.675052 +0700,
2,3,0,word/worden0031.png,image/False/imgf03.png,31,31,0,z,0.408213299990166,None,0,31,31,31,106.17812870000489,,,,,,,107.68500050000148,107.18672140000854,107.19009380001808,107.19009380001808,107.67904840002302,108.7867882999999,108.7867882999999,z,0.408213299990166,None,,,,,,,,,,,DM_en,001,2025-03-09_13h59.29.101,MainFlow,2024.2.4,143.93480328434595,2025-03-09 13h59.45.675052 +0700,
2,57,1,word/worden0571.png,image/True/img57.png,32,32,0,z,0.5232951999932993,None,0,32,32,32,109.20522540001548,,,,,,,110.70498490001773,110.2100885999971,110.21291010000277,110.21291010000277,110.69916160000139,111.81808799999999,111.81808799999999,z,0.5232951999932993,None,110.70498490001773,110.70498490001773,,,,,,,,,DM_en,001,2025-03-09_13h59.29.101,MainFlow,2024.2.4,143.93480328434595,2025-03-09 13h59.45.675052 +0700,
2,88,0,word/worden0881.png,image/False/imgf88.png,33,33,0,x,0.5937437000102364,None,0,33,33,33,112.35357250002562,,,,,,,113.85035059999791,113.35225570001057,113.35560320000513,113.35560320000513,113.84452990000136,114.9656339000212,114.9656339000212,x,0.5937437000102364,None,113.85035059999791,113.85035059999791,114.9656339000212,,,,,,,,DM_en,001,2025-03-09_13h59.29.101,MainFlow,2024.2.4,143.93480328434595,2025-03-09 13h59.45.675052 +0700,
2,52,0,word/worden0521.png,image/False/imgf52.png,34,34,0,x,0.6778891999856569,None,0,34,34,34,115.57200620000367,,,,,,,117.07880630000727,116.5943355000054,116.59790420002537,116.59790420002537,117.07245540001895,118.17818960000295,118.17818960000295,x,0.6778891999856569,None,,,,,,,,,,,DM_en,001,2025-03-09_13h59.29.101,MainFlow,2024.2.4,143.93480328434595,2025-03-09 13h59.45.675052 +0700,
2,50,0,word/worden0501.png,image/False/imgf50.png,35,35,0,x,0.5020506999862846,None,0,35,35,35,118.8636344000115,,,,,,,120.35599270000239,119.85734550000052,119.86082090000855,119.86082090000855,120.35013620002428,121.46470650000265,121.46470650000265,x,0.5020506999862846,None,120.35599270000239,120.35599270000239,121.46470650000265,,,,,,,,DM_en,001,2025-03-09_13h59.29.101,MainFlow,2024.2.4,143.93480328434595,2025-03-09 13h59.45.675052 +0700,
2,78,1,word/worden0781.png,image/True/img78.png,36,36,0,x,0.5814648999948986,None,0,36,36,36,121.97355029999744,,,,,,,123.48051420002594,122.98257860000012,122.98592289999942,122.98592289999942,123.47402190000867,124.57207560000825,124.57207560000825,x,0.5814648999948986,None,,,,,,,,,,,DM_en,001,2025-03-09_13h59.29.101,MainFlow,2024.2.4,143.93480328434595,2025-03-09 13h59.45.675052 +0700,
2,61,0,word/worden0611.png,image/False/imgf61.png,37,37,0,x,0.5628303999837954,None,0,37,37,37,125.16237060001004,,,,,,,126.6465325000172,126.1541952000116,126.15706970001338,126.15706970001338,126.64044400001876,127.77777690000948,127.77777690000948,x,0.5628303999837954,None,126.6465325000172,126.6465325000172,127.77777690000948,,,,,,,,DM_en,001,2025-03-09_13h59.29.101,MainFlow,2024.2.4,143.93480328434595,2025-03-09 13h59.45.675052 +0700,
2,36,0,word/worden0361.png,image/False/imgf36.png,38,38,0,x,0.7504112000169698,None,0,38,38,38,128.34750840000925,,,,,,,129.8542301999987,129.35959900001762,129.36276180000277,129.36276180000277,129.84804959999747,130.95103779999772,130.95103779999772,x,0.7504112000169698,None,,,,,,,,,,,DM_en,001,2025-03-09_13h59.29.101,MainFlow,2024.2.4,143.93480328434595,2025-03-09 13h59.45.675052 +0700,
2,10,1,word/worden0101.png,image/True/img10.png,39,39,0,z,0.630643600015901,None,0,39,39,39,131.71015880000778,,,,,,,133.20085069999914,132.70218190000742,132.7052274000016,132.7052274000016,133.19566190001206,134.30905780001194,134.30905780001194,z,0.630643600015901,None,133.20085069999914,133.20085069999914,134.30905780001194,,,,,,,,DM_en,001,2025-03-09_13h59.29.101,MainFlow,2024.2.4,143.93480328434595,2025-03-09 13h59.45.675052 +0700,
2,75,1,word/worden0751.png,image/True/img75.png,40,40,0,z,0.7628716999897733,None,0,40,40,40,134.95027940001455,,,,,,,136.44346120001865,135.94441540000844,135.94813050000812,135.94813050000812,136.43813550000777,137.55149700000766,137.55149700000766,z,0.7628716999897733,None,136.44346120001865,136.44346120001865,137.55149700000766,,,,,,,,DM_en,001,2025-03-09_13h59.29.101,MainFlow,2024.2.4,143.93480328434595,2025-03-09 13h59.45.675052 +0700,
2,1,1,word/worden0011.png,image/True/img01.png,41,41,0,z,0.6864188000035938,None,0,41,41,41,138.3247956999985,,,,,,,139.81810180001776,139.32384910000837,139.32809490000363,139.32809490000363,139.81285950000165,140.9514831000124,140.9514831000124,z,0.6864188000035938,None,139.81810180001776,139.81810180001776,140.9514831000124,,,,,,,,DM_en,001,2025-03-09_13h59.29.101,MainFlow,2024.2.4,143.93480328434595,2025-03-09 13h59.45.675052 +0700,
2,37,1,word/worden0371.png,image/True/img37.png,42,42,0,x,1.201114299998153,None,0,42,42,42,141.64559260001988,,,,,,,143.15009090001695,142.66468620000524,142.66781640000409,142.66781640000409,143.1438327000069,144.2920547000249,144.2920547000249,x,1.201114299998153,None,,,142.66781640000409,,,,,,,,DM_en,001,2025-03-09_13h59.29.101,MainFlow,2024.2.4,143.93480328434595,2025-03-09 13h59.45.675052 +0700,
2,66,0,word/worden0661.png,image/False/imgf66.png,43,43,0,x,0.6710682999982964,None,0,43,43,43,145.50376790002338,,,,,,,147.01035540000885,146.5227695000067,146.5260438999976,146.5260438999976,147.00398120001773,148.12062110000988,148.12062110000988,x,0.6710682999982964,None,,,,,,,,,,,DM_en,001,2025-03-09_13h59.29.101,MainFlow,2024.2.4,143.93480328434595,2025-03-09 13h59.45.675052 +0700,
2,55,1,word/worden0551.png,image/True/img55.png,44,44,0,z,0.7519564999965951,None,0,44,44,44,148.80297820002306,,,,,,,150.30864120001206,149.8124078999972,149.8158417000086,149.8158417000086,150.30240559999947,151.41351820001728,151.41351820001728,z,0.7519564999965951,None,,,,,,,,,,,DM_en,001,2025-03-09_13h59.29.101,MainFlow,2024.2.4,143.93480328434595,2025-03-09 13h59.45.675052 +0700,
2,70,0,word/worden0701.png,image/False/imgf70.png,45,45,0,x,0.5058613000146579,None,0,45,45,45,152.1796676000231,,,,,,,153.6760656000115,153.1788873000187,153.18184360000305,153.18184360000305,153.67046350002056,154.77566090002074,154.77566090002074,x,0.5058613000146579,None,153.6760656000115,153.6760656000115,154.77566090002074,,,,,,,,DM_en,001,2025-03-09_13h59.29.101,MainFlow,2024.2.4,143.93480328434595,2025-03-09 13h59.45.675052 +0700,
2,68,0,word/worden0681.png,image/False/imgf68.png,46,46,0,z,0.362692299997434,None,0,46,46,46,155.29397769999923,,,,,,,156.7942144999979,156.29750980000244,156.30123020001338,156.30123020001338,156.78910140000517,157.86995970000862,157.86995970000862,z,0.362692299997434,None,156.7942144999979,156.7942144999979,,,,,,,,,DM_en,001,2025-03-09_13h59.29.101,MainFlow,2024.2.4,143.93480328434595,2025-03-09 13h59.45.675052 +0700,
2,75,1,word/worden0751.png,image/True/img75.png,47,47,0,z,0.4430117000010796,None,0,47,47,47,158.24535910002305,,,,,,,159.74522660000366,159.24781510001048,159.25267280000844,159.25267280000844,159.73948499999824,160.83871250000084,160.83871250000084,z,0.4430117000010796,None,159.74522660000366,159.74522660000366,,,,,,,,,DM_en,001,2025-03-09_13h59.29.101,MainFlow,2024.2.4,143.93480328434595,2025-03-09 13h59.45.675052 +0700,
2,38,1,word/worden0381.png,image/True/img38.png,48,48,0,z,0.9646472999884281,None,0,48,48,48,161.29236560000572,,,,,,,162.78526020000572,162.2868376999977,162.29009860000224,162.29009860000224,162.7798662999994,163.87287839999772,163.87287839999772,z,0.9646472999884281,None,162.78526020000572,162.78526020000572,163.87287839999772,,,,,,,,DM_en,001,2025-03-09_13h59.29.101,MainFlow,2024.2.4,143.93480328434595,2025-03-09 13h59.45.675052 +0700,
2,42,1,word/worden0421.png,image/True/img42.png,49,49,0,z,1.2612248999939766,None,0,49,49,49,164.8473101000127,,,,,,,166.34012510001776,165.8425260000222,165.84590010001557,165.84590010001557,166.33450270001777,167.45132860000012,167.45132860000012,z,1.2612248999939766,None,166.34012510001776,166.34012510001776,167.45132860000012,,,,,,,,DM_en,001,2025-03-09_13h59.29.101,MainFlow,2024.2.4,143.93480328434595,2025-03-09 13h59.45.675052 +0700,
2,11,0,word/worden0111.png,image/False/imgf11.png,50,50,0,x,0.5861368000041693,None,0,50,50,50,168.72521190001862,,,,,,,170.22826230002102,169.7325481000007,169.73534620000282,169.73534620000282,170.22201110000606,171.35850690002553,171.35850690002553,x,0.5861368000041693,None,,,,,,,,,,,DM_en,001,2025-03-09_13h59.29.101,MainFlow,2024.2.4,143.93480328434595,2025-03-09 13h59.45.675052 +0700,
2,41,0,word/worden0411.png,image/False/imgf41.png,51,51,0,z,1.3109770999872126,None,0,51,51,51,171.9570838000218,,,,,,,173.44302610002342,172.9470100000035,172.9499709000229,172.9499709000229,173.4372141000058,174.5337322000123,174.5337322000123,z,1.3109770999872126,None,173.44302610002342,173.44302610002342,174.5337322000123,,,,,,,,DM_en,001,2025-03-09_13h59.29.101,MainFlow,2024.2.4,143.93480328434595,2025-03-09 13h59.45.675052 +0700,
2,82,1,word/worden0821.png,image/True/img82.png,52,52,0,z,0.5963132999895606,None,0,52,52,52,175.85231780001777,,,,,,,177.34505020000506,176.85037320002448,176.85322850002558,176.85322850002558,177.34026490000542,178.42353640001966,178.42353640001966,z,0.5963132999895606,None,177.34505020000506,177.34505020000506,178.42353640001966,,,,,,,,DM_en,001,2025-03-09_13h59.29.101,MainFlow,2024.2.4,143.93480328434595,2025-03-09 13h59.45.675052 +0700,
2,88,0,word/worden0881.png,image/False/imgf88.png,53,53,0,x,1.1623658000025898,None,0,53,53,53,179.03199499999755,,,,,,,180.51793090000865,180.01949870001408,180.02243550002459,180.02243550002459,180.51192980000633,181.6346919000207,181.6346919000207,x,1.1623658000025898,None,180.51793090000865,180.51793090000865,181.6346919000207,,,,,,,,DM_en,001,2025-03-09_13h59.29.101,MainFlow,2024.2.4,143.93480328434595,2025-03-09 13h59.45.675052 +0700,
2,8,1,word/worden0081.png,image/True/img08.png,54,54,0,z,4.759809799987124,None,0,54,54,54,182.80904250001186,,,,,,,184.30890130001353,183.81503200001316,183.81785620001028,183.81785620001028,184.3030249000003,185.39828439999837,185.39828439999837,z,4.759809799987124,None,184.30890130001353,184.30890130001353,,,,,,,,,DM_en,001,2025-03-09_13h59.29.101,MainFlow,2024.2.4,143.93480328434595,2025-03-09 13h59.45.675052 +0700,
2,16,0,word/worden0161.png,image/False/imgf16.png,55,55,0,x,0.4075455999991391,None,0,55,55,55,190.17111170000862,,,,,,,191.66166510002222,191.16356000001542,191.16643979999935,191.16643979999935,191.6558860000223,192.80003959999885,192.80003959999885,x,0.4075455999991391,None,191.66166510002222,191.66166510002222,192.80003959999885,,,,,,,,DM_en,001,2025-03-09_13h59.29.101,MainFlow,2024.2.4,143.93480328434595,2025-03-09 13h59.45.675052 +0700,
2,10,0,word/worden0101.png,image/False/imgf10.png,56,56,0,x,0.5543404000054579,None,0,56,56,56,193.21673640000517,,,,,,,194.70971720002126,194.2113962000003,194.21458820000407,194.21458820000407,194.7041100000206,195.82275600000867,195.82275600000867,x,0.5543404000054579,None,194.70971720002126,194.70971720002126,195.82275600000867,,,,,,,,DM_en,001,2025-03-09_13h59.29.101,MainFlow,2024.2.4,143.93480328434595,2025-03-09 13h59.45.675052 +0700,
2,76,0,word/worden0761.png,image/False/imgf76.png,57,57,0,x,0.7004489999962971,None,0,57,57,57,196.3829525000183,,,,,,,197.87570460001007,197.38130530001945,197.38472080000793,197.38472080000793,197.86990240000887,199.0068731000065,199.0068731000065,x,0.7004489999962971,None,197.87570460001007,197.87570460001007,199.0068731000065,,,,,,,,DM_en,001,2025-03-09_13h59.29.101,MainFlow,2024.2.4,143.93480328434595,2025-03-09 13h59.45.675052 +0700,
2,42,1,word/worden0421.png,image/True/img42.png,58,58,0,z,0.43987629999173805,None,0,58,58,58,199.71556800001417,,,,,,,201.20841550000478,200.7094382000214,200.71281050000107,200.71281050000107,201.2022760999971,202.3316018000187,202.3316018000187,z,0.43987629999173805,None,201.20841550000478,201.20841550000478,202.3316018000187,,,,,,,,DM_en,001,2025-03-09_13h59.29.101,MainFlow,2024.2.4,143.93480328434595,2025-03-09 13h59.45.675052 +0700,
2,26,0,word/worden0261.png,image/False/imgf26.png,59,59,0,x,1.1880013000045437,None,0,59,59,59,202.77779890000238,,,,,,,204.2849798000243,203.78872830001637,203.79279320000205,203.79279320000205,204.27890770000522,205.4154627000098,205.4154627000098,x,1.1880013000045437,None,,,,,,,,,,,DM_en,001,2025-03-09_13h59.29.101,MainFlow,2024.2.4,143.93480328434595,2025-03-09 13h59.45.675052 +0700,
2,26,1,word/worden0261.png,image/True/img26.png,60,60,0,z,0.9004327000002377,None,0,60,60,60,206.61190540000098,,,,,,,208.10311520000687,207.6064966999984,207.60997610000777,207.60997610000777,208.09793509999872,209.2287539000099,209.2287539000099,z,0.9004327000002377,None,208.10311520000687,208.10311520000687,209.2287539000099,,,,,,,,DM_en,001,2025-03-09_13h59.29.101,MainFlow,2024.2.4,143.93480328434595,2025-03-09 13h59.45.675052 +0700,
2,48,1,word/worden0481.png,image/True/img48.png,61,61,0,z,0.47791859999415465,None,0,61,61,61,210.13711219999823,,,,,,,211.63686990001588,211.13902850000886,211.1418749000004,211.1418749000004,211.63085300000967,212.75615749999997,212.75615749999997,z,0.47791859999415465,None,211.63686990001588,211.63686990001588,,,,,,,,,DM_en,001,2025-03-09_13h59.29.101,MainFlow,2024.2.4,143.93480328434595,2025-03-09 13h59.45.675052 +0700,
2,71,0,word/worden0711.png,image/False/imgf71.png,62,62,0,x,0.551176500011934,None,0,62,62,62,213.24070660001598,,,,,,,214.7474288000085,214.2531699000101,214.25642580000567,214.25642580000567,214.74109910000698,215.86815730002127,215.86815730002127,x,0.551176500011934,None,,,,,,,,,,,DM_en,001,2025-03-09_13h59.29.101,MainFlow,2024.2.4,143.93480328434595,2025-03-09 13h59.45.675052 +0700,
2,93,1,word/worden0931.png,image/True/img93.png,63,63,0,z,0.8165768999897409,None,0,63,63,63,216.4298293000029,,,,,,,217.9133386000176,217.42155759999878,217.42440060002264,217.42440060002264,217.90726170002017,219.00832100000116,219.00832100000116,z,0.8165768999897409,None,217.9133386000176,217.9133386000176,219.00832100000116,,,,,,,,DM_en,001,2025-03-09_13h59.29.101,MainFlow,2024.2.4,143.93480328434595,2025-03-09 13h59.45.675052 +0700,
2,51,1,word/worden0511.png,image/True/img51.png,64,64,0,x,0.9838519000040833,None,0,64,64,64,219.83667820002302,,,,,,,221.3294432000257,220.83199110001442,220.83553480001865,220.83553480001865,221.32361190000665,222.43763540001237,222.43763540001237,x,0.9838519000040833,None,221.3294432000257,221.3294432000257,222.43763540001237,,,,,,,,DM_en,001,2025-03-09_13h59.29.101,MainFlow,2024.2.4,143.93480328434595,2025-03-09 13h59.45.675052 +0700,
2,78,0,word/worden0781.png,image/False/imgf78.png,65,65,0,z,0.7954747999901883,None,0,65,65,65,223.4332828000188,,,,,,,224.92604650001158,224.430943400017,224.43467720001354,224.43467720001354,224.9203444000159,226.0188855000015,226.0188855000015,z,0.7954747999901883,None,224.92604650001158,224.92604650001158,226.0188855000015,,,,,,,,DM_en,001,2025-03-09_13h59.29.101,MainFlow,2024.2.4,143.93480328434595,2025-03-09 13h59.45.675052 +0700,
2,64,0,word/worden0641.png,image/False/imgf64.png,66,66,0,x,1.4681709999858867,None,0,66,66,66,226.82147190000978,,,,,,,228.31449119999888,227.81652660001419,227.82003060000716,227.82003060000716,228.30892820001463,229.39881740001147,229.39881740001147,x,1.4681709999858867,None,228.31449119999888,228.31449119999888,229.39881740001147,,,,,,,,DM_en,001,2025-03-09_13h59.29.101,MainFlow,2024.2.4,143.93480328434595,2025-03-09 13h59.45.675052 +0700,
2,68,1,word/worden0681.png,image/True/img68.png,67,67,0,z,0.3847006999712903,None,0,67,67,67,230.87630780000472,,,,,,,232.37615670001833,231.88123190001352,231.88538980000885,231.88538980000885,232.37074579999899,233.45825429999968,233.45825429999968,z,0.3847006999712903,None,232.37615670001833,232.37615670001833,,,,,,,,,DM_en,001,2025-03-09_13h59.29.101,MainFlow,2024.2.4,143.93480328434595,2025-03-09 13h59.45.675052 +0700,
2,57,0,word/worden0571.png,image/False/imgf57.png,68,68,0,x,0.4668598000134807,None,0,68,68,68,233.85480610001832,,,,,,,235.3409060999984,234.84197970002424,234.8448113000195,234.8448113000195,235.3287170000258,236.4644849000033,236.4644849000033,x,0.4668598000134807,None,235.3339191999985,235.3339191999985,236.4644849000033,,,,,,,,DM_en,001,2025-03-09_13h59.29.101,MainFlow,2024.2.4,143.93480328434595,2025-03-09 13h59.45.675052 +0700,
2,31,0,word/worden0311.png,image/False/imgf31.png,69,69,0,x,0.5880238999961875,None,0,69,69,69,236.93999169999734,,,,,,,238.4441798000189,237.96093320002547,237.96459280001,237.96459280001,238.43787200000952,239.51257550000446,239.51257550000446,x,0.5880238999961875,None,,,,,,,,,,,DM_en,001,2025-03-09_13h59.29.101,MainFlow,2024.2.4,143.93480328434595,2025-03-09 13h59.45.675052 +0700,
2,31,0,word/worden0311.png,image/False/imgf31.png,70,70,0,x,0.4440865999786183,None,0,70,70,70,240.11053480001283,,,,,,,241.60335489999852,241.10652140001184,241.10982870002044,241.10982870002044,241.59761470000376,242.66841490002116,242.66841490002116,x,0.4440865999786183,None,241.60335489999852,241.60335489999852,242.66841490002116,,,,,,,,DM_en,001,2025-03-09_13h59.29.101,MainFlow,2024.2.4,143.93480328434595,2025-03-09 13h59.45.675052 +0700,
2,55,1,word/worden0551.png,image/True/img55.png,71,71,0,z,0.5808505999739282,None,0,71,71,71,243.12375310002244,,,,,,,244.61669340002118,244.11843540001428,244.1219381999981,244.1219381999981,244.61098370002583,245.74649080002564,245.74649080002564,z,0.5808505999739282,None,244.61669340002118,244.61669340002118,245.74649080002564,,,,,,,,DM_en,001,2025-03-09_13h59.29.101,MainFlow,2024.2.4,143.93480328434595,2025-03-09 13h59.45.675052 +0700,
2,36,1,word/worden0361.png,image/True/img36.png,72,72,0,z,0.413679699995555,None,0,72,72,72,246.3410083000199,,,,,,,247.8314995999972,247.33961990001262,247.34255100000883,247.34255100000883,247.82638830001815,248.9232605000143,248.9232605000143,z,0.413679699995555,None,247.8314995999972,247.8314995999972,248.9232605000143,,,,,,,,DM_en,001,2025-03-09_13h59.29.101,MainFlow,2024.2.4,143.93480328434595,2025-03-09 13h59.45.675052 +0700,
2,8,0,word/worden0081.png,image/False/imgf08.png,73,73,0,x,2.1542422999918927,None,0,73,73,73,249.34502480001538,,,,,,,250.83770650002407,250.34134250000352,250.3446990000084,250.3446990000084,250.83184910001,251.93144390001544,251.93144390001544,x,2.1542422999918927,None,250.83770650002407,250.83770650002407,251.93144390001544,,,,,,,,DM_en,001,2025-03-09_13h59.29.101,MainFlow,2024.2.4,143.93480328434595,2025-03-09 13h59.45.675052 +0700,
2,82,0,word/worden0821.png,image/False/imgf82.png,74,74,0,x,0.6717964000126813,None,0,74,74,74,254.09388930001296,,,,,,,255.59376770001836,255.09755370000494,255.10128290002467,255.10128290002467,255.58809150001616,256.70649400001275,256.70649400001275,x,0.6717964000126813,None,255.59376770001836,255.59376770001836,,,,,,,,,DM_en,001,2025-03-09_13h59.29.101,MainFlow,2024.2.4,143.93480328434595,2025-03-09 13h59.45.675052 +0700,
2,14,0,word/worden0141.png,image/False/imgf14.png,75,75,0,x,0.5778272000025027,None,0,75,75,75,257.3869969000225,,,,,,,258.87791360000847,258.37936950000585,258.3826212999993,258.3826212999993,258.87282190000406,259.9936265000142,259.9936265000142,x,0.5778272000025027,None,258.87791360000847,258.87791360000847,259.9936265000142,,,,,,,,DM_en,001,2025-03-09_13h59.29.101,MainFlow,2024.2.4,143.93480328434595,2025-03-09 13h59.45.675052 +0700,
2,71,1,word/worden0711.png,image/True/img71.png,76,76,0,z,0.5338181999977678,None,0,76,76,76,260.5788041000196,,,,,,,262.07179129999713,261.57875460002106,261.5822986999992,261.5822986999992,262.0666838000179,263.1959381000197,263.1959381000197,z,0.5338181999977678,None,262.07179129999713,262.07179129999713,263.1959381000197,,,,,,,,DM_en,001,2025-03-09_13h59.29.101,MainFlow,2024.2.4,143.93480328434595,2025-03-09 13h59.45.675052 +0700,
2,22,0,word/worden0221.png,image/False/imgf22.png,77,77,0,z,2.701163899997482,None,0,77,77,77,263.73793650002335,,,,,,,265.2447497000103,264.76092349999817,264.76409810001496,264.76409810001496,265.23859600001015,266.3513030000031,266.3513030000031,z,2.701163899997482,None,,,,,,,,,,,DM_en,001,2025-03-09_13h59.29.101,MainFlow,2024.2.4,143.93480328434595,2025-03-09 13h59.45.675052 +0700,
2,78,1,word/worden0781.png,image/True/img78.png,78,78,0,z,2.518157999991672,None,0,78,78,78,269.06328070000745,,,,,,,270.55623899999773,270.061245400022,270.0646627000242,270.0646627000242,270.5513212000078,271.6601679000014,271.6601679000014,z,2.518157999991672,None,270.55623899999773,270.55623899999773,271.6601679000014,,,,,,,,DM_en,001,2025-03-09_13h59.29.101,MainFlow,2024.2.4,143.93480328434595,2025-03-09 13h59.45.675052 +0700,
2,51,0,word/worden0511.png,image/False/imgf51.png,79,79,0,x,0.7097519999952056,None,0,79,79,79,274.187238500017,,,,,,,275.6733803000243,275.180629200011,275.1840907000005,275.1840907000005,275.6683307000203,276.7700008000247,276.7700008000247,x,0.7097519999952056,None,275.6733803000243,275.6733803000243,276.7700008000247,,,,,,,,DM_en,001,2025-03-09_13h59.29.101,MainFlow,2024.2.4,143.93480328434595,2025-03-09 13h59.45.675052 +0700,
2,56,1,word/worden0561.png,image/True/img56.png,80,80,0,z,0.3654333000013139,None,0,80,80,80,277.4921024000214,,,,,,,278.99220110001625,278.49440440000035,278.4972841000126,278.4972841000126,278.98703899999964,280.0919456999982,280.0919456999982,z,0.3654333000013139,None,278.99220110001625,278.99220110001625,,,,,,,,,DM_en,001,2025-03-09_13h59.29.101,MainFlow,2024.2.4,143.93480328434595,2025-03-09 13h59.45.675052 +0700,
2,60,1,word/worden0601.png,image/True/img60.png,81,81,0,z,0.588694400008535,None,0,81,81,81,280.4637483000115,,,,,,,281.9637558000104,281.46790899999905,281.47076870000456,281.47076870000456,281.9577391000057,283.06352390002576,283.06352390002576,z,0.588694400008535,None,281.9637558000104,281.9637558000104,,,,,,,,,DM_en,001,2025-03-09_13h59.29.101,MainFlow,2024.2.4,143.93480328434595,2025-03-09 13h59.45.675052 +0700,
2,96,0,word/worden0961.png,image/False/imgf96.png,82,82,0,x,0.7821664000221062,None,0,82,82,82,283.65909120001015,,,,,,,285.14362950000213,284.651875200012,284.65462740001385,284.65462740001385,285.13802990000113,286.2518763000262,286.2518763000262,x,0.7821664000221062,None,285.14362950000213,285.14362950000213,286.2518763000262,,,,,,,,DM_en,001,2025-03-09_13h59.29.101,MainFlow,2024.2.4,143.93480328434595,2025-03-09 13h59.45.675052 +0700,
2,3,0,word/worden0031.png,image/False/imgf03.png,83,83,0,x,0.8089317999838386,None,0,83,83,83,287.04587770000217,,,,,,,288.53866730001755,288.040522700001,288.0439475000021,288.0439475000021,288.532824599999,289.65286240002024,289.65286240002024,x,0.8089317999838386,None,288.53866730001755,288.53866730001755,289.65286240002024,,,,,,,,DM_en,001,2025-03-09_13h59.29.101,MainFlow,2024.2.4,143.93480328434595,2025-03-09 13h59.45.675052 +0700,
2,55,0,word/worden0551.png,image/False/imgf55.png,84,84,0,x,0.4302507999818772,None,0,84,84,84,290.46962670001085,,,,,,,291.96171050000703,291.46601329999976,291.46938039999804,291.46938039999804,291.95604479999747,293.05959520000033,293.05959520000033,x,0.4302507999818772,None,291.96171050000703,291.96171050000703,293.05959520000033,,,,,,,,DM_en,001,2025-03-09_13h59.29.101,MainFlow,2024.2.4,143.93480328434595,2025-03-09 13h59.45.675052 +0700,
2,71,1,word/worden0711.png,image/True/img71.png,85,85,0,z,0.9682597999926656,None,0,85,85,85,293.4963507000066,,,,,,,294.9818954000075,294.4890368000197,294.4923614000145,294.4923614000145,294.9762401000189,296.1051512999984,296.1051512999984,z,0.9682597999926656,None,294.9818954000075,294.9818954000075,296.1051512999984,,,,,,,,DM_en,001,2025-03-09_13h59.29.101,MainFlow,2024.2.4,143.93480328434595,2025-03-09 13h59.45.675052 +0700,
2,3,1,word/worden0031.png,image/True/img03.png,86,86,0,z,0.6288484999968205,None,0,86,86,86,297.0855404000031,,,,,,,298.5786147000035,298.0852206000127,298.08856140001444,298.08856140001444,298.5733567000134,299.6912415000261,299.6912415000261,z,0.6288484999968205,None,298.5786147000035,298.5786147000035,299.6912415000261,,,,,,,,DM_en,001,2025-03-09_13h59.29.101,MainFlow,2024.2.4,143.93480328434595,2025-03-09 13h59.45.675052 +0700,
2,52,1,word/worden0521.png,image/True/img52.png,87,87,0,z,0.48805290000746027,None,0,87,87,87,300.3282288000046,,,,,,,301.8140583000204,301.31551710001077,301.3182582000154,301.3182582000154,301.80884949999745,302.9398330000113,302.9398330000113,z,0.48805290000746027,None,301.8140583000204,301.8140583000204,302.9398330000113,,,,,,,,DM_en,001,2025-03-09_13h59.29.101,MainFlow,2024.2.4,143.93480328434595,2025-03-09 13h59.45.675052 +0700,
2,95,0,word/worden0951.png,image/False/imgf95.png,88,88,0,x,0.5790317000064533,None,0,88,88,88,303.4385927999974,,,,,,,304.93832810001913,304.4398290000099,304.44321250001667,304.44321250001667,304.93254790001083,306.0520863000129,306.0520863000129,x,0.5790317000064533,None,304.93832810001913,304.93832810001913,,,,,,,,,DM_en,001,2025-03-09_13h59.29.101,MainFlow,2024.2.4,143.93480328434595,2025-03-09 13h59.45.675052 +0700,
2,6,0,word/worden0061.png,image/False/imgf06.png,89,89,0,x,0.7334890000056475,None,0,89,89,89,306.6394191000145,,,,,,,308.1326374000055,307.6333483000053,307.63693780000904,307.63693780000904,308.1271904000023,309.2243553000153,309.2243553000153,x,0.7334890000056475,None,308.1326374000055,308.1326374000055,309.2243553000153,,,,,,,,DM_en,001,2025-03-09_13h59.29.101,MainFlow,2024.2.4,143.93480328434595,2025-03-09 13h59.45.675052 +0700,
2,79,1,word/worden0791.png,image/True/img79.png,90,90,0,z,0.5708804000169039,None,0,90,90,90,309.96509720000904,,,,,,,311.47204610001063,310.9760989000206,310.9790502000251,310.9790502000251,311.46587440001895,312.5740534000215,312.5740534000215,z,0.5708804000169039,None,,,,,,,,,,,DM_en,001,2025-03-09_13h59.29.101,MainFlow,2024.2.4,143.93480328434595,2025-03-09 13h59.45.675052 +0700,
2,61,0,word/worden0611.png,image/False/imgf61.png,91,91,0,x,0.7218470999796409,None,0,91,91,91,313.1519458000257,,,,,,,314.6447762000025,314.14920760001405,314.15274489999865,314.15274489999865,314.6390701000055,315.76412940002047,315.76412940002047,x,0.7218470999796409,None,314.6447762000025,314.6447762000025,315.76412940002047,,,,,,,,DM_en,001,2025-03-09_13h59.29.101,MainFlow,2024.2.4,143.93480328434595,2025-03-09 13h59.45.675052 +0700,
2,46,0,word/worden0461.png,image/False/imgf46.png,92,92,0,x,0.562548699992476,None,0,92,92,92,316.49850210000295,,,,,,,318.0051026000001,317.51061570001184,317.51376000000164,317.51376000000164,317.99876450002193,319.1167425000167,319.1167425000167,x,0.562548699992476,None,,,,,,,,,,,DM_en,001,2025-03-09_13h59.29.101,MainFlow,2024.2.4,143.93480328434595,2025-03-09 13h59.45.675052 +0700,
2,89,1,word/worden0891.png,image/True/img89.png,93,93,0,z,0.7793268999957945,None,0,93,93,93,319.68815030000405,,,,,,,321.19218070001807,320.702706400014,320.7060212000215,320.7060212000215,321.18611650000094,322.261413500004,322.261413500004,z,0.7793268999957945,None,,,320.7060212000215,,,,,,,,DM_en,001,2025-03-09_13h59.29.101,MainFlow,2024.2.4,143.93480328434595,2025-03-09 13h59.45.675052 +0700,
2,26,0,word/worden0261.png,image/False/imgf26.png,94,94,0,z,1.621746599994367,None,0,94,94,94,323.05291360002593,,,,,,,324.5525957000209,324.05371970002307,324.05741120001767,324.05741120001767,324.5468618000159,325.66496890000417,325.66496890000417,z,1.621746599994367,None,324.5525957000209,324.5525957000209,,,,,,,,,DM_en,001,2025-03-09_13h59.29.101,MainFlow,2024.2.4,143.93480328434595,2025-03-09 13h59.45.675052 +0700,
2,44,0,word/worden0441.png,image/False/imgf44.png,95,95,0,x,0.6027470999979414,None,0,95,95,95,327.2951262000133,,,,,,,328.7809455000097,328.2884728000208,328.292048000003,328.292048000003,328.77526320001925,329.91122440001345,329.91122440001345,x,0.6027470999979414,None,328.7809455000097,328.7809455000097,329.91122440001345,,,,,,,,DM_en,001,2025-03-09_13h59.29.101,MainFlow,2024.2.4,143.93480328434595,2025-03-09 13h59.45.675052 +0700,
2,82,1,word/worden0821.png,image/True/img82.png,96,96,0,z,0.5676342000078876,None,0,96,96,96,330.5235935000237,,,,,,,332.0235324000241,331.52473000000464,331.52831510000397,331.52831510000397,332.0178425000049,333.1030637000222,333.1030637000222,z,0.5676342000078876,None,332.0235324000241,332.0235324000241,,,,,,,,,DM_en,001,2025-03-09_13h59.29.101,MainFlow,2024.2.4,143.93480328434595,2025-03-09 13h59.45.675052 +0700,
2,16,1,word/worden0161.png,image/True/img16.png,97,97,0,z,0.6613687000062782,None,0,97,97,97,333.684032500023,,,,,,,335.1686688000045,334.67074190001586,334.6735645000008,334.6735645000008,335.1628071000159,336.2929318000097,336.2929318000097,z,0.6613687000062782,None,335.1686688000045,335.1686688000045,336.2929318000097,,,,,,,,DM_en,001,2025-03-09_13h59.29.101,MainFlow,2024.2.4,143.93480328434595,2025-03-09 13h59.45.675052 +0700,
2,20,1,word/worden0201.png,image/True/img20.png,98,98,0,z,0.5955048000032548,None,0,98,98,98,336.96237980001024,,,,,,,338.4666021000012,337.96952530002454,337.9725432000123,337.9725432000123,338.4602689000021,339.59172350002336,339.59172350002336,z,0.5955048000032548,None,,,337.9725432000123,,,,,,,,DM_en,001,2025-03-09_13h59.29.101,MainFlow,2024.2.4,143.93480328434595,2025-03-09 13h59.45.675052 +0700,
2,20,1,word/worden0201.png,image/True/img20.png,99,99,0,z,0.45874889998231083,None,0,99,99,99,340.19557700000587,,,,,,,341.6951811000181,341.1977714000095,341.2013537000166,341.2013537000166,341.6896417000098,342.81361160002416,342.81361160002416,z,0.45874889998231083,None,341.6951811000181,341.6951811000181,,,,,,,,,DM_en,001,2025-03-09_13h59.29.101,MainFlow,2024.2.4,143.93480328434595,2025-03-09 13h59.45.675052 +0700,
2,96,1,word/worden0961.png,image/True/img96.png,100,100,0,z,0.566382600023644,None,0,100,100,100,343.28014119999716,,,,,,,344.7779322999995,344.27948540000943,344.2828815000248,344.2828815000248,344.77304930001264,345.9030894000025,345.9030894000025,z,0.566382600023644,None,344.7779322999995,344.7779322999995,345.9030894000025,,,,,,,,DM_en,001,2025-03-09_13h59.29.101,MainFlow,2024.2.4,143.93480328434595,2025-03-09 13h59.45.675052 +0700,
2,64,1,word/worden0641.png,image/True/img64.png,101,101,0,z,0.4107853999885265,None,0,101,101,101,346.47892580000916,,,,,,,347.9718348000024,347.4792385000037,347.48279480001656,347.48279480001656,347.9661325000052,349.0605979000102,349.0605979000102,z,0.4107853999885265,None,347.9718348000024,347.9718348000024,349.0605979000102,,,,,,,,DM_en,001,2025-03-09_13h59.29.101,MainFlow,2024.2.4,143.93480328434595,2025-03-09 13h59.45.675052 +0700,
2,78,0,word/worden0781.png,image/False/imgf78.png,102,102,0,z,0.6870460000063758,None,0,102,102,102,349.4806079000118,,,,,,,350.97115580001264,350.4728873000131,350.4762060000212,350.4762060000212,350.9655185000156,352.05866010001046,352.05866010001046,z,0.6870460000063758,None,350.97115580001264,350.97115580001264,352.05866010001046,,,,,,,,DM_en,001,2025-03-09_13h59.29.101,MainFlow,2024.2.4,143.93480328434595,2025-03-09 13h59.45.675052 +0700,
2,20,0,word/worden0201.png,image/False/imgf20.png,103,103,0,x,0.7743677999824286,None,0,103,103,103,352.7555566000228,,,,,,,354.24136410001665,353.74282260000473,353.7456635000126,353.7456635000126,354.2359176000173,355.3890928000037,355.3890928000037,x,0.7743677999824286,None,354.24136410001665,354.24136410001665,355.3890928000037,,,,,,,,DM_en,001,2025-03-09_13h59.29.101,MainFlow,2024.2.4,143.93480328434595,2025-03-09 13h59.45.675052 +0700,
2,89,1,word/worden0891.png,image/True/img89.png,104,104,0,z,0.36060520002502017,None,0,104,104,104,356.17281090002507,,,,,,,357.66438580001704,357.1705265000055,357.17385260001174,357.17385260001174,357.65941800002474,358.7641096000152,358.7641096000152,z,0.36060520002502017,None,357.66438580001704,357.66438580001704,358.7641096000152,,,,,,,,DM_en,001,2025-03-09_13h59.29.101,MainFlow,2024.2.4,143.93480328434595,2025-03-09 13h59.45.675052 +0700,
2,59,0,word/worden0591.png,image/False/imgf59.png,105,105,0,x,0.6744031999842264,None,0,105,105,105,359.1372367000149,,,,,,,360.6429918000067,360.1477716000227,360.1523142000078,360.1523142000078,360.6365788000112,361.71888210001634,361.71888210001634,x,0.6744031999842264,None,,,360.1523142000078,,,,,,,,DM_en,001,2025-03-09_13h59.29.101,MainFlow,2024.2.4,143.93480328434595,2025-03-09 13h59.45.675052 +0700,
2,24,0,word/worden0241.png,image/False/imgf24.png,106,106,0,x,0.9173220999946352,None,0,106,106,106,362.4021236000117,,,,,,,363.9061480000091,363.4183595000068,363.42157350000343,363.42157350000343,363.8998867000046,365.00890190000064,365.00890190000064,x,0.9173220999946352,None,,,363.42157350000343,,,,,,,,DM_en,001,2025-03-09_13h59.29.101,MainFlow,2024.2.4,143.93480328434595,2025-03-09 13h59.45.675052 +0700,
2,28,0,word/worden0281.png,image/False/imgf28.png,107,107,0,x,0.6075869000051171,None,0,107,107,107,365.9335475000262,,,,,,,367.43327120001777,366.93607070000144,366.93998570000986,366.93998570000986,367.42753660000744,368.5396244000003,368.5396244000003,x,0.6075869000051171,None,367.43327120001777,367.43327120001777,,,,,,,,,DM_en,001,2025-03-09_13h59.29.101,MainFlow,2024.2.4,143.93480328434595,2025-03-09 13h59.45.675052 +0700,
2,15,0,word/worden0151.png,image/False/imgf15.png,108,108,0,x,0.6667447999934666,None,0,108,108,108,369.15516500000376,,,,,,,370.6477632000169,370.15489050000906,370.1577424000134,370.1577424000134,370.64182770001935,371.75291619999916,371.75291619999916,x,0.6667447999934666,None,370.6477632000169,370.6477632000169,371.75291619999916,,,,,,,,DM_en,001,2025-03-09_13h59.29.101,MainFlow,2024.2.4,143.93480328434595,2025-03-09 13h59.45.675052 +0700,
2,30,1,word/worden0301.png,image/True/img30.png,109,109,0,z,0.5771782999800052,None,0,109,109,109,372.433611800021,,,,,,,373.9330078000203,373.43415900002583,373.4369248000148,373.4369248000148,373.926764200005,375.0209415999998,375.0209415999998,z,0.5771782999800052,None,373.9330078000203,373.9330078000203,,,,,,,,,DM_en,001,2025-03-09_13h59.29.101,MainFlow,2024.2.4,143.93480328434595,2025-03-09 13h59.45.675052 +0700,
2,64,1,word/worden0641.png,image/True/img64.png,110,110,0,z,0.8348679000046104,None,0,110,110,110,375.60522670001956,,,,,,,377.09800130000804,376.599631900026,376.60285680001834,376.60285680001834,377.09251960000256,378.18271320001804,378.18271320001804,z,0.8348679000046104,None,377.09800130000804,377.09800130000804,378.18271320001804,,,,,,,,DM_en,001,2025-03-09_13h59.29.101,MainFlow,2024.2.4,143.93480328434595,2025-03-09 13h59.45.675052 +0700,
2,52,0,word/worden0521.png,image/False/imgf52.png,111,111,0,x,0.6535250000015367,None,0,111,111,111,379.0292555000051,,,,,,,380.5209628000157,380.02191870001843,380.0254168000247,380.0254168000247,380.51555219999864,381.6172605000029,381.6172605000029,x,0.6535250000015367,None,380.5209628000157,380.5209628000157,381.6172605000029,,,,,,,,DM_en,001,2025-03-09_13h59.29.101,MainFlow,2024.2.4,143.93480328434595,2025-03-09 13h59.45.675052 +0700,
2,33,1,word/worden0331.png,image/True/img33.png,112,112,0,z,0.39508719998411834,None,0,112,112,112,382.2775598000153,,,,,,,383.7775481000135,383.2816075000155,383.28535040002316,383.28535040002316,383.7724313000217,384.88931620001676,384.88931620001676,z,0.39508719998411834,None,383.7775481000135,383.7775481000135,,,,,,,,,DM_en,001,2025-03-09_13h59.29.101,MainFlow,2024.2.4,143.93480328434595,2025-03-09 13h59.45.675052 +0700,
2,23,1,word/worden0231.png,image/True/img23.png,113,113,0,z,0.3838934999948833,None,0,113,113,113,385.2908881000185,,,,,,,386.7906516000221,386.29294430001755,386.2966098000179,386.2966098000179,386.78518350000377,387.90128410002217,387.90128410002217,z,0.3838934999948833,None,386.7906516000221,386.7906516000221,,,,,,,,,DM_en,001,2025-03-09_13h59.29.101,MainFlow,2024.2.4,143.93480328434595,2025-03-09 13h59.45.675052 +0700,
2,11,1,word/worden0111.png,image/True/img11.png,114,114,0,z,2.1732362000038847,None,0,114,114,114,388.297333399998,,,,,,,389.78306410001824,389.28994390001753,389.29305690000183,389.29305690000183,389.77738660000614,390.93087209999794,390.93087209999794,z,2.1732362000038847,None,389.78306410001824,389.78306410001824,390.93087209999794,,,,,,,,DM_en,001,2025-03-09_13h59.29.101,MainFlow,2024.2.4,143.93480328434595,2025-03-09 13h59.45.675052 +0700,
2,22,1,word/worden0221.png,image/True/img22.png,115,115,0,z,0.6351452999806497,None,0,115,115,115,393.1156206000014,,,,,,,394.6086527000007,394.1113317999989,394.11480660000234,394.11480660000234,394.60362000000896,395.7446245000174,395.7446245000174,z,0.6351452999806497,None,394.6086527000007,394.6086527000007,395.7446245000174,,,,,,,,DM_en,001,2025-03-09_13h59.29.101,MainFlow,2024.2.4,143.93480328434595,2025-03-09 13h59.45.675052 +0700,
2,37,0,word/worden0371.png,image/False/imgf37.png,116,116,0,x,1.1749178000027314,None,0,116,116,116,396.38689890000387,,,,,,,397.88576780000585,397.3874587000173,397.39109129999997,397.39109129999997,397.8806591000175,399.0285996000166,399.0285996000166,x,1.1749178000027314,None,397.88576780000585,397.88576780000585,,,,,,,,,DM_en,001,2025-03-09_13h59.29.101,MainFlow,2024.2.4,143.93480328434595,2025-03-09 13h59.45.675052 +0700,
2,79,0,word/worden0791.png,image/False/imgf79.png,117,117,0,x,0.6622192999930121,None,0,117,117,117,400.21176679999917,,,,,,,401.70453470002394,401.21074980002595,401.21412980000605,401.21412980000605,401.69936890000827,402.84262290000333,402.84262290000333,x,0.6622192999930121,None,401.70453470002394,401.70453470002394,402.84262290000333,,,,,,,,DM_en,001,2025-03-09_13h59.29.101,MainFlow,2024.2.4,143.93480328434595,2025-03-09 13h59.45.675052 +0700,
2,56,1,word/worden0561.png,image/True/img56.png,118,118,0,z,0.8838965999893844,None,0,118,118,118,403.51657170002,,,,,,,405.0162643000076,404.5186066000024,404.52221260001534,404.52221260001534,405.0107749000017,406.13103410002077,406.13103410002077,z,0.8838965999893844,None,405.0162643000076,405.0162643000076,,,,,,,,,DM_en,001,2025-03-09_13h59.29.101,MainFlow,2024.2.4,143.93480328434595,2025-03-09 13h59.45.675052 +0700,
2,68,1,word/worden0681.png,image/True/img68.png,119,119,0,z,0.7147074000095017,None,0,119,119,119,407.0227178000205,,,,,,,408.5157580000232,408.01736840000376,408.0209928000113,408.0209928000113,408.5101446000044,409.60375510001904,409.60375510001904,z,0.7147074000095017,None,408.5157580000232,408.5157580000232,409.60375510001904,,,,,,,,DM_en,001,2025-03-09_13h59.29.101,MainFlow,2024.2.4,143.93480328434595,2025-03-09 13h59.45.675052 +0700,
2,27,0,word/worden0271.png,image/False/imgf27.png,120,120,0,x,0.8957594000094105,None,0,120,120,120,410.33010130000184,,,,,,,411.8207549000217,411.32823300000746,411.33168650002335,411.33168650002335,411.81619140002294,412.93131860002177,412.93131860002177,x,0.8957594000094105,None,411.8207549000217,411.8207549000217,412.93131860002177,,,,,,,,DM_en,001,2025-03-09_13h59.29.101,MainFlow,2024.2.4,143.93480328434595,2025-03-09 13h59.45.675052 +0700,
2,3,1,word/worden0031.png,image/True/img03.png,121,121,0,z,0.3869520000007469,None,0,121,121,121,413.8339840999979,,,,,,,415.3269734000205,414.83042830001796,414.8343287000025,414.8343287000025,415.3211327000172,416.45329900001525,416.45329900001525,z,0.3869520000007469,None,415.3269734000205,415.3269734000205,416.45329900001525,,,,,,,,DM_en,001,2025-03-09_13h59.29.101,MainFlow,2024.2.4,143.93480328434595,2025-03-09 13h59.45.675052 +0700,
2,38,0,word/worden0381.png,image/False/imgf38.png,122,122,0,x,0.7427925999800209,None,0,122,122,122,416.8473527000169,,,,,,,418.33999940002104,417.8434926000191,417.8468754000205,417.8468754000205,418.3343171000015,419.4970527999976,419.4970527999976,x,0.7427925999800209,None,418.33999940002104,418.33999940002104,419.4970527999976,,,,,,,,DM_en,001,2025-03-09_13h59.29.101,MainFlow,2024.2.4,143.93480328434595,2025-03-09 13h59.45.675052 +0700,
2,59,1,word/worden0591.png,image/True/img59.png,123,123,0,z,0.432062899984885,None,0,123,123,123,420.2494088000094,,,,,,,421.73524210002506,421.2423908000055,421.2457732000039,421.2457732000039,421.7296636000101,422.83976319999783,422.83976319999783,z,0.432062899984885,None,421.73524210002506,421.73524210002506,422.83976319999783,,,,,,,,DM_en,001,2025-03-09_13h59.29.101,MainFlow,2024.2.4,143.93480328434595,2025-03-09 13h59.45.675052 +0700,
2,18,1,word/worden0181.png,image/True/img18.png,124,124,0,z,0.3826225000084378,None,0,124,124,124,423.2857826000254,,,,,,,424.7900400000217,424.30281630001264,424.3061783000012,424.3061783000012,424.7836895000073,425.87756950000767,425.87756950000767,z,0.3826225000084378,None,,,424.3061783000012,,,,,,,,DM_en,001,2025-03-09_13h59.29.101,MainFlow,2024.2.4,143.93480328434595,2025-03-09 13h59.45.675052 +0700,
2,60,1,word/worden0601.png,image/True/img60.png,125,125,0,z,0.4175266999809537,None,0,125,125,125,426.26905010000337,,,,,,,427.76201800000854,427.26861680002185,427.27218800000264,427.27218800000264,427.75672730000224,428.8652670000156,428.8652670000156,z,0.4175266999809537,None,427.76201800000854,427.76201800000854,428.8652670000156,,,,,,,,DM_en,001,2025-03-09_13h59.29.101,MainFlow,2024.2.4,143.93480328434595,2025-03-09 13h59.45.675052 +0700,
2,9,1,word/worden0091.png,image/True/img09.png,126,126,0,x,0.6867592000053264,None,0,126,126,126,429.28928440000163,,,,,,,430.796210600005,430.30935530000716,430.3125735000067,430.3125735000067,430.78994930000044,431.8614927000017,431.8614927000017,x,0.6867592000053264,None,,,,,,,,,,,DM_en,001,2025-03-09_13h59.29.101,MainFlow,2024.2.4,143.93480328434595,2025-03-09 13h59.45.675052 +0700,
2,9,0,word/worden0091.png,image/False/imgf09.png,127,127,0,x,0.4359788000001572,None,0,127,127,127,432.5605622000003,,,,,,,434.05243280000286,433.56015120001393,433.56357019999996,433.56357019999996,434.0474594000261,435.151978400012,435.151978400012,x,0.4359788000001572,None,434.05243280000286,434.05243280000286,435.151978400012,,,,,,,,DM_en,001,2025-03-09_13h59.29.101,MainFlow,2024.2.4,143.93480328434595,2025-03-09 13h59.45.675052 +0700,
2,94,0,word/worden0941.png,image/False/imgf94.png,128,128,0,x,0.6258107000030577,None,0,128,128,128,435.60063510001055,,,,,,,437.09337010001764,436.6003289000073,436.60345310001867,436.60345310001867,437.08763490000274,438.2426010000054,438.2426010000054,x,0.6258107000030577,None,437.09337010001764,437.09337010001764,438.2426010000054,,,,,,,,DM_en,001,2025-03-09_13h59.29.101,MainFlow,2024.2.4,143.93480328434595,2025-03-09 13h59.45.675052 +0700,
2,66,1,word/worden0661.png,image/True/img66.png,129,129,0,z,0.47137539999675937,None,0,129,129,129,438.87781770000583,,,,,,,440.37076580000576,439.87562750000507,439.87911830001394,439.87911830001394,440.3650329000084,441.49140890000854,441.49140890000854,z,0.47137539999675937,None,440.37076580000576,440.37076580000576,441.49140890000854,,,,,,,,DM_en,001,2025-03-09_13h59.29.101,MainFlow,2024.2.4,143.93480328434595,2025-03-09 13h59.45.675052 +0700,
2,1,0,word/worden0011.png,image/False/imgf01.png,130,130,0,x,0.4864932000054978,None,0,130,130,130,441.97437969999737,,,,,,,443.474220300006,442.97701050000614,442.9807128000248,442.9807128000248,443.4686383000226,444.5682119000121,444.5682119000121,x,0.4864932000054978,None,443.474220300006,443.474220300006,,,,,,,,,DM_en,001,2025-03-09_13h59.29.101,MainFlow,2024.2.4,143.93480328434595,2025-03-09 13h59.45.675052 +0700,
2,89,0,word/worden0891.png,image/False/imgf89.png,131,131,0,x,1.5505995000130497,None,0,131,131,131,445.06390450001345,,,,,,,446.55692950001685,446.06089350002003,446.06420130000333,446.06420130000333,446.5515779000125,447.64935820002574,447.64935820002574,x,1.5505995000130497,None,446.55692950001685,446.55692950001685,447.64935820002574,,,,,,,,DM_en,001,2025-03-09_13h59.29.101,MainFlow,2024.2.4,143.93480328434595,2025-03-09 13h59.45.675052 +0700,
2,48,1,word/worden0481.png,image/True/img48.png,132,132,0,z,0.5300454999960493,None,0,132,132,132,449.2090706000163,,,,,,,450.69499960000394,450.20229310001014,450.2056349000195,450.2056349000195,450.68943670002045,451.8205096000165,451.8205096000165,z,0.5300454999960493,None,450.69499960000394,450.69499960000394,451.8205096000165,,,,,,,,DM_en,001,2025-03-09_13h59.29.101,MainFlow,2024.2.4,143.93480328434595,2025-03-09 13h59.45.675052 +0700,
2,63,0,word/worden0631.png,image/False/imgf63.png,133,133,0,x,0.5175785000028554,None,0,133,133,133,452.3613716000109,,,,,,,453.86788410000736,453.42240530002164,453.4252506000048,453.4252506000048,453.86152020000736,454.99538340000436,454.99538340000436,x,0.5175785000028554,None,,,,,,,,,,,DM_en,001,2025-03-09_13h59.29.101,MainFlow,2024.2.4,143.93480328434595,2025-03-09 13h59.45.675052 +0700,
2,23,1,word/worden0231.png,image/True/img23.png,134,134,0,z,0.6334395000012591,None,0,134,134,134,455.5203077000042,,,,,,,457.0200634000066,456.5268398000044,456.53082790001645,456.53082790001645,457.0146162000019,458.1335077000258,458.1335077000258,z,0.6334395000012591,None,457.0200634000066,457.0200634000066,,,,,,,,,DM_en,001,2025-03-09_13h59.29.101,MainFlow,2024.2.4,143.93480328434595,2025-03-09 13h59.45.675052 +0700,
2,40,0,word/worden0401.png,image/False/imgf40.png,135,135,0,x,0.6653032000176609,None,0,135,135,135,458.77667040002416,,,,,,,460.26955620001536,459.77580260002287,459.77929420000874,459.77929420000874,460.263836099999,461.3982574000256,461.3982574000256,x,0.6653032000176609,None,460.26955620001536,460.26955620001536,461.3982574000256,,,,,,,,DM_en,001,2025-03-09_13h59.29.101,MainFlow,2024.2.4,143.93480328434595,2025-03-09 13h59.45.675052 +0700,
2,52,1,word/worden0521.png,image/True/img52.png,136,136,0,z,0.4792578000051435,None,0,136,136,136,462.0757559000049,,,,,,,463.56756620001397,463.0698537999997,463.0730992000026,463.0730992000026,463.5623536000203,464.7143547000014,464.7143547000014,z,0.4792578000051435,None,463.56756620001397,463.56756620001397,464.7143547000014,,,,,,,,DM_en,001,2025-03-09_13h59.29.101,MainFlow,2024.2.4,143.93480328434595,2025-03-09 13h59.45.675052 +0700,
2,30,1,word/worden0301.png,image/True/img30.png,137,137,0,z,0.9312880999932531,None,0,137,137,137,465.202297300013,,,,,,,466.70569580001757,466.20887319999747,466.21248899999773,466.21248899999773,466.69934410002315,467.8008728999994,467.8008728999994,z,0.9312880999932531,None,,,466.21248899999773,,,,,,,,DM_en,001,2025-03-09_13h59.29.101,MainFlow,2024.2.4,143.93480328434595,2025-03-09 13h59.45.675052 +0700,
2,15,1,word/worden0151.png,image/True/img15.png,138,138,0,z,0.46368519999668933,None,0,138,138,138,468.7423107000068,,,,,,,470.2397169000178,469.7420286000124,469.745447400026,469.745447400026,470.23384320002515,471.379866400006,471.379866400006,z,0.46368519999668933,None,470.2397169000178,470.2397169000178,471.379866400006,,,,,,,,DM_en,001,2025-03-09_13h59.29.101,MainFlow,2024.2.4,143.93480328434595,2025-03-09 13h59.45.675052 +0700,
2,46,1,word/worden0461.png,image/True/img46.png,139,139,0,z,0.6327008999942336,None,0,139,139,139,471.8507545000175,,,,,,,473.35033290000865,472.85259910000605,472.8563327000011,472.8563327000011,473.34455400001025,474.48252730001695,474.48252730001695,z,0.6327008999942336,None,473.35033290000865,473.35033290000865,,,,,,,,,DM_en,001,2025-03-09_13h59.29.101,MainFlow,2024.2.4,143.93480328434595,2025-03-09 13h59.45.675052 +0700,
2,14,1,word/worden0141.png,image/True/img14.png,140,140,0,z,0.4571669999859296,None,0,140,140,140,475.12794679999934,,,,,,,476.6136756000051,476.11505340001895,476.11799120000796,476.11799120000796,476.6078984000196,477.7358865000133,477.7358865000133,z,0.4571669999859296,None,476.6136756000051,476.6136756000051,477.7358865000133,,,,,,,,DM_en,001,2025-03-09_13h59.29.101,MainFlow,2024.2.4,143.93480328434595,2025-03-09 13h59.45.675052 +0700,
2,66,0,word/worden0661.png,image/False/imgf66.png,141,141,0,x,0.5486021999968216,None,0,141,141,141,478.2034393000067,,,,,,,479.70326410001144,479.2070814000035,479.2108358000114,479.2108358000114,479.69756930001313,480.81006420002086,480.81006420002086,x,0.5486021999968216,None,479.70326410001144,479.70326410001144,,,,,,,,,DM_en,001,2025-03-09_13h59.29.101,MainFlow,2024.2.4,143.93480328434595,2025-03-09 13h59.45.675052 +0700,
2,46,0,word/worden0461.png,image/False/imgf46.png,142,142,0,x,0.4373534999904223,None,0,142,142,142,481.3694552000088,,,,,,,482.86233060000814,482.36485750001157,482.3676398000098,482.3676398000098,482.8562625000195,483.99223190001794,483.99223190001794,x,0.4373534999904223,None,482.86233060000814,482.86233060000814,483.99223190001794,,,,,,,,DM_en,001,2025-03-09_13h59.29.101,MainFlow,2024.2.4,143.93480328434595,2025-03-09 13h59.45.675052 +0700,
2,18,1,word/worden0181.png,image/True/img18.png,143,143,0,z,0.5014781999925617,None,0,143,143,143,484.43834770002286,,,,,,,485.93809700000565,485.43883670002106,485.44236030001775,485.44236030001775,485.9322792000021,487.02314110001316,487.02314110001316,z,0.5014781999925617,None,485.93809700000565,485.93809700000565,,,,,,,,,DM_en,001,2025-03-09_13h59.29.101,MainFlow,2024.2.4,143.93480328434595,2025-03-09 13h59.45.675052 +0700,
2,51,0,word/worden0511.png,image/False/imgf51.png,144,144,0,x,0.834162799990736,None,0,144,144,144,487.53518920001807,,,,,,,489.0348505000002,488.54073500001687,488.54447650001384,488.54447650001384,489.029709000024,490.13610130001325,490.13610130001325,x,0.834162799990736,None,489.0348505000002,489.0348505000002,,,,,,,,,DM_en,001,2025-03-09_13h59.29.101,MainFlow,2024.2.4,143.93480328434595,2025-03-09 13h59.45.675052 +0700,
2,76,1,word/worden0761.png,image/True/img76.png,145,145,0,z,0.8020814000046812,None,0,145,145,145,490.98139749999973,,,,,,,492.47901590002584,491.9820869000105,491.98594559999765,491.98594559999765,492.4735576000239,493.58272250002483,493.58272250002483,z,0.8020814000046812,None,492.47901590002584,492.47901590002584,493.58272250002483,,,,,,,,DM_en,001,2025-03-09_13h59.29.101,MainFlow,2024.2.4,143.93480328434595,2025-03-09 13h59.45.675052 +0700,
2,57,1,word/worden0571.png,image/True/img57.png,146,146,0,z,0.41974240000126883,None,0,146,146,146,494.3948511000199,,,,,,,495.89457050000783,495.39674870000454,495.40050230000634,495.40050230000634,495.88882439999725,497.0041728000215,497.0041728000215,z,0.41974240000126883,None,495.89457050000783,495.89457050000783,,,,,,,,,DM_en,001,2025-03-09_13h59.29.101,MainFlow,2024.2.4,143.93480328434595,2025-03-09 13h59.45.675052 +0700,
2,48,0,word/worden0481.png,image/False/imgf48.png,147,147,0,x,0.5960345000203233,None,0,147,147,147,497.435853700008,,,,,,,498.92860330000985,498.43479050000315,498.4384832000069,498.4384832000069,498.92274440001347,500.0683207999973,500.0683207999973,x,0.5960345000203233,None,498.92860330000985,498.92860330000985,500.0683207999973,,,,,,,,DM_en,001,2025-03-09_13h59.29.101,MainFlow,2024.2.4,143.93480328434595,2025-03-09 13h59.45.675052 +0700,
2,37,0,word/worden0371.png,image/False/imgf37.png,148,148,0,x,1.0252325000183191,None,0,148,148,148,500.67133880002075,,,,,,,502.1640573000186,501.6667639000225,501.67019289999735,501.67019289999735,502.15825160001987,503.31138040000224,503.31138040000224,x,1.0252325000183191,None,502.1640573000186,502.1640573000186,503.31138040000224,,,,,,,,DM_en,001,2025-03-09_13h59.29.101,MainFlow,2024.2.4,143.93480328434595,2025-03-09 13h59.45.675052 +0700,
2,60,0,word/worden0601.png,image/False/imgf60.png,149,149,0,x,0.7597991999937221,None,0,149,149,149,504.34424170001876,,,,,,,505.8300906000077,505.33154760001344,505.3342881000135,505.3342881000135,505.81738880000194,506.93811540000024,506.93811540000024,x,0.7597991999937221,None,505.8231156000111,505.8231156000111,506.93811540000024,,,,,,,,DM_en,001,2025-03-09_13h59.29.101,MainFlow,2024.2.4,143.93480328434595,2025-03-09 13h59.45.675052 +0700,
2,24,1,word/worden0241.png,image/True/img24.png,150,150,0,z,0.3819878999784123,None,0,150,150,150,507.70477480001864,,,,,,,509.19747450001887,508.7001546000247,508.7035131000157,508.7035131000157,509.1916345000209,510.2846897999989,510.2846897999989,z,0.3819878999784123,None,509.19747450001887,509.19747450001887,510.2846897999989,,,,,,,,DM_en,001,2025-03-09_13h59.29.101,MainFlow,2024.2.4,143.93480328434595,2025-03-09 13h59.45.675052 +0700,
2,40,1,word/worden0401.png,image/True/img40.png,151,151,0,z,0.9171530000166968,None,0,151,151,151,510.6763603000145,,,,,,,512.1692459000042,511.6740320000099,511.6776899000106,511.6776899000106,512.1634019000048,513.3244373000052,513.3244373000052,z,0.9171530000166968,None,512.1692459000042,512.1692459000042,513.3244373000052,,,,,,,,DM_en,001,2025-03-09_13h59.29.101,MainFlow,2024.2.4,143.93480328434595,2025-03-09 13h59.45.675052 +0700,
2,54,1,word/worden0541.png,image/True/img54.png,152,152,0,z,0.36853820001124404,None,0,152,152,152,514.2520457000064,,,,,,,515.7451024000184,515.2465164000168,515.2503711000027,515.2503711000027,515.7400295000116,516.8808079000155,516.8808079000155,z,0.36853820001124404,None,515.7451024000184,515.7451024000184,516.8808079000155,,,,,,,,DM_en,001,2025-03-09_13h59.29.101,MainFlow,2024.2.4,143.93480328434595,2025-03-09 13h59.45.675052 +0700,
2,44,0,word/worden0441.png,image/False/imgf44.png,153,153,0,x,0.522963500028709,None,0,153,153,153,517.2589472000254,,,,,,,518.7512838999974,518.2544651000062,518.2572470000014,518.2572470000014,518.7462682000187,519.8815546999977,519.8815546999977,x,0.522963500028709,None,518.7512838999974,518.7512838999974,519.8815546999977,,,,,,,,DM_en,001,2025-03-09_13h59.29.101,MainFlow,2024.2.4,143.93480328434595,2025-03-09 13h59.45.675052 +0700,
2,79,1,word/worden0791.png,image/True/img79.png,154,154,0,z,0.7353567000245675,None,0,154,154,154,520.4108857000247,,,,,,,521.9104941000114,521.412934699998,521.4164536000171,521.4164536000171,521.9052372000006,523.0244481000118,523.0244481000118,z,0.7353567000245675,None,521.9104941000114,521.9104941000114,,,,,,,,,DM_en,001,2025-03-09_13h59.29.101,MainFlow,2024.2.4,143.93480328434595,2025-03-09 13h59.45.675052 +0700,
2,95,1,word/worden0951.png,image/True/img95.png,155,155,0,z,0.41616999998223037,None,0,155,155,155,523.7715787000197,,,,,,,525.2638335000083,524.7703203000128,524.7736577000178,524.7736577000178,525.258290800004,526.385752800008,526.385752800008,z,0.41616999998223037,None,525.2638335000083,525.2638335000083,526.385752800008,,,,,,,,DM_en,001,2025-03-09_13h59.29.101,MainFlow,2024.2.4,143.93480328434595,2025-03-09 13h59.45.675052 +0700,
2,37,1,word/worden0371.png,image/True/img37.png,156,156,0,z,0.2915623000008054,None,0,156,156,156,526.8120787000225,,,,,,,528.2981066000066,527.8040240000119,527.8069271999993,527.8069271999993,528.2923640000226,529.4397707000026,529.4397707000026,z,0.2915623000008054,None,528.2981066000066,528.2981066000066,529.4397707000026,,,,,,,,DM_en,001,2025-03-09_13h59.29.101,MainFlow,2024.2.4,143.93480328434595,2025-03-09 13h59.45.675052 +0700,
2,70,1,word/worden0701.png,image/True/img70.png,157,157,0,z,0.394310299976496,None,0,157,157,157,529.7421089000127,,,,,,,531.234930400009,530.7375252000056,530.74089310001,530.74089310001,531.2294718000048,532.3457475000178,532.3457475000178,z,0.394310299976496,None,531.234930400009,531.234930400009,532.3457475000178,,,,,,,,DM_en,001,2025-03-09_13h59.29.101,MainFlow,2024.2.4,143.93480328434595,2025-03-09 13h59.45.675052 +0700,
2,40,1,word/worden0401.png,image/True/img40.png,158,158,0,z,0.5157990000152495,None,0,158,158,158,532.7485275000217,,,,,,,534.2413112000213,533.743149100017,533.7465070000035,533.7465070000035,534.2355295000016,535.3889502000238,535.3889502000238,z,0.5157990000152495,None,534.2413112000213,534.2413112000213,535.3889502000238,,,,,,,,DM_en,001,2025-03-09_13h59.29.101,MainFlow,2024.2.4,143.93480328434595,2025-03-09 13h59.45.675052 +0700,
2,30,0,word/worden0301.png,image/False/imgf30.png,159,159,0,x,0.6708282000035979,None,0,159,159,159,535.9146282000002,,,,,,,537.4072122000216,536.9144690000103,536.917891900026,536.917891900026,537.4012387999974,538.520735500002,538.520735500002,x,0.6708282000035979,None,537.4072122000216,537.4072122000216,538.520735500002,,,,,,,,DM_en,001,2025-03-09_13h59.29.101,MainFlow,2024.2.4,143.93480328434595,2025-03-09 13h59.45.675052 +0700,
2,88,1,word/worden0881.png,image/True/img88.png,160,160,0,z,0.6352955999900587,None,0,160,160,160,539.2010094000143,,,,,,,540.6914486000023,540.195573200006,540.1994033000083,540.1994033000083,540.6859004000144,541.8175309000071,541.8175309000071,z,0.6352955999900587,None,540.6914486000023,540.6914486000023,541.8175309000071,,,,,,,,DM_en,001,2025-03-09_13h59.29.101,MainFlow,2024.2.4,143.93480328434595,2025-03-09 13h59.45.675052 +0700,
2,15,1,word/worden0151.png,image/True/img15.png,161,161,0,z,1.1203301000059582,None,0,161,161,161,542.4618690000207,,,,,,,543.9478425999987,543.4491762000252,543.4520514000033,543.4520514000033,543.9358391000133,545.0805508000194,545.0805508000194,z,1.1203301000059582,None,543.9410287000064,543.9410287000064,545.0805508000194,,,,,,,,DM_en,001,2025-03-09_13h59.29.101,MainFlow,2024.2.4,143.93480328434595,2025-03-09 13h59.45.675052 +0700,
2,54,1,word/worden0541.png,image/True/img54.png,162,162,0,z,0.36835090001113713,None,0,162,162,162,546.212308200018,,,,,,,547.6971458000189,547.1992952,547.2020525000116,547.2020525000116,547.691639000026,548.8295756000152,548.8295756000152,z,0.36835090001113713,None,547.6971458000189,547.6971458000189,548.8295756000152,,,,,,,,DM_en,001,2025-03-09_13h59.29.101,MainFlow,2024.2.4,143.93480328434595,2025-03-09 13h59.45.675052 +0700,
2,11,0,word/worden0111.png,image/False/imgf11.png,163,163,0,x,0.5489512999774888,None,0,163,163,163,549.203672100004,,,,,,,550.6894996000046,550.1973335000221,550.2006386000139,550.2006386000139,550.684001000016,551.8281589000253,551.8281589000253,x,0.5489512999774888,None,550.6894996000046,550.6894996000046,551.8281589000253,,,,,,,,DM_en,001,2025-03-09_13h59.29.101,MainFlow,2024.2.4,143.93480328434595,2025-03-09 13h59.45.675052 +0700,
2,16,1,word/worden0161.png,image/True/img16.png,164,164,0,z,0.3486644999939017,None,0,164,164,164,552.3837071000016,,,,,,,553.8694128000061,553.3769469000108,553.3803913000156,553.3803913000156,553.8637463000196,555.0100724000076,555.0100724000076,z,0.3486644999939017,None,553.8694128000061,553.8694128000061,555.0100724000076,,,,,,,,DM_en,001,2025-03-09_13h59.29.101,MainFlow,2024.2.4,143.93480328434595,2025-03-09 13h59.45.675052 +0700,
2,1,1,word/worden0011.png,image/True/img01.png,165,165,0,z,0.433450599986827,None,0,165,165,165,555.3690638999979,,,,,,,556.8620410000149,556.3637836000125,556.3672885000124,556.3672885000124,556.8567596000212,557.989127000008,557.989127000008,z,0.433450599986827,None,556.8620410000149,556.8620410000149,557.989127000008,,,,,,,,DM_en,001,2025-03-09_13h59.29.101,MainFlow,2024.2.4,143.93480328434595,2025-03-09 13h59.45.675052 +0700,
2,22,0,word/worden0221.png,image/False/imgf22.png,166,166,0,x,0.7841665000014473,None,0,166,166,166,558.4333458000037,,,,,,,559.9240726999997,559.4302956000029,559.433771800017,559.433771800017,559.9188223000092,561.0549758000125,561.0549758000125,x,0.7841665000014473,None,559.9240726999997,559.9240726999997,561.0549758000125,,,,,,,,DM_en,001,2025-03-09_13h59.29.101,MainFlow,2024.2.4,143.93480328434595,2025-03-09 13h59.45.675052 +0700,
2,63,1,word/worden0631.png,image/True/img63.png,167,167,0,z,0.3977399000141304,None,0,167,167,167,561.8470173000242,,,,,,,563.3400053000078,562.841673900024,562.8451549000165,562.8451549000165,563.3349101000058,564.4555418000091,564.4555418000091,z,0.3977399000141304,None,563.3400053000078,563.3400053000078,564.4555418000091,,,,,,,,DM_en,001,2025-03-09_13h59.29.101,MainFlow,2024.2.4,143.93480328434595,2025-03-09 13h59.45.675052 +0700,
2,87,1,word/worden0871.png,image/True/img87.png,168,168,0,z,0.6348598999902606,None,0,168,168,168,564.8603776000091,,,,,,,566.3601737999998,565.865534600016,565.86923880002,565.86923880002,566.3550084000162,567.4805365000211,567.4805365000211,z,0.6348598999902606,None,566.3601737999998,566.3601737999998,,,,,,,,,DM_en,001,2025-03-09_13h59.29.101,MainFlow,2024.2.4,143.93480328434595,2025-03-09 13h59.45.675052 +0700,
2,57,0,word/worden0571.png,image/False/imgf57.png,169,169,0,x,1.2439130999846384,None,0,169,169,169,568.1239034000027,,,,,,,569.6165666000161,569.1239788000239,569.1274522000167,569.1274522000167,569.6114583000017,570.738064300007,570.738064300007,x,1.2439130999846384,None,569.6165666000161,569.6165666000161,570.738064300007,,,,,,,,DM_en,001,2025-03-09_13h59.29.101,MainFlow,2024.2.4,143.93480328434595,2025-03-09 13h59.45.675052 +0700,
2,94,0,word/worden0941.png,image/False/imgf94.png,170,170,0,x,0.8506636000238359,None,0,170,170,170,571.9915080000064,,,,,,,573.4836519000237,572.987521300005,572.9905402000004,572.9905402000004,573.4779186000233,574.6278652000183,574.6278652000183,x,0.8506636000238359,None,573.4836519000237,573.4836519000237,574.6278652000183,,,,,,,,DM_en,001,2025-03-09_13h59.29.101,MainFlow,2024.2.4,143.93480328434595,2025-03-09 13h59.45.675052 +0700,
2,93,0,word/worden0931.png,image/False/imgf93.png,171,171,0,x,0.5616252000036184,None,0,171,171,171,575.4920747000142,,,,,,,576.9968858000066,576.4982995000028,576.5021767000144,576.5021767000144,576.9904867000005,578.0877533000021,578.0877533000021,x,0.5616252000036184,None,,,576.5021767000144,,,,,,,,DM_en,001,2025-03-09_13h59.29.101,MainFlow,2024.2.4,143.93480328434595,2025-03-09 13h59.45.675052 +0700,
2,61,1,word/worden0611.png,image/True/img61.png,172,172,0,z,0.3663214000116568,None,0,172,172,172,578.6563194000046,,,,,,,580.1493919000204,579.6529795000097,579.6567609000194,579.6567609000194,580.1441376000002,581.2586733000062,581.2586733000062,z,0.3663214000116568,None,580.1493919000204,580.1493919000204,581.2586733000062,,,,,,,,DM_en,001,2025-03-09_13h59.29.101,MainFlow,2024.2.4,143.93480328434595,2025-03-09 13h59.45.675052 +0700,
2,28,1,word/worden0281.png,image/True/img28.png,173,173,0,z,0.3276356999995187,None,0,173,173,173,581.6348460000008,,,,,,,583.1277912000078,582.6321067000099,582.6354817000101,582.6354817000101,583.1227753999992,584.2606491000042,584.2606491000042,z,0.3276356999995187,None,583.1277912000078,583.1277912000078,584.2606491000042,,,,,,,,DM_en,001,2025-03-09_13h59.29.101,MainFlow,2024.2.4,143.93480328434595,2025-03-09 13h59.45.675052 +0700,
2,46,1,word/worden0461.png,image/True/img46.png,174,174,0,z,0.6013229000091087,None,0,174,174,174,584.5994521000248,,,,,,,586.0925200000056,585.5958398000221,585.5992015000083,585.5992015000083,586.0874477000034,587.2407756000175,587.2407756000175,z,0.6013229000091087,None,586.0925200000056,586.0925200000056,587.2407756000175,,,,,,,,DM_en,001,2025-03-09_13h59.29.101,MainFlow,2024.2.4,143.93480328434595,2025-03-09 13h59.45.675052 +0700,
2,22,1,word/worden0221.png,image/True/img22.png,175,175,0,z,0.41361800002050586,None,0,175,175,175,587.8517102000187,,,,,,,589.3419731000031,588.8462182000221,588.8490994000167,588.8490994000167,589.3375937000092,590.4838820000004,590.4838820000004,z,0.41361800002050586,None,589.3419731000031,589.3419731000031,590.4838820000004,,,,,,,,DM_en,001,2025-03-09_13h59.29.101,MainFlow,2024.2.4,143.93480328434595,2025-03-09 13h59.45.675052 +0700,
2,93,1,word/worden0931.png,image/True/img93.png,176,176,0,z,0.732913899992127,None,0,176,176,176,590.9039819000172,,,,,,,592.4039866000239,591.9093757000228,591.9133612000151,591.9133612000151,592.3988365000114,593.4949640000123,593.4949640000123,z,0.732913899992127,None,592.4039866000239,592.4039866000239,,,,,,,,,DM_en,001,2025-03-09_13h59.29.101,MainFlow,2024.2.4,143.93480328434595,2025-03-09 13h59.45.675052 +0700,
2,95,1,word/worden0951.png,image/True/img95.png,177,177,0,z,0.7926077999873087,None,0,177,177,177,594.23661610001,,,,,,,595.7294964000175,595.2350398999988,595.238457200001,595.238457200001,595.7239647000097,596.8661499000154,596.8661499000154,z,0.7926077999873087,None,595.7294964000175,595.7294964000175,596.8661499000154,,,,,,,,DM_en,001,2025-03-09_13h59.29.101,MainFlow,2024.2.4,143.93480328434595,2025-03-09 13h59.45.675052 +0700,
2,17,0,word/worden0171.png,image/False/imgf17.png,178,178,0,x,0.4049098000105005,None,0,178,178,178,597.6665694999974,,,,,,,599.1665092000039,598.6682636000041,598.6718784999975,598.6718784999975,599.1611913000233,600.2857133000216,600.2857133000216,x,0.4049098000105005,None,599.1665092000039,599.1665092000039,,,,,,,,,DM_en,001,2025-03-09_13h59.29.101,MainFlow,2024.2.4,143.93480328434595,2025-03-09 13h59.45.675052 +0700,
2,26,1,word/worden0261.png,image/True/img26.png,179,179,0,x,0.9620207000116352,None,0,179,179,179,600.7016042000032,,,,,,,602.1865390000166,601.6935648000217,601.6968495000037,601.6968495000037,602.1806355000008,603.3162262999977,603.3162262999977,x,0.9620207000116352,None,602.1865390000166,602.1865390000166,603.3162262999977,,,,,,,,DM_en,001,2025-03-09_13h59.29.101,MainFlow,2024.2.4,143.93480328434595,2025-03-09 13h59.45.675052 +0700,
2,27,1,word/worden0271.png,image/True/img27.png,180,180,0,z,1.9237481000018306,None,0,180,180,180,604.2904366000148,,,,,,,605.7760923000169,605.2837445000187,605.2870761000086,605.2870761000086,605.7708902000159,606.8806571000023,606.8806571000023,z,1.9237481000018306,None,605.7760923000169,605.7760923000169,606.8806571000023,,,,,,,,DM_en,001,2025-03-09_13h59.29.101,MainFlow,2024.2.4,143.93480328434595,2025-03-09 13h59.45.675052 +0700,
2,31,1,word/worden0311.png,image/True/img31.png,181,181,0,z,0.7467757000122219,None,0,181,181,181,608.8101673000201,,,,,,,610.3099560000119,609.8107021000178,609.814505700022,609.814505700022,610.3043868000095,611.4147056000074,611.4147056000074,z,0.7467757000122219,None,610.3099560000119,610.3099560000119,,,,,,,,,DM_en,001,2025-03-09_13h59.29.101,MainFlow,2024.2.4,143.93480328434595,2025-03-09 13h59.45.675052 +0700,
2,33,0,word/worden0331.png,image/False/imgf33.png,182,182,0,x,0.5701562000031117,None,0,182,182,182,612.1708422000229,,,,,,,613.6635727000248,613.1661446000217,613.1694968000229,613.1694968000229,613.6582506000123,614.7786225000164,614.7786225000164,x,0.5701562000031117,None,613.6635727000248,613.6635727000248,614.7786225000164,,,,,,,,DM_en,001,2025-03-09_13h59.29.101,MainFlow,2024.2.4,143.93480328434595,2025-03-09 13h59.45.675052 +0700,
2,59,1,word/worden0591.png,image/True/img59.png,183,183,0,z,0.5294260999944527,None,0,183,183,183,615.3575595000002,,,,,,,616.8503305000195,616.3531037000066,616.3566853000084,616.3566853000084,616.8445837000036,617.9532357999997,617.9532357999997,z,0.5294260999944527,None,616.8503305000195,616.8503305000195,617.9532357999997,,,,,,,,DM_en,001,2025-03-09_13h59.29.101,MainFlow,2024.2.4,143.93480328434595,2025-03-09 13h59.45.675052 +0700,
2,8,1,word/worden0081.png,image/True/img08.png,184,184,0,x,1.4496373000147287,None,0,184,184,184,618.4888778000022,,,,,,,619.9818735000154,619.4849199000164,619.4878060000192,619.4878060000192,619.9765603000124,621.0808048000035,621.0808048000035,x,1.4496373000147287,None,619.9818735000154,619.9818735000154,621.0808048000035,,,,,,,,DM_en,001,2025-03-09_13h59.29.101,MainFlow,2024.2.4,143.93480328434595,2025-03-09 13h59.45.675052 +0700,
2,63,0,word/worden0631.png,image/False/imgf63.png,185,185,0,x,0.7417522000032477,None,0,185,185,185,622.5367187000229,,,,,,,624.0365395999979,623.5377825000032,623.5414538000186,623.5414538000186,624.0307466000086,625.1530984000128,625.1530984000128,x,0.7417522000032477,None,624.0365395999979,624.0365395999979,,,,,,,,,DM_en,001,2025-03-09_13h59.29.101,MainFlow,2024.2.4,143.93480328434595,2025-03-09 13h59.45.675052 +0700,
2,30,0,word/worden0301.png,image/False/imgf30.png,186,186,0,x,0.7306735999882221,None,0,186,186,186,625.9041111000115,,,,,,,627.3968721000128,626.8993717000121,626.9026452000253,626.9026452000253,627.3909138000163,628.509475800005,628.509475800005,x,0.7306735999882221,None,627.3968721000128,627.3968721000128,628.509475800005,,,,,,,,DM_en,001,2025-03-09_13h59.29.101,MainFlow,2024.2.4,143.93480328434595,2025-03-09 13h59.45.675052 +0700,
2,15,0,word/worden0151.png,image/False/imgf15.png,187,187,0,x,0.5820005999994464,None,0,187,187,187,629.25075560002,,,,,,,630.7365533999982,630.2430601000087,630.2464269000047,630.2464269000047,630.7308078000206,631.8474069000222,631.8474069000222,x,0.5820005999994464,None,630.7365533999982,630.7365533999982,631.8474069000222,,,,,,,,DM_en,001,2025-03-09_13h59.29.101,MainFlow,2024.2.4,143.93480328434595,2025-03-09 13h59.45.675052 +0700,
2,71,0,word/worden0711.png,image/False/imgf71.png,188,188,0,x,0.774092700012261,None,0,188,188,188,632.4376839000033,,,,,,,633.9303871000011,633.4328692000126,633.4363415999978,633.4363415999978,633.9246692000015,635.0689639000047,635.0689639000047,x,0.774092700012261,None,633.9303871000011,633.9303871000011,635.0689639000047,,,,,,,,DM_en,001,2025-03-09_13h59.29.101,MainFlow,2024.2.4,143.93480328434595,2025-03-09 13h59.45.675052 +0700,
2,10,0,word/worden0101.png,image/False/imgf10.png,189,189,0,x,0.7597631000098772,None,0,189,189,189,635.853685900016,,,,,,,637.3463002000062,636.8493683999986,636.852780700021,636.852780700021,637.340617400012,638.4681237000041,638.4681237000041,x,0.7597631000098772,None,637.3463002000062,637.3463002000062,638.4681237000041,,,,,,,,DM_en,001,2025-03-09_13h59.29.101,MainFlow,2024.2.4,143.93480328434595,2025-03-09 13h59.45.675052 +0700,
2,54,0,word/worden0541.png,image/False/imgf54.png,190,190,0,x,0.827511500014225,None,0,190,190,190,639.2349145000044,,,,,,,640.7276653000154,640.2310811000061,640.2347498000017,640.2347498000017,640.7218261000235,641.8382244000095,641.8382244000095,x,0.827511500014225,None,640.7276653000154,640.7276653000154,641.8382244000095,,,,,,,,DM_en,001,2025-03-09_13h59.29.101,MainFlow,2024.2.4,143.93480328434595,2025-03-09 13h59.45.675052 +0700,
2,60,0,word/worden0601.png,image/False/imgf60.png,191,191,0,x,0.5921196999843232,None,0,191,191,191,642.6731731000182,,,,,,,644.1716745000158,643.6729556000209,643.6767889000184,643.6767889000184,644.1665159000258,645.2865807000198,645.2865807000198,x,0.5921196999843232,None,644.1716745000158,644.1716745000158,645.2865807000198,,,,,,,,DM_en,001,2025-03-09_13h59.29.101,MainFlow,2024.2.4,143.93480328434595,2025-03-09 13h59.45.675052 +0700,
2,16,0,word/worden0161.png,image/False/imgf16.png,192,192,0,x,0.4634679999726359,None,0,192,192,192,645.8882201000233,,,,,,,647.3722750000015,646.8768467000045,646.8797978000075,646.8797978000075,647.3670251000149,648.5002364000247,648.5002364000247,x,0.4634679999726359,None,647.3722750000015,647.3722750000015,648.5002364000247,,,,,,,,DM_en,001,2025-03-09_13h59.29.101,MainFlow,2024.2.4,143.93480328434595,2025-03-09 13h59.45.675052 +0700,
2,50,1,word/worden0501.png,image/True/img50.png,193,193,0,z,0.715729099989403,None,0,193,193,193,648.9721330000029,,,,,,,650.4688245000143,649.973235100013,649.9760872000188,649.9760872000188,650.4631521000119,651.5999130000127,651.5999130000127,z,0.715729099989403,None,650.4688245000143,650.4688245000143,651.5999130000127,,,,,,,,DM_en,001,2025-03-09_13h59.29.101,MainFlow,2024.2.4,143.93480328434595,2025-03-09 13h59.45.675052 +0700,
2,63,1,word/worden0631.png,image/True/img63.png,194,194,0,z,0.7345581999979913,None,0,194,194,194,652.3227874000149,,,,,,,653.8154863000091,653.3199456000002,653.3231991000066,653.3231991000066,653.8096839000063,654.9427433000237,654.9427433000237,z,0.7345581999979913,None,653.8154863000091,653.8154863000091,654.9427433000237,,,,,,,,DM_en,001,2025-03-09_13h59.29.101,MainFlow,2024.2.4,143.93480328434595,2025-03-09 13h59.45.675052 +0700,
2,24,0,word/worden0241.png,image/False/imgf24.png,195,195,0,x,0.47135659999912605,None,0,195,195,195,655.6831402000098,,,,,,,657.1689583000261,656.6748756000015,656.6777296000218,656.6777296000218,657.1634414000146,658.2734638999973,658.2734638999973,x,0.47135659999912605,None,657.1689583000261,657.1689583000261,658.2734638999973,,,,,,,,DM_en,001,2025-03-09_13h59.29.101,MainFlow,2024.2.4,143.93480328434595,2025-03-09 13h59.45.675052 +0700,
2,89,0,word/worden0891.png,image/False/imgf89.png,196,196,0,x,2.2640054999792483,None,0,196,196,196,658.7518768000009,,,,,,,660.2378404000192,659.7394732000248,659.7423050000216,659.7423050000216,660.2319131999975,661.3458227000083,661.3458227000083,x,2.2640054999792483,None,660.2378404000192,660.2378404000192,661.3458227000083,,,,,,,,DM_en,001,2025-03-09_13h59.29.101,MainFlow,2024.2.4,143.93480328434595,2025-03-09 13h59.45.675052 +0700,
2,6,0,word/worden0061.png,image/False/imgf06.png,197,197,0,x,0.4094840999750886,None,0,197,197,197,663.6190617000102,,,,,,,665.111755400023,664.6191213999991,664.6226515000162,664.6226515000162,665.1055677000259,666.198043500015,666.198043500015,x,0.4094840999750886,None,665.111755400023,665.111755400023,666.198043500015,,,,,,,,DM_en,001,2025-03-09_13h59.29.101,MainFlow,2024.2.4,143.93480328434595,2025-03-09 13h59.45.675052 +0700,
2,41,0,word/worden0411.png,image/False/imgf41.png,198,198,0,z,0.7855319999798667,None,0,198,198,198,666.6185243000218,,,,,,,668.111435800005,667.6187168000033,667.6223408000078,667.6223408000078,668.1065812000015,669.1943874999997,669.1943874999997,z,0.7855319999798667,None,668.111435800005,668.111435800005,669.1943874999997,,,,,,,,DM_en,001,2025-03-09_13h59.29.101,MainFlow,2024.2.4,143.93480328434595,2025-03-09 13h59.45.675052 +0700,
2,79,0,word/worden0791.png,image/False/imgf79.png,199,199,0,x,0.5005536999960896,None,0,199,199,199,669.9870010000013,,,,,,,671.4719488999981,670.9797362000099,670.9830401000218,670.9830401000218,671.4667001000198,672.6065984000161,672.6065984000161,x,0.5005536999960896,None,671.4719488999981,671.4719488999981,672.6065984000161,,,,,,,,DM_en,001,2025-03-09_13h59.29.101,MainFlow,2024.2.4,143.93480328434595,2025-03-09 13h59.45.675052 +0700,
2,70,1,word/worden0701.png,image/True/img70.png,200,200,0,z,0.3957083999994211,None,0,200,200,200,673.1172328000248,,,,,,,674.6099768000131,674.1127718000207,674.116145100008,674.116145100008,674.604306400026,675.7282309000148,675.7282309000148,z,0.3957083999994211,None,674.6099768000131,674.6099768000131,675.7282309000148,,,,,,,,DM_en,001,2025-03-09_13h59.29.101,MainFlow,2024.2.4,143.93480328434595,2025-03-09 13h59.45.675052 +0700,
2,31,1,word/worden0311.png,image/True/img31.png,201,201,0,z,0.784332400013227,None,0,201,201,201,676.1306886000093,,,,,,,677.6163252000115,677.1241434000258,677.1271066000045,677.1271066000045,677.6105135000253,678.7252855999977,678.7252855999977,z,0.784332400013227,None,677.6163252000115,677.6163252000115,678.7252855999977,,,,,,,,DM_en,001,2025-03-09_13h59.29.101,MainFlow,2024.2.4,143.93480328434595,2025-03-09 13h59.45.675052 +0700,
2,9,1,word/worden0091.png,image/True/img09.png,202,202,0,x,1.3188528000027873,None,0,202,202,202,679.5188710000075,,,,,,,681.0047227000177,680.5059139000077,680.5089006000198,680.5089006000198,680.9995587000158,682.0858387000044,682.0858387000044,x,1.3188528000027873,None,681.0047227000177,681.0047227000177,682.0858387000044,,,,,,,,DM_en,001,2025-03-09_13h59.29.101,MainFlow,2024.2.4,143.93480328434595,2025-03-09 13h59.45.675052 +0700,
2,27,1,word/worden0271.png,image/True/img27.png,203,203,0,x,0.7472850999911316,None,0,203,203,203,683.4138953000074,,,,,,,684.9066633000039,684.4082904000243,684.411964400002,684.411964400002,684.9011369000073,686.0157392000256,686.0157392000256,x,0.7472850999911316,None,684.9066633000039,684.9066633000039,686.0157392000256,,,,,,,,DM_en,001,2025-03-09_13h59.29.101,MainFlow,2024.2.4,143.93480328434595,2025-03-09 13h59.45.675052 +0700,
2,75,0,word/worden0751.png,image/False/imgf75.png,204,204,0,x,0.6256231000006665,None,0,204,204,204,686.7769646000233,,,,,,,688.2672698000097,687.7740366000216,687.7769190000254,687.7769190000254,688.2618816000177,689.3781639000226,689.3781639000226,x,0.6256231000006665,None,688.2672698000097,688.2672698000097,689.3781639000226,,,,,,,,DM_en,001,2025-03-09_13h59.29.101,MainFlow,2024.2.4,143.93480328434595,2025-03-09 13h59.45.675052 +0700,
2,87,0,word/worden0871.png,image/False/imgf87.png,205,205,0,x,0.6911694000009447,None,0,205,205,205,690.0097919999971,,,,,,,691.5028068000101,691.0052611000137,691.008697000012,691.008697000012,691.4967780000006,692.5974707000132,692.5974707000132,x,0.6911694000009447,None,691.5028068000101,691.5028068000101,692.5974707000132,,,,,,,,DM_en,001,2025-03-09_13h59.29.101,MainFlow,2024.2.4,143.93480328434595,2025-03-09 13h59.45.675052 +0700,
2,8,0,word/worden0081.png,image/False/imgf08.png,206,206,0,x,0.744915100018261,None,0,206,206,206,693.3008301000227,,,,,,,694.7936031999998,694.2969657000212,694.3003516000172,694.3003516000172,694.7879132000089,695.8968532000144,695.8968532000144,x,0.744915100018261,None,694.7936031999998,694.7936031999998,695.8968532000144,,,,,,,,DM_en,001,2025-03-09_13h59.29.101,MainFlow,2024.2.4,143.93480328434595,2025-03-09 13h59.45.675052 +0700,
2,24,1,word/worden0241.png,image/True/img24.png,207,207,0,z,0.39745429999311455,None,0,207,207,207,696.6512232000241,,,,,,,698.1541734000202,697.657314800017,697.6609869000094,697.6609869000094,698.1476612999977,699.2329853000119,699.2329853000119,z,0.39745429999311455,None,,,,,,,,,,,DM_en,001,2025-03-09_13h59.29.101,MainFlow,2024.2.4,143.93480328434595,2025-03-09 13h59.45.675052 +0700,
2,14,1,word/worden0141.png,image/True/img14.png,208,208,0,z,0.4160649999976158,None,0,208,208,208,699.6399261000042,,,,,,,701.1396383000247,700.6423520000244,700.6461328000005,700.6461328000005,701.1338582000171,702.2526202000154,702.2526202000154,z,0.4160649999976158,None,701.1396383000247,701.1396383000247,,,,,,,,,DM_en,001,2025-03-09_13h59.29.101,MainFlow,2024.2.4,143.93480328434595,2025-03-09 13h59.45.675052 +0700,
2,87,1,word/worden0871.png,image/True/img87.png,209,209,0,z,0.43272770001203753,None,0,209,209,209,702.680838100001,,,,,,,704.1740066000202,703.6776760000212,703.6814639000222,703.6814639000222,704.1687297000026,705.3046005000069,705.3046005000069,z,0.43272770001203753,None,704.1740066000202,704.1740066000202,705.3046005000069,,,,,,,,DM_en,001,2025-03-09_13h59.29.101,MainFlow,2024.2.4,143.93480328434595,2025-03-09 13h59.45.675052 +0700,
2,42,0,word/worden0421.png,image/False/imgf42.png,210,210,0,x,0.5077992999868002,None,0,210,210,210,705.7498170000035,,,,,,,707.2426444000157,706.7462799000205,706.7499687000236,706.7499687000236,707.236939800001,708.3737559000147,708.3737559000147,x,0.5077992999868002,None,707.2426444000157,707.2426444000157,708.3737559000147,,,,,,,,DM_en,001,2025-03-09_13h59.29.101,MainFlow,2024.2.4,143.93480328434595,2025-03-09 13h59.45.675052 +0700,
2,48,0,word/worden0481.png,image/False/imgf48.png,211,211,0,x,0.9317733999923803,None,0,211,211,211,708.8880062000244,,,,,,,710.3877184000157,709.8912823999999,709.8949562000053,709.8949562000053,710.3829996999993,711.5185738000146,711.5185738000146,x,0.9317733999923803,None,710.3877184000157,710.3877184000157,,,,,,,,,DM_en,001,2025-03-09_13h59.29.101,MainFlow,2024.2.4,143.93480328434595,2025-03-09 13h59.45.675052 +0700,
2,56,0,word/worden0561.png,image/False/imgf56.png,212,212,0,x,0.5611558000091463,None,0,212,212,212,712.4569474000018,,,,,,,713.9496357000025,713.4509459000255,713.4541879000026,713.4541879000026,713.9435462000256,715.0944862000179,715.0944862000179,x,0.5611558000091463,None,713.9496357000025,713.9496357000025,715.0944862000179,,,,,,,,DM_en,001,2025-03-09_13h59.29.101,MainFlow,2024.2.4,143.93480328434595,2025-03-09 13h59.45.675052 +0700,
2,18,0,word/worden0181.png,image/False/imgf18.png,213,213,0,x,0.7268645000003744,None,0,213,213,213,715.6671366000082,,,,,,,717.1573942000105,716.6602860999992,716.6630872000242,716.6630872000242,717.1514194000047,718.256693400006,718.256693400006,x,0.7268645000003744,None,717.1573942000105,717.1573942000105,718.256693400006,,,,,,,,DM_en,001,2025-03-09_13h59.29.101,MainFlow,2024.2.4,143.93480328434595,2025-03-09 13h59.45.675052 +0700,
2,18,0,word/worden0181.png,image/False/imgf18.png,214,214,0,x,0.5795334999857005,None,0,214,214,214,718.9904214999988,,,,,,,720.4834048000048,719.9865468000062,719.9903583000123,719.9903583000123,720.4775703000196,721.6051812000223,721.6051812000223,x,0.5795334999857005,None,720.4834048000048,720.4834048000048,721.6051812000223,,,,,,,,DM_en,001,2025-03-09_13h59.29.101,MainFlow,2024.2.4,143.93480328434595,2025-03-09 13h59.45.675052 +0700,
2,9,0,word/worden0091.png,image/False/imgf09.png,215,215,0,x,0.5245849000057206,None,0,215,215,215,722.1909477000008,,,,,,,723.6838843000005,723.1865668000246,723.1900401000166,723.1900401000166,723.6778777000145,724.7651194000209,724.7651194000209,x,0.5245849000057206,None,723.6838843000005,723.6838843000005,724.7651194000209,,,,,,,,DM_en,001,2025-03-09_13h59.29.101,MainFlow,2024.2.4,143.93480328434595,2025-03-09 13h59.45.675052 +0700,
2,55,0,word/worden0551.png,image/False/imgf55.png,216,216,0,x,0.7472437999967951,None,0,216,216,216,725.3015907000226,,,,,,,726.7874761999992,726.2886945000209,726.2913824999996,726.2913824999996,726.7754894000245,727.9085868000111,727.9085868000111,x,0.7472437999967951,None,726.7805101000122,726.7805101000122,727.9085868000111,,,,,,,,DM_en,001,2025-03-09_13h59.29.101,MainFlow,2024.2.4,143.93480328434595,2025-03-09 13h59.45.675052 +0700,
2,17,0,word/worden0171.png,image/False/imgf17.png,217,217,0,x,1.009285700012697,None,0,217,217,217,728.6620223000064,,,,,,,730.1548351000238,729.6609164999973,729.664305400016,729.664305400016,730.1492055999988,731.2859938000038,731.2859938000038,x,1.009285700012697,None,730.1548351000238,730.1548351000238,731.2859938000038,,,,,,,,DM_en,001,2025-03-09_13h59.29.101,MainFlow,2024.2.4,143.93480328434595,2025-03-09 13h59.45.675052 +0700,
2,50,1,word/worden0501.png,image/True/img50.png,218,218,0,z,0.4514023000083398,None,0,218,218,218,732.3073730000178,,,,,,,733.8000825000054,733.3023169000226,733.305648700014,733.305648700014,733.7950377000088,734.9257551000046,734.9257551000046,z,0.4514023000083398,None,733.8000825000054,733.8000825000054,734.9257551000046,,,,,,,,DM_en,001,2025-03-09_13h59.29.101,MainFlow,2024.2.4,143.93480328434595,2025-03-09 13h59.45.675052 +0700,
2,20,0,word/worden0201.png,image/False/imgf20.png,219,219,0,x,0.4315309000085108,None,0,219,219,219,735.383289600024,,,,,,,736.8827224000124,736.3842805000022,736.3879455999995,736.3879455999995,736.87696590001,738.018740200001,738.018740200001,x,0.4315309000085108,None,736.8827224000124,736.8827224000124,,,,,,,,,DM_en,001,2025-03-09_13h59.29.101,MainFlow,2024.2.4,143.93480328434595,2025-03-09 13h59.45.675052 +0700,
2,36,0,word/worden0361.png,image/False/imgf36.png,220,220,0,x,0.5594545000058133,None,0,220,220,220,738.4614413000236,,,,,,,739.9515477000095,739.45610760001,739.4595516000118,739.4595516000118,739.9459458000201,741.070323300024,741.070323300024,x,0.5594545000058133,None,739.9515477000095,739.9515477000095,741.070323300024,,,,,,,,DM_en,001,2025-03-09_13h59.29.101,MainFlow,2024.2.4,143.93480328434595,2025-03-09 13h59.45.675052 +0700,
2,7,0,word/worden0071.png,image/False/imgf07.png,221,221,0,x,0.49575679999543354,None,0,221,221,221,741.6386684000026,,,,,,,743.1245481000224,742.6309600000095,742.6341045000008,742.6341045000008,743.118501000019,744.2453559999994,744.2453559999994,x,0.49575679999543354,None,743.1245481000224,743.1245481000224,744.2453559999994,,,,,,,,DM_en,001,2025-03-09_13h59.29.101,MainFlow,2024.2.4,143.93480328434595,2025-03-09 13h59.45.675052 +0700,
2,7,1,word/worden0071.png,image/True/img07.png,222,222,0,z,1.5462663999933284,None,0,222,222,222,744.7492332000111,,,,,,,746.242027100001,745.748333800002,745.7517045999994,745.7517045999994,746.2364869000157,747.3496546000242,747.3496546000242,z,1.5462663999933284,None,746.242027100001,746.242027100001,747.3496546000242,,,,,,,,DM_en,001,2025-03-09_13h59.29.101,MainFlow,2024.2.4,143.93480328434595,2025-03-09 13h59.45.675052 +0700,
2,70,0,word/worden0701.png,image/False/imgf70.png,223,223,0,x,0.45346150000113994,None,0,223,223,223,748.9082505000115,,,,,,,750.4010141000035,749.9076206000173,749.9110677000135,749.9110677000135,750.3951852000027,751.4926254000165,751.4926254000165,x,0.45346150000113994,None,750.4010141000035,750.4010141000035,751.4926254000165,,,,,,,,DM_en,001,2025-03-09_13h59.29.101,MainFlow,2024.2.4,143.93480328434595,2025-03-09 13h59.45.675052 +0700,
2,68,0,word/worden0681.png,image/False/imgf68.png,224,224,0,x,0.72401850001188,None,0,224,224,224,751.9592498000129,,,,,,,753.4558500999992,752.9579136000248,752.9607662000053,752.9607662000053,753.4500311000156,754.5460457000008,754.5460457000008,x,0.72401850001188,None,753.4558500999992,753.4558500999992,754.5460457000008,,,,,,,,DM_en,001,2025-03-09_13h59.29.101,MainFlow,2024.2.4,143.93480328434595,2025-03-09 13h59.45.675052 +0700,
2,23,0,word/worden0231.png,image/False/imgf23.png,225,225,0,x,0.4811655000085011,None,0,225,225,225,755.2835822000052,,,,,,,756.7747366999974,756.2809807000158,756.2839431000175,756.2839431000175,756.7695106000174,757.9216749000188,757.9216749000188,x,0.4811655000085011,None,756.7747366999974,756.7747366999974,757.9216749000188,,,,,,,,DM_en,001,2025-03-09_13h59.29.101,MainFlow,2024.2.4,143.93480328434595,2025-03-09 13h59.45.675052 +0700,
2,56,0,word/worden0561.png,image/False/imgf56.png,226,226,0,x,0.5543663999997079,None,0,226,226,226,758.4138851000171,,,,,,,759.8993551000021,759.4036692000227,759.4065297000052,759.4065297000052,759.8941237000108,761.0397691000253,761.0397691000253,x,0.5543663999997079,None,759.8993551000021,759.8993551000021,761.0397691000253,,,,,,,,DM_en,001,2025-03-09_13h59.29.101,MainFlow,2024.2.4,143.93480328434595,2025-03-09 13h59.45.675052 +0700,
2,17,1,word/worden0171.png,image/True/img17.png,227,227,0,z,0.5926813999831211,None,0,227,227,227,761.602899999998,,,,,,,763.0999140000204,762.603940800007,762.6067231000052,762.6067231000052,763.0941133000015,764.2034178000176,764.2034178000176,z,0.5926813999831211,None,763.0999140000204,763.0999140000204,764.2034178000176,,,,,,,,DM_en,001,2025-03-09_13h59.29.101,MainFlow,2024.2.4,143.93480328434595,2025-03-09 13h59.45.675052 +0700,
2,94,1,word/worden0941.png,image/True/img94.png,228,228,0,z,0.6850322000100277,None,0,228,228,228,764.8078228000086,,,,,,,766.3007426999975,765.8081120999996,765.8114531000028,765.8114531000028,766.2951999000215,767.4173072999984,767.4173072999984,z,0.6850322000100277,None,766.3007426999975,766.3007426999975,767.4173072999984,,,,,,,,DM_en,001,2025-03-09_13h59.29.101,MainFlow,2024.2.4,143.93480328434595,2025-03-09 13h59.45.675052 +0700,
2,96,0,word/worden0961.png,image/False/imgf96.png,229,229,0,x,0.7589173000014853,None,0,229,229,229,768.1127481000149,,,,,,,769.6124723000103,769.1156045000243,769.1192414000107,769.1192414000107,769.6067434000142,770.7255704000127,770.7255704000127,x,0.7589173000014853,None,769.6124723000103,769.6124723000103,,,,,,,,,DM_en,001,2025-03-09_13h59.29.101,MainFlow,2024.2.4,143.93480328434595,2025-03-09 13h59.45.675052 +0700,
