lang,wordid,truestate,worddir,imgdir,thisN,thisTrialN,thisRepN,key_resp.keys,key_resp.rt,key_resp.duration,trials.thisRepN,trials.thisTrialN,trials.thisN,trials.thisIndex,thisRow.t,notes,tutorial.started,tutorial.stopped,key_instruct.keys,key_instruct.rt,key_instruct.duration,plusblank.started,wordshow.started,image.started,plsuer.started,wordshow.stopped,imageword.started,key_resp.started,trials.key_resp.keys,trials.key_resp.rt,trials.key_resp.duration,plusblank.stopped,image.stopped,plsuer.stopped,ending.started,text_3.started,ending_key.started,ending.stopped,ending_key.keys,ending_key.rt,ending_key.duration,participant,session,date,expName,psychopyVersion,frameRate,expStart,
,,,,,,,,,,,,,,,,,0.005802699999549077,2.3955643999997847,space,2.3488275999998223,None,,,,,,,,,,,,,,,,,,,,,NU_th,001,2025-03-07_12h23.12.522,MainFlow,2024.2.4,107.35419153672241,2025-03-07 12h23.32.847776 +0700,
1,51,0,word/wordth0511.png,image/False/imgf51.png,0,0,0,x,1.3841053999994983,None,0,0,0,0,2.4799683999999615,,,,,,,3.907842499999788,3.4532172999997783,3.4922100999992836,3.4922100999992836,3.901569399999971,5.166450299999269,5.166450299999269,x,1.3841053999994983,None,,,,,,,,,,,NU_th,001,2025-03-07_12h23.12.522,MainFlow,2024.2.4,107.35419153672241,2025-03-07 12h23.32.847776 +0700,
1,66,1,word/wordth0661.png,image/True/img66.png,1,1,0,z,1.8355725000001257,None,0,1,1,1,6.566058800000064,,,,,,,8.06695209999998,7.581973999999718,7.588666299999204,7.588666299999204,8.06063599999925,9.276672999999391,9.276672999999391,z,1.8355725000001257,None,,,,,,,,,,,NU_th,001,2025-03-07_12h23.12.522,MainFlow,2024.2.4,107.35419153672241,2025-03-07 12h23.32.847776 +0700,
1,60,1,word/wordth0601.png,image/True/img60.png,2,2,0,z,2.011492200000248,None,0,2,2,2,11.124577799999315,,,,,,,12.62931750000007,12.143199699999968,12.150996599999417,12.150996599999417,12.623328599999695,13.822149300000092,13.822149300000092,z,2.011492200000248,None,,,,,,,,,,,NU_th,001,2025-03-07_12h23.12.522,MainFlow,2024.2.4,107.35419153672241,2025-03-07 12h23.32.847776 +0700,
1,46,0,word/wordth0461.png,image/False/imgf46.png,3,3,0,x,1.1648687999995673,None,0,3,3,3,15.843725099999574,,,,,,,17.350641600000017,16.859032899999875,16.866999599999872,16.866999599999872,17.34469529999933,18.61038169999938,18.61038169999938,x,1.1648687999995673,None,,,,,,,,,,,NU_th,001,2025-03-07_12h23.12.522,MainFlow,2024.2.4,107.35419153672241,2025-03-07 12h23.32.847776 +0700,
1,24,1,word/wordth0241.png,image/True/img24.png,4,4,0,z,1.7091128000001845,None,0,4,4,4,19.78852619999998,,,,,,,21.293471199999658,20.799355399999513,20.805953499999305,20.805953499999305,21.28710449999926,22.45557899999949,22.45557899999949,z,1.7091128000001845,None,,,,,,,,,,,NU_th,001,2025-03-07_12h23.12.522,MainFlow,2024.2.4,107.35419153672241,2025-03-07 12h23.32.847776 +0700,
1,68,1,word/wordth0681.png,image/True/img68.png,5,5,0,z,1.6457277999998041,None,0,5,5,5,24.177859699999317,,,,,,,25.68184949999977,25.19584379999924,25.202753999999914,25.202753999999914,25.675634799999898,26.83518069999991,26.83518069999991,z,1.6457277999998041,None,25.202753999999914,,,,,,,,,,NU_th,001,2025-03-07_12h23.12.522,MainFlow,2024.2.4,107.35419153672241,2025-03-07 12h23.32.847776 +0700,
1,22,0,word/wordth0221.png,image/False/imgf22.png,6,6,0,x,1.2608706000000893,None,0,6,6,6,28.489962399999968,,,,,,,29.993150599999353,29.50678429999971,29.512889799999357,29.512889799999357,29.98735719999968,31.220760100000007,31.220760100000007,x,1.2608706000000893,None,29.512889799999357,,,,,,,,,,NU_th,001,2025-03-07_12h23.12.522,MainFlow,2024.2.4,107.35419153672241,2025-03-07 12h23.32.847776 +0700,
1,36,1,word/wordth0361.png,image/True/img36.png,7,7,0,z,2.123204600000463,None,0,7,7,7,32.49556919999941,,,,,,,33.99970159999975,33.49945630000002,33.50402059999942,33.50402059999942,33.993480199999794,35.19748660000005,35.19748660000005,z,2.123204600000463,None,33.50402059999942,,,,,,,,,,NU_th,001,2025-03-07_12h23.12.522,MainFlow,2024.2.4,107.35419153672241,2025-03-07 12h23.32.847776 +0700,
1,68,0,word/wordth0681.png,image/False/imgf68.png,8,8,0,x,0.7472916999995505,None,0,8,8,8,37.334431700000096,,,,,,,38.8387103999994,38.34521189999941,38.351629499999945,38.351629499999945,38.8325049999994,39.996527599999354,39.996527599999354,x,0.7472916999995505,None,,,,,,,,,,,NU_th,001,2025-03-07_12h23.12.522,MainFlow,2024.2.4,107.35419153672241,2025-03-07 12h23.32.847776 +0700,
1,16,1,word/wordth0161.png,image/True/img16.png,9,9,0,z,1.358140899999853,None,0,9,9,9,40.756972099999984,,,,,,,42.26126589999967,41.76906609999969,41.77549849999923,41.77549849999923,42.25486060000003,43.487434499999836,43.487434499999836,z,1.358140899999853,None,,,,,,,,,,,NU_th,001,2025-03-07_12h23.12.522,MainFlow,2024.2.4,107.35419153672241,2025-03-07 12h23.32.847776 +0700,
1,94,1,word/wordth0941.png,image/True/img94.png,10,10,0,z,1.1757351000005656,None,0,10,10,10,44.85464989999946,,,,,,,46.35808240000006,45.87326479999956,45.87981259999924,45.87981259999924,46.35182899999927,47.54550459999973,47.54550459999973,z,1.1757351000005656,None,45.87981259999924,,,,,,,,,,NU_th,001,2025-03-07_12h23.12.522,MainFlow,2024.2.4,107.35419153672241,2025-03-07 12h23.32.847776 +0700,
1,95,0,word/wordth0951.png,image/False/imgf95.png,11,11,0,x,0.8844387999997707,None,0,11,11,11,48.73446699999931,,,,,,,50.2392362999999,49.746528699999544,49.75306969999929,49.75306969999929,50.232896999999866,51.435685499999636,51.435685499999636,x,0.8844387999997707,None,,,,,,,,,,,NU_th,001,2025-03-07_12h23.12.522,MainFlow,2024.2.4,107.35419153672241,2025-03-07 12h23.32.847776 +0700,
1,30,0,word/wordth0301.png,image/False/imgf30.png,12,12,0,x,1.9963977999996132,None,0,12,12,12,52.330053299999236,,,,,,,53.836013599999205,53.348413299999265,53.35520009999982,53.35520009999982,53.83010999999988,55.02382989999933,55.02382989999933,x,1.9963977999996132,None,,,,,,,,,,,NU_th,001,2025-03-07_12h23.12.522,MainFlow,2024.2.4,107.35419153672241,2025-03-07 12h23.32.847776 +0700,
1,20,1,word/wordth0201.png,image/True/img20.png,13,13,0,z,1.0443609999992987,None,0,13,13,13,57.037984999999935,,,,,,,58.54410889999963,58.05177339999955,58.05945319999955,58.05945319999955,58.538089099999524,59.77114099999926,59.77114099999926,z,1.0443609999992987,None,,,,,,,,,,,NU_th,001,2025-03-07_12h23.12.522,MainFlow,2024.2.4,107.35419153672241,2025-03-07 12h23.32.847776 +0700,
1,42,0,word/wordth0421.png,image/False/imgf42.png,14,14,0,x,0.9093248999997741,None,0,14,14,14,60.82485550000001,,,,,,,62.32811539999966,61.84396239999933,61.85212069999943,61.85212069999943,62.32204069999989,63.56033959999968,63.56033959999968,x,0.9093248999997741,None,61.85212069999943,,,,,,,,,,NU_th,001,2025-03-07_12h23.12.522,MainFlow,2024.2.4,107.35419153672241,2025-03-07 12h23.32.847776 +0700,
1,31,1,word/wordth0311.png,image/True/img31.png,15,15,0,z,1.5844479000006686,None,0,15,15,15,64.48146159999942,,,,,,,65.9861934999999,65.49260969999978,65.4994471,65.4994471,65.97989229999985,67.16826869999932,67.16826869999932,z,1.5844479000006686,None,,,,,,,,,,,NU_th,001,2025-03-07_12h23.12.522,MainFlow,2024.2.4,107.35419153672241,2025-03-07 12h23.32.847776 +0700,
1,55,1,word/wordth0551.png,image/True/img55.png,16,16,0,z,1.5822341999992204,None,0,16,16,16,68.76738599999953,,,,,,,70.27001699999983,69.78462689999924,69.79094589999931,69.79094589999931,70.26375479999933,71.48386839999966,71.48386839999966,z,1.5822341999992204,None,,,,,,,,,,,NU_th,001,2025-03-07_12h23.12.522,MainFlow,2024.2.4,107.35419153672241,2025-03-07 12h23.32.847776 +0700,
1,36,1,word/wordth0361.png,image/True/img36.png,17,17,0,z,1.7084157999997842,None,0,17,17,17,73.07662759999948,,,,,,,74.58179859999927,74.08869059999961,74.09504749999996,74.09504749999996,74.5755167999996,75.77004940000006,75.77004940000006,z,1.7084157999997842,None,,,,,,,,,,,NU_th,001,2025-03-07_12h23.12.522,MainFlow,2024.2.4,107.35419153672241,2025-03-07 12h23.32.847776 +0700,
1,9,1,word/wordth0091.png,image/True/img09.png,18,18,0,z,1.809607700000015,None,0,18,18,18,77.48916719999943,,,,,,,78.99100629999975,78.5058154999997,78.51294039999993,78.51294039999993,78.98496189999969,80.14685009999994,80.14685009999994,z,1.809607700000015,None,,,,,,,,,,,NU_th,001,2025-03-07_12h23.12.522,MainFlow,2024.2.4,107.35419153672241,2025-03-07 12h23.32.847776 +0700,
1,64,1,word/wordth0641.png,image/True/img64.png,19,19,0,z,0.7222761999992144,None,0,19,19,19,81.96507769999971,,,,,,,83.46887169999991,82.9826121999995,82.98905359999935,82.98905359999935,83.46292159999939,84.65343129999928,84.65343129999928,z,0.7222761999992144,None,82.98905359999935,,,,,,,,,,NU_th,001,2025-03-07_12h23.12.522,MainFlow,2024.2.4,107.35419153672241,2025-03-07 12h23.32.847776 +0700,
1,95,1,word/wordth0951.png,image/True/img95.png,20,20,0,z,0.9284407000004649,None,0,20,20,20,85.38938849999977,,,,,,,86.89214360000005,86.40540529999998,86.41309869999986,86.41309869999986,86.8856464999999,88.12527649999993,88.12527649999993,z,0.9284407000004649,None,,,,,,,,,,,NU_th,001,2025-03-07_12h23.12.522,MainFlow,2024.2.4,107.35419153672241,2025-03-07 12h23.32.847776 +0700,
1,41,1,word/wordth0411.png,image/True/img41.png,21,21,0,z,0.9832603999993808,None,0,21,21,21,89.07167699999991,,,,,,,90.57263779999994,90.08582859999933,90.0935442,90.0935442,90.56658029999926,91.78655249999974,91.78655249999974,z,0.9832603999993808,None,,,,,,,,,,,NU_th,001,2025-03-07_12h23.12.522,MainFlow,2024.2.4,107.35419153672241,2025-03-07 12h23.32.847776 +0700,
1,8,1,word/wordth0081.png,image/True/img08.png,22,22,0,z,0.7414463999994041,None,0,22,22,22,92.78044729999965,,,,,,,94.28625449999981,93.79453629999989,93.80085549999967,93.80085549999967,94.2800830999995,95.44030389999989,95.44030389999989,z,0.7414463999994041,None,,,,,,,,,,,NU_th,001,2025-03-07_12h23.12.522,MainFlow,2024.2.4,107.35419153672241,2025-03-07 12h23.32.847776 +0700,
1,60,1,word/wordth0601.png,image/True/img60.png,23,23,0,z,0.8096351000003779,None,0,23,23,23,96.19310609999957,,,,,,,97.6956626000001,97.21002059999955,97.21670779999931,97.21670779999931,97.68953819999933,98.8761985000001,98.8761985000001,z,0.8096351000003779,None,,,,,,,,,,,NU_th,001,2025-03-07_12h23.12.522,MainFlow,2024.2.4,107.35419153672241,2025-03-07 12h23.32.847776 +0700,
1,48,0,word/wordth0481.png,image/False/imgf48.png,24,24,0,x,0.7474200999995446,None,0,24,24,24,99.69845689999966,,,,,,,101.20255899999938,100.70812019999994,100.71566399999938,100.71566399999938,101.19650049999927,102.43150989999958,102.43150989999958,x,0.7474200999995446,None,,,,,,,,,,,NU_th,001,2025-03-07_12h23.12.522,MainFlow,2024.2.4,107.35419153672241,2025-03-07 12h23.32.847776 +0700,
1,41,0,word/wordth0411.png,image/False/imgf41.png,25,25,0,x,0.6730797000000166,None,0,25,25,25,103.19115889999921,,,,,,,104.69464650000009,104.20034979999946,104.20826009999928,104.20826009999928,104.68849399999999,105.8479041999999,105.8479041999999,x,0.6730797000000166,None,,,,,,,,,,,NU_th,001,2025-03-07_12h23.12.522,MainFlow,2024.2.4,107.35419153672241,2025-03-07 12h23.32.847776 +0700,
1,54,0,word/wordth0541.png,image/False/imgf54.png,26,26,0,x,0.989121200000227,None,0,26,26,26,106.53500349999922,,,,,,,108.04148179999993,107.54712689999997,107.55490809999992,107.55490809999992,108.03545239999949,109.22901129999991,109.22901129999991,x,0.989121200000227,None,,,,,,,,,,,NU_th,001,2025-03-07_12h23.12.522,MainFlow,2024.2.4,107.35419153672241,2025-03-07 12h23.32.847776 +0700,
1,54,1,word/wordth0541.png,image/True/img54.png,27,27,0,z,0.9149621000005936,None,0,27,27,27,110.22963039999922,,,,,,,111.73498309999923,111.23348159999932,111.2396005999999,111.2396005999999,111.72888369999964,112.96896049999941,112.96896049999941,z,0.9149621000005936,None,,,,,,,,,,,NU_th,001,2025-03-07_12h23.12.522,MainFlow,2024.2.4,107.35419153672241,2025-03-07 12h23.32.847776 +0700,
1,63,0,word/wordth0631.png,image/False/imgf63.png,28,28,0,x,2.598846400000184,None,0,28,28,28,113.89444189999995,,,,,,,115.39422439999998,114.91033869999956,114.91879189999963,114.91879189999963,115.38817239999935,116.62384829999974,116.62384829999974,x,2.598846400000184,None,,,,,,,,,,,NU_th,001,2025-03-07_12h23.12.522,MainFlow,2024.2.4,107.35419153672241,2025-03-07 12h23.32.847776 +0700,
1,37,0,word/wordth0371.png,image/False/imgf37.png,29,29,0,x,1.592587199999798,None,0,29,29,29,119.23486629999934,,,,,,,120.73963539999932,120.25196379999943,120.25893349999933,120.25893349999933,120.73332429999937,121.99410399999942,121.99410399999942,x,1.592587199999798,None,120.25893349999933,,,,,,,,,,NU_th,001,2025-03-07_12h23.12.522,MainFlow,2024.2.4,107.35419153672241,2025-03-07 12h23.32.847776 +0700,
1,54,0,word/wordth0541.png,image/False/imgf54.png,30,30,0,x,1.0385860000005778,None,0,30,30,30,123.60335439999926,,,,,,,125.10750729999927,124.61394079999991,124.62132870000005,124.62132870000005,125.10149159999946,126.31194389999928,126.31194389999928,x,1.0385860000005778,None,,,,,,,,,,,NU_th,001,2025-03-07_12h23.12.522,MainFlow,2024.2.4,107.35419153672241,2025-03-07 12h23.32.847776 +0700,
1,48,1,word/wordth0481.png,image/True/img48.png,31,31,0,x,1.6818310999997266,None,0,31,31,31,127.36238909999975,,,,,,,128.8641635999993,128.37619599999925,128.38415429999986,128.38415429999986,128.8581491999994,130.09425289999945,130.09425289999945,x,1.6818310999997266,None,,,,,,,,,,,NU_th,001,2025-03-07_12h23.12.522,MainFlow,2024.2.4,107.35419153672241,2025-03-07 12h23.32.847776 +0700,
1,26,0,word/wordth0261.png,image/False/imgf26.png,32,32,0,x,1.311228200000187,None,0,32,32,32,131.78902359999938,,,,,,,133.29278459999932,132.80673859999933,132.81335789999957,132.81335789999957,133.28646519999984,134.54074649999984,134.54074649999984,x,1.311228200000187,None,132.81335789999957,,,,,,,,,,NU_th,001,2025-03-07_12h23.12.522,MainFlow,2024.2.4,107.35419153672241,2025-03-07 12h23.32.847776 +0700,
1,59,0,word/wordth0591.png,image/False/imgf59.png,33,33,0,x,0.7549395000005461,None,0,33,33,33,135.86127149999993,,,,,,,137.36817809999957,136.88098319999972,136.8876866999999,136.8876866999999,137.36219399999936,138.52966979999928,138.52966979999928,x,0.7549395000005461,None,,,,,,,,,,,NU_th,001,2025-03-07_12h23.12.522,MainFlow,2024.2.4,107.35419153672241,2025-03-07 12h23.32.847776 +0700,
1,8,1,word/wordth0081.png,image/True/img08.png,34,34,0,x,0.6386040999996112,None,0,34,34,34,139.29381729999932,,,,,,,140.79805279999982,140.2983566999992,140.30311559999973,140.30311559999973,140.7918706999999,141.97760779999953,141.97760779999953,x,0.6386040999996112,None,140.30311559999973,,,,,,,,,,NU_th,001,2025-03-07_12h23.12.522,MainFlow,2024.2.4,107.35419153672241,2025-03-07 12h23.32.847776 +0700,
1,66,1,word/wordth0661.png,image/True/img66.png,35,35,0,z,0.6860711999997875,None,0,35,35,35,142.62995030000002,,,,,,,144.13113410000005,143.64373929999965,143.65061289999994,143.65061289999994,144.1251268999995,145.34996709999996,145.34996709999996,z,0.6860711999997875,None,,,,,,,,,,,NU_th,001,2025-03-07_12h23.12.522,MainFlow,2024.2.4,107.35419153672241,2025-03-07 12h23.32.847776 +0700,
1,24,0,word/wordth0241.png,image/False/imgf24.png,36,36,0,x,0.8622080999994068,None,0,36,36,36,146.04745989999992,,,,,,,147.5477312999992,147.0603446999994,147.06895669999994,147.06895669999994,147.5417010000001,148.7415960999997,148.7415960999997,x,0.8622080999994068,None,,,,,,,,,,,NU_th,001,2025-03-07_12h23.12.522,MainFlow,2024.2.4,107.35419153672241,2025-03-07 12h23.32.847776 +0700,
1,14,1,word/wordth0141.png,image/True/img14.png,37,37,0,z,1.3276018999995358,None,0,37,37,37,149.61591999999928,,,,,,,151.11545829999977,150.62991079999938,150.6376999999993,150.6376999999993,151.1105047000001,152.31648099999984,152.31648099999984,z,1.3276018999995358,None,,,,,,,,,,,NU_th,001,2025-03-07_12h23.12.522,MainFlow,2024.2.4,107.35419153672241,2025-03-07 12h23.32.847776 +0700,
1,20,0,word/wordth0201.png,image/False/imgf20.png,38,38,0,x,1.2409543000003396,None,0,38,38,38,153.65648599999986,,,,,,,155.16329069999938,154.66980449999937,154.67651399999977,154.67651399999977,155.1570697999996,156.40666449999935,156.40666449999935,x,1.2409543000003396,None,,,,,,,,,,,NU_th,001,2025-03-07_12h23.12.522,MainFlow,2024.2.4,107.35419153672241,2025-03-07 12h23.32.847776 +0700,
1,89,0,word/wordth0891.png,image/False/imgf89.png,39,39,0,x,1.8031754000003275,None,0,39,39,39,157.65855800000008,,,,,,,159.1629382000001,158.6692897999992,158.67587339999955,158.67587339999955,159.15652369999952,160.34418969999933,160.34418969999933,x,1.8031754000003275,None,,,,,,,,,,,NU_th,001,2025-03-07_12h23.12.522,MainFlow,2024.2.4,107.35419153672241,2025-03-07 12h23.32.847776 +0700,
1,64,0,word/wordth0641.png,image/False/imgf64.png,40,40,0,x,1.4155154000000039,None,0,40,40,40,162.16331179999997,,,,,,,163.6696127999994,163.17548629999965,163.18323239999972,163.18323239999972,163.66360029999942,164.8247982999992,164.8247982999992,x,1.4155154000000039,None,,,,,,,,,,,NU_th,001,2025-03-07_12h23.12.522,MainFlow,2024.2.4,107.35419153672241,2025-03-07 12h23.32.847776 +0700,
1,56,1,word/wordth0561.png,image/True/img56.png,41,41,0,z,1.6466328999995312,None,0,41,41,41,166.25178439999945,,,,,,,167.75211799999943,167.25286899999992,167.2589283999996,167.2589283999996,167.74610669999947,168.9493167999999,168.9493167999999,z,1.6466328999995312,None,,,,,,,,,,,NU_th,001,2025-03-07_12h23.12.522,MainFlow,2024.2.4,107.35419153672241,2025-03-07 12h23.32.847776 +0700,
1,15,1,word/wordth0151.png,image/True/img15.png,42,42,0,z,0.6901153999997405,None,0,42,42,42,170.6072322,,,,,,,172.10446389999925,171.60487339999963,171.60952849999921,171.60952849999921,172.09940069999993,173.32707719999962,173.32707719999962,z,0.6901153999997405,None,,172.10446389999925,172.10446389999925,,,,,,,,NU_th,001,2025-03-07_12h23.12.522,MainFlow,2024.2.4,107.35419153672241,2025-03-07 12h23.32.847776 +0700,
1,88,0,word/wordth0881.png,image/False/imgf88.png,43,43,0,x,3.8494355000002543,None,0,43,43,43,174.02980119999938,,,,,,,175.5345784000001,175.04981270000007,175.05672159999995,175.05672159999995,175.52878389999933,176.75088499999947,176.75088499999947,x,3.8494355000002543,None,175.05672159999995,,,,,,,,,,NU_th,001,2025-03-07_12h23.12.522,MainFlow,2024.2.4,107.35419153672241,2025-03-07 12h23.32.847776 +0700,
1,94,1,word/wordth0941.png,image/True/img94.png,44,44,0,z,0.593866899999739,None,0,44,44,44,180.61013959999946,,,,,,,182.11662909999995,181.6262913999999,181.63296439999976,181.63296439999976,182.1103852999995,183.35315229999924,183.35315229999924,z,0.593866899999739,None,,,,,,,,,,,NU_th,001,2025-03-07_12h23.12.522,MainFlow,2024.2.4,107.35419153672241,2025-03-07 12h23.32.847776 +0700,
1,40,0,word/wordth0401.png,image/False/imgf40.png,45,45,0,x,1.5548368999998274,None,0,45,45,45,183.95987239999977,,,,,,,185.45614549999937,184.96162879999974,184.96562879999965,184.96562879999965,185.45108720000007,186.6644521999997,186.6644521999997,x,1.5548368999998274,None,186.6644521999997,185.45614549999937,185.45614549999937,,,,,,,,NU_th,001,2025-03-07_12h23.12.522,MainFlow,2024.2.4,107.35419153672241,2025-03-07 12h23.32.847776 +0700,
1,41,0,word/wordth0411.png,image/False/imgf41.png,46,46,0,x,0.6546727000004466,None,0,46,46,46,188.23035059999984,,,,,,,189.73348819999956,189.23340989999997,189.2387915999998,189.2387915999998,189.7274299999999,190.89674639999976,190.89674639999976,x,0.6546727000004466,None,,,,,,,,,,,NU_th,001,2025-03-07_12h23.12.522,MainFlow,2024.2.4,107.35419153672241,2025-03-07 12h23.32.847776 +0700,
1,7,1,word/wordth0071.png,image/True/img07.png,47,47,0,z,1.5545092000002114,None,0,47,47,47,191.56789029999982,,,,,,,193.07270059999973,192.57823129999997,192.58474569999998,192.58474569999998,193.0665257999999,194.28023329999996,194.28023329999996,z,1.5545092000002114,None,,,,,,,,,,,NU_th,001,2025-03-07_12h23.12.522,MainFlow,2024.2.4,107.35419153672241,2025-03-07 12h23.32.847776 +0700,
1,60,0,word/wordth0601.png,image/False/imgf60.png,48,48,0,x,0.7303769999998622,None,0,48,48,48,195.8464752,,,,,,,197.3496566999993,196.86345489999985,196.8699332999995,196.8699332999995,197.34341929999937,198.55612380000002,198.55612380000002,x,0.7303769999998622,None,196.8699332999995,,,,,,,,,,NU_th,001,2025-03-07_12h23.12.522,MainFlow,2024.2.4,107.35419153672241,2025-03-07 12h23.32.847776 +0700,
1,23,0,word/wordth0231.png,image/False/imgf23.png,49,49,0,x,0.9297103999997489,None,0,49,49,49,199.29637559999992,,,,,,,200.80056969999987,200.30811129999984,200.31485609999982,200.31485609999982,200.79458279999926,202.11063029999968,202.11063029999968,x,0.9297103999997489,None,,,,,,,,,,,NU_th,001,2025-03-07_12h23.12.522,MainFlow,2024.2.4,107.35419153672241,2025-03-07 12h23.32.847776 +0700,
1,68,0,word/wordth0681.png,image/False/imgf68.png,50,50,0,x,0.955558600000586,None,0,50,50,50,203.04991169999994,,,,,,,204.55064859999948,204.06302359999972,204.07073889999992,204.07073889999992,204.5445807999995,205.72196489999988,205.72196489999988,x,0.955558600000586,None,,,,,,,,,,,NU_th,001,2025-03-07_12h23.12.522,MainFlow,2024.2.4,107.35419153672241,2025-03-07 12h23.32.847776 +0700,
1,26,1,word/wordth0261.png,image/True/img26.png,51,51,0,z,2.4568534,None,0,51,51,51,206.69203620000008,,,,,,,208.19575029999942,207.7018822,207.70971049999935,207.70971049999935,208.18971599999986,209.4276762999998,209.4276762999998,z,2.4568534,None,,,,,,,,,,,NU_th,001,2025-03-07_12h23.12.522,MainFlow,2024.2.4,107.35419153672241,2025-03-07 12h23.32.847776 +0700,
1,89,0,word/wordth0891.png,image/False/imgf89.png,52,52,0,x,0.7947934000003443,None,0,52,52,52,211.89811399999962,,,,,,,213.40212100000008,212.91187649999938,212.91857149999942,212.91857149999942,213.3958032999999,214.5926872,214.5926872,x,0.7947934000003443,None,,,,,,,,,,,NU_th,001,2025-03-07_12h23.12.522,MainFlow,2024.2.4,107.35419153672241,2025-03-07 12h23.32.847776 +0700,
1,3,0,word/wordth0031.png,image/False/imgf03.png,53,53,0,x,0.8053224000004775,None,0,53,53,53,215.39731510000001,,,,,,,216.90157649999946,216.4066742999994,216.41299309999977,216.41299309999977,216.89624079999976,218.08232839999982,218.08232839999982,x,0.8053224000004775,None,,,,,,,,,,,NU_th,001,2025-03-07_12h23.12.522,MainFlow,2024.2.4,107.35419153672241,2025-03-07 12h23.32.847776 +0700,
1,55,1,word/wordth0551.png,image/True/img55.png,54,54,0,z,0.979941399999916,None,0,54,54,54,218.8988015999994,,,,,,,220.4006993999992,219.91484129999935,219.92147699999987,219.92147699999987,220.3944281999993,221.63088169999992,221.63088169999992,z,0.979941399999916,None,,,,,,,,,,,NU_th,001,2025-03-07_12h23.12.522,MainFlow,2024.2.4,107.35419153672241,2025-03-07 12h23.32.847776 +0700,
1,46,1,word/wordth0461.png,image/True/img46.png,55,55,0,z,1.0360887000006187,None,0,55,55,55,222.62015639999936,,,,,,,224.1223530999996,223.63603889999922,223.6425965999997,223.6425965999997,224.1159779999998,225.34060210000007,225.34060210000007,z,1.0360887000006187,None,,,,,,,,,,,NU_th,001,2025-03-07_12h23.12.522,MainFlow,2024.2.4,107.35419153672241,2025-03-07 12h23.32.847776 +0700,
1,1,1,word/wordth0011.png,image/True/img01.png,56,56,0,z,1.0727771000001667,None,0,56,56,56,226.38876419999997,,,,,,,227.89263909999954,227.40712929999972,227.41378499999973,227.41378499999973,227.88633859999936,229.12339519999932,229.12339519999932,z,1.0727771000001667,None,227.41378499999973,,,,,,,,,,NU_th,001,2025-03-07_12h23.12.522,MainFlow,2024.2.4,107.35419153672241,2025-03-07 12h23.32.847776 +0700,
1,3,1,word/wordth0031.png,image/True/img03.png,57,57,0,z,1.2060729999993782,None,0,57,57,57,230.20745679999982,,,,,,,231.7114320999999,231.22328769999967,231.22990320000008,231.22990320000008,231.70512699999927,232.90485269999954,232.90485269999954,z,1.2060729999993782,None,231.22990320000008,,,,,,,,,,NU_th,001,2025-03-07_12h23.12.522,MainFlow,2024.2.4,107.35419153672241,2025-03-07 12h23.32.847776 +0700,
1,76,1,word/wordth0761.png,image/True/img76.png,58,58,0,z,1.2438102000005529,None,0,58,58,58,234.12266969999928,,,,,,,235.62706619999972,235.13482229999954,235.14146230000006,235.14146230000006,235.62118759999976,236.83430299999964,236.83430299999964,z,1.2438102000005529,None,,,,,,,,,,,NU_th,001,2025-03-07_12h23.12.522,MainFlow,2024.2.4,107.35419153672241,2025-03-07 12h23.32.847776 +0700,
1,52,0,word/wordth0521.png,image/False/imgf52.png,59,59,0,x,0.6870975000001636,None,0,59,59,59,238.08736489999956,,,,,,,239.5915298,239.10423579999951,239.11126989999957,239.11126989999957,239.58533540000008,240.77403739999954,240.77403739999954,x,0.6870975000001636,None,239.11126989999957,,,,,,,,,,NU_th,001,2025-03-07_12h23.12.522,MainFlow,2024.2.4,107.35419153672241,2025-03-07 12h23.32.847776 +0700,
1,14,0,word/wordth0141.png,image/False/imgf14.png,60,60,0,x,0.8764885000000504,None,0,60,60,60,241.47579179999957,,,,,,,242.97957199999928,242.49215619999995,242.49874649999947,242.49874649999947,242.97320839999975,244.1865256000001,244.1865256000001,x,0.8764885000000504,None,242.49874649999947,,,,,,,,,,NU_th,001,2025-03-07_12h23.12.522,MainFlow,2024.2.4,107.35419153672241,2025-03-07 12h23.32.847776 +0700,
1,61,1,word/wordth0611.png,image/True/img61.png,61,61,0,z,0.7683562000001984,None,0,61,61,61,245.0731181000001,,,,,,,246.57628479999948,246.0916359999992,246.09923889999936,246.09923889999936,246.5700982999997,247.80358439999964,247.80358439999964,z,0.7683562000001984,None,246.09923889999936,,,,,,,,,,NU_th,001,2025-03-07_12h23.12.522,MainFlow,2024.2.4,107.35419153672241,2025-03-07 12h23.32.847776 +0700,
1,93,0,word/wordth0931.png,image/False/imgf93.png,62,62,0,x,2.368228700000145,None,0,62,62,62,248.58611589999964,,,,,,,250.08949249999932,249.60314949999974,249.6097439999994,249.6097439999994,250.08333869999933,251.26858249999987,251.26858249999987,x,2.368228700000145,None,249.6097439999994,,,,,,,,,,NU_th,001,2025-03-07_12h23.12.522,MainFlow,2024.2.4,107.35419153672241,2025-03-07 12h23.32.847776 +0700,
1,37,1,word/wordth0371.png,image/True/img37.png,63,63,0,z,1.5524056000003839,None,0,63,63,63,253.64733859999978,,,,,,,255.1510761999998,254.65580059999957,254.66257199999927,254.66257199999927,255.14485759999934,256.36530629999925,256.36530629999925,z,1.5524056000003839,None,,,,,,,,,,,NU_th,001,2025-03-07_12h23.12.522,MainFlow,2024.2.4,107.35419153672241,2025-03-07 12h23.32.847776 +0700,
1,79,0,word/wordth0791.png,image/False/imgf79.png,64,64,0,x,1.663655999999719,None,0,64,64,64,257.93039789999966,,,,,,,259.4350353,258.94871779999994,258.9554995999997,258.9554995999997,259.42928649999976,260.6390160000001,260.6390160000001,x,1.663655999999719,None,258.9554995999997,,,,,,,,,,NU_th,001,2025-03-07_12h23.12.522,MainFlow,2024.2.4,107.35419153672241,2025-03-07 12h23.32.847776 +0700,
1,37,0,word/wordth0371.png,image/False/imgf37.png,65,65,0,x,0.9700493000000279,None,0,65,65,65,262.3142189,,,,,,,263.8162292999996,263.3294683999993,263.3361559999994,263.3361559999994,263.8098921999999,265.05580219999956,265.05580219999956,x,0.9700493000000279,None,,,,,,,,,,,NU_th,001,2025-03-07_12h23.12.522,MainFlow,2024.2.4,107.35419153672241,2025-03-07 12h23.32.847776 +0700,
1,3,1,word/wordth0031.png,image/True/img03.png,66,66,0,z,0.7954920000001948,None,0,66,66,66,266.04009289999976,,,,,,,267.54453529999955,267.05565339999976,267.0623036999996,267.0623036999996,267.5383955999996,268.81804699999975,268.81804699999975,z,0.7954920000001948,None,267.0623036999996,,,,,,,,,,NU_th,001,2025-03-07_12h23.12.522,MainFlow,2024.2.4,107.35419153672241,2025-03-07 12h23.32.847776 +0700,
1,93,0,word/wordth0931.png,image/False/imgf93.png,67,67,0,x,0.8362381999995705,None,0,67,67,67,269.6231745999994,,,,,,,271.1271391999999,270.6332507999996,270.63999109999986,270.63999109999986,271.12112119999983,272.31487539999944,272.31487539999944,x,0.8362381999995705,None,,,,,,,,,,,NU_th,001,2025-03-07_12h23.12.522,MainFlow,2024.2.4,107.35419153672241,2025-03-07 12h23.32.847776 +0700,
1,30,1,word/wordth0301.png,image/True/img30.png,68,68,0,z,1.9083843999997043,None,0,68,68,68,273.1644547999995,,,,,,,274.6681097999999,274.1821049,274.1883246999996,274.1883246999996,274.6618109000001,275.85851079999975,275.85851079999975,z,1.9083843999997043,None,274.1883246999996,,,,,,,,,,NU_th,001,2025-03-07_12h23.12.522,MainFlow,2024.2.4,107.35419153672241,2025-03-07 12h23.32.847776 +0700,
1,46,0,word/wordth0461.png,image/False/imgf46.png,69,69,0,x,0.7070796999996674,None,0,69,69,69,277.7802155999998,,,,,,,279.2853546999995,278.7932486999998,278.8002613999997,278.8002613999997,279.27911959999983,280.5615337999998,280.5615337999998,x,0.7070796999996674,None,,,,,,,,,,,NU_th,001,2025-03-07_12h23.12.522,MainFlow,2024.2.4,107.35419153672241,2025-03-07 12h23.32.847776 +0700,
1,27,0,word/wordth0271.png,image/False/imgf27.png,70,70,0,x,2.7071068000004743,None,0,70,70,70,281.2811314999999,,,,,,,282.7843456999999,282.28971459999957,282.2964622999998,282.2964622999998,282.7780137999998,283.9633393999993,283.9633393999993,x,2.7071068000004743,None,,,,,,,,,,,NU_th,001,2025-03-07_12h23.12.522,MainFlow,2024.2.4,107.35419153672241,2025-03-07 12h23.32.847776 +0700,
1,37,1,word/wordth0371.png,image/True/img37.png,71,71,0,z,1.4909624000001713,None,0,71,71,71,286.68265840000004,,,,,,,288.18622049999976,287.7013042999997,287.7079315000001,287.7079315000001,288.18017209999925,289.4361937999993,289.4361937999993,z,1.4909624000001713,None,287.7079315000001,,,,,,,,,,NU_th,001,2025-03-07_12h23.12.522,MainFlow,2024.2.4,107.35419153672241,2025-03-07 12h23.32.847776 +0700,
1,20,1,word/wordth0201.png,image/True/img20.png,72,72,0,z,0.9038579999996728,None,0,72,72,72,290.93834229999993,,,,,,,292.4423934999995,291.95762579999973,291.96453569999994,291.96453569999994,292.43616849999944,293.64053779999995,293.64053779999995,z,0.9038579999996728,None,291.96453569999994,,,,,,,,,,NU_th,001,2025-03-07_12h23.12.522,MainFlow,2024.2.4,107.35419153672241,2025-03-07 12h23.32.847776 +0700,
1,17,1,word/wordth0171.png,image/True/img17.png,73,73,0,z,1.1400914999994711,None,0,73,73,73,294.55606910000006,,,,,,,296.0597167999995,295.56615239999974,295.57287279999946,295.57287279999946,296.0534416999999,297.25519600000007,297.25519600000007,z,1.1400914999994711,None,,,,,,,,,,,NU_th,001,2025-03-07_12h23.12.522,MainFlow,2024.2.4,107.35419153672241,2025-03-07 12h23.32.847776 +0700,
1,10,0,word/wordth0101.png,image/False/imgf10.png,74,74,0,x,0.7787164999999732,None,0,74,74,74,298.40886520000004,,,,,,,299.91343009999946,299.4253063999995,299.43199129999994,299.43199129999994,299.90718469999956,301.11959320000005,301.11959320000005,x,0.7787164999999732,None,299.43199129999994,,,,,,,,,,NU_th,001,2025-03-07_12h23.12.522,MainFlow,2024.2.4,107.35419153672241,2025-03-07 12h23.32.847776 +0700,
1,68,1,word/wordth0681.png,image/True/img68.png,75,75,0,z,0.9172920000000886,None,0,75,75,75,301.90893959999994,,,,,,,303.4125353999998,302.9253181999993,302.93219319999935,302.93219319999935,303.40632749999986,304.5740009000001,304.5740009000001,z,0.9172920000000886,None,302.93219319999935,,,,,,,,,,NU_th,001,2025-03-07_12h23.12.522,MainFlow,2024.2.4,107.35419153672241,2025-03-07 12h23.32.847776 +0700,
1,82,0,word/wordth0821.png,image/False/imgf82.png,76,76,0,x,1.2995019999998476,None,0,76,76,76,305.5051370000001,,,,,,,307.0091145999995,306.5211346999995,306.52750209999977,306.52750209999977,307.0028634,308.21386129999973,308.21386129999973,x,1.2995019999998476,None,306.52750209999977,,,,,,,,,,NU_th,001,2025-03-07_12h23.12.522,MainFlow,2024.2.4,107.35419153672241,2025-03-07 12h23.32.847776 +0700,
1,42,1,word/wordth0421.png,image/True/img42.png,77,77,0,z,1.2712607000003118,None,0,77,77,77,309.52214579999963,,,,,,,311.02919759999986,310.5363692000001,310.5430133,310.5430133,311.0229180999995,312.2409883999999,312.2409883999999,z,1.2712607000003118,None,,,,,,,,,,,NU_th,001,2025-03-07_12h23.12.522,MainFlow,2024.2.4,107.35419153672241,2025-03-07 12h23.32.847776 +0700,
1,59,1,word/wordth0591.png,image/True/img59.png,78,78,0,z,1.1614865999999893,None,0,78,78,78,313.5247024,,,,,,,315.0284339,314.5357490999995,314.54233699999986,314.54233699999986,315.0223038999993,316.1949034999998,316.1949034999998,z,1.1614865999999893,None,,,,,,,,,,,NU_th,001,2025-03-07_12h23.12.522,MainFlow,2024.2.4,107.35419153672241,2025-03-07 12h23.32.847776 +0700,
1,18,1,word/wordth0181.png,image/True/img18.png,79,79,0,z,0.6596104999998715,None,0,79,79,79,317.37222049999946,,,,,,,318.8748151,318.38829519999945,318.39489539999977,318.39489539999977,318.8687366999993,320.0586399999993,320.0586399999993,z,0.6596104999998715,None,,,,,,,,,,,NU_th,001,2025-03-07_12h23.12.522,MainFlow,2024.2.4,107.35419153672241,2025-03-07 12h23.32.847776 +0700,
1,63,1,word/wordth0631.png,image/True/img63.png,80,80,0,z,1.1940801000000647,None,0,80,80,80,320.73111719999997,,,,,,,322.23525059999974,321.74762250000003,321.7539663999996,321.7539663999996,322.2288912999993,323.4271910999996,323.4271910999996,z,1.1940801000000647,None,321.7539663999996,,,,,,,,,,NU_th,001,2025-03-07_12h23.12.522,MainFlow,2024.2.4,107.35419153672241,2025-03-07 12h23.32.847776 +0700,
1,40,0,word/wordth0401.png,image/False/imgf40.png,81,81,0,x,0.6457071000004362,None,0,81,81,81,324.63351389999934,,,,,,,326.13746119999996,325.6420387999997,325.6483718999998,325.6483718999998,326.1310648999997,327.35800779999954,327.35800779999954,x,0.6457071000004362,None,,,,,,,,,,,NU_th,001,2025-03-07_12h23.12.522,MainFlow,2024.2.4,107.35419153672241,2025-03-07 12h23.32.847776 +0700,
1,55,0,word/wordth0551.png,image/False/imgf55.png,82,82,0,x,1.3263385000000198,None,0,82,82,82,328.01771259999987,,,,,,,329.5255193999992,329.0350662000001,329.04136859999926,329.04136859999926,329.51937409999937,330.7240005999993,330.7240005999993,x,1.3263385000000198,None,,,,,,,,,,,NU_th,001,2025-03-07_12h23.12.522,MainFlow,2024.2.4,107.35419153672241,2025-03-07 12h23.32.847776 +0700,
1,26,1,word/wordth0261.png,image/True/img26.png,83,83,0,z,1.0737279999993916,None,0,83,83,83,332.0596636,,,,,,,333.5663408999999,333.07188399999995,333.0786043999997,333.0786043999997,333.5602579999995,334.7998496,334.7998496,z,1.0737279999993916,None,,,,,,,,,,,NU_th,001,2025-03-07_12h23.12.522,MainFlow,2024.2.4,107.35419153672241,2025-03-07 12h23.32.847776 +0700,
1,28,0,word/wordth0281.png,image/False/imgf28.png,84,84,0,x,1.128482800000711,None,0,84,84,84,335.8877229999998,,,,,,,337.39209649999975,336.89955139999984,336.90636169999925,336.90636169999925,337.38585199999943,338.57973519999996,338.57973519999996,x,1.128482800000711,None,,,,,,,,,,,NU_th,001,2025-03-07_12h23.12.522,MainFlow,2024.2.4,107.35419153672241,2025-03-07 12h23.32.847776 +0700,
1,8,0,word/wordth0081.png,image/False/imgf08.png,85,85,0,x,0.8378889999994499,None,0,85,85,85,339.72049379999953,,,,,,,341.2245671999999,340.7250583999994,340.72970689999966,340.72970689999966,341.21849329999986,342.4149918999992,342.4149918999992,x,0.8378889999994499,None,340.72970689999966,,,,,,,,,,NU_th,001,2025-03-07_12h23.12.522,MainFlow,2024.2.4,107.35419153672241,2025-03-07 12h23.32.847776 +0700,
1,9,1,word/wordth0091.png,image/True/img09.png,86,86,0,z,1.1302605999999287,None,0,86,86,86,343.2616625999999,,,,,,,344.76565889999983,344.27300209999976,344.27931679999983,344.27931679999983,344.75933279999936,345.90197699999953,345.90197699999953,z,1.1302605999999287,None,,,,,,,,,,,NU_th,001,2025-03-07_12h23.12.522,MainFlow,2024.2.4,107.35419153672241,2025-03-07 12h23.32.847776 +0700,
1,78,1,word/wordth0781.png,image/True/img78.png,87,87,0,z,1.4365256999999474,None,0,87,87,87,347.0461507,,,,,,,348.5497317999998,348.0622950999996,348.0688971999998,348.0688971999998,348.54333809999935,349.7238435999998,349.7238435999998,z,1.4365256999999474,None,348.0688971999998,,,,,,,,,,NU_th,001,2025-03-07_12h23.12.522,MainFlow,2024.2.4,107.35419153672241,2025-03-07 12h23.32.847776 +0700,
1,1,0,word/wordth0011.png,image/False/imgf01.png,88,88,0,x,1.3500536999999895,None,0,88,88,88,351.1697454999994,,,,,,,352.6737624999996,352.1807627999997,352.18757109999933,352.18757109999933,352.66767919999984,353.8676799999994,353.8676799999994,x,1.3500536999999895,None,,,,,,,,,,,NU_th,001,2025-03-07_12h23.12.522,MainFlow,2024.2.4,107.35419153672241,2025-03-07 12h23.32.847776 +0700,
1,71,1,word/wordth0711.png,image/True/img71.png,89,89,0,z,2.7183562000000165,None,0,89,89,89,355.2309996999993,,,,,,,356.7355229999994,356.244412,356.2512882000001,356.2512882000001,356.72922539999945,357.9486328999992,357.9486328999992,z,2.7183562000000165,None,,,,,,,,,,,NU_th,001,2025-03-07_12h23.12.522,MainFlow,2024.2.4,107.35419153672241,2025-03-07 12h23.32.847776 +0700,
1,93,1,word/wordth0931.png,image/True/img93.png,90,90,0,z,0.8190247000002273,None,0,90,90,90,360.6762315999995,,,,,,,362.1790354999994,361.69266269999935,361.69919949999985,361.69919949999985,362.1727327999997,363.3892473999995,363.3892473999995,z,0.8190247000002273,None,,,,,,,,,,,NU_th,001,2025-03-07_12h23.12.522,MainFlow,2024.2.4,107.35419153672241,2025-03-07 12h23.32.847776 +0700,
1,78,0,word/wordth0781.png,image/False/imgf78.png,91,91,0,x,0.7272556999996596,None,0,91,91,91,364.22412769999937,,,,,,,365.7269274999999,365.2404465999998,365.24720759999946,365.24720759999946,365.72063889999936,366.90079869999954,366.90079869999954,x,0.7272556999996596,None,,,,,,,,,,,NU_th,001,2025-03-07_12h23.12.522,MainFlow,2024.2.4,107.35419153672241,2025-03-07 12h23.32.847776 +0700,
1,8,0,word/wordth0081.png,image/False/imgf08.png,92,92,0,x,0.7591996000001018,None,0,92,92,92,367.6374430999995,,,,,,,369.1428778999998,368.6501903999997,368.6568379999999,368.6568379999999,369.13661049999973,370.3137287999998,370.3137287999998,x,0.7591996000001018,None,,,,,,,,,,,NU_th,001,2025-03-07_12h23.12.522,MainFlow,2024.2.4,107.35419153672241,2025-03-07 12h23.32.847776 +0700,
1,9,0,word/wordth0091.png,image/False/imgf09.png,93,93,0,x,4.482773100000486,None,0,93,93,93,371.0840097999999,,,,,,,372.5866778999998,372.0962196999999,372.1031792999993,372.1031792999993,372.58037799999966,373.75171599999976,373.75171599999976,x,4.482773100000486,None,,,,,,,,,,,NU_th,001,2025-03-07_12h23.12.522,MainFlow,2024.2.4,107.35419153672241,2025-03-07 12h23.32.847776 +0700,
1,75,1,word/wordth0751.png,image/True/img75.png,94,94,0,z,2.054335099999662,None,0,94,94,94,378.2483110999992,,,,,,,379.7527451999995,379.2652314999996,379.2717837,379.2717837,379.74580719999994,380.93183299999964,380.93183299999964,z,2.054335099999662,None,379.2717837,,,,,,,,,,NU_th,001,2025-03-07_12h23.12.522,MainFlow,2024.2.4,107.35419153672241,2025-03-07 12h23.32.847776 +0700,
1,95,0,word/wordth0951.png,image/False/imgf95.png,95,95,0,x,0.7386514999998326,None,0,95,95,95,382.99748029999955,,,,,,,384.5010169999996,384.0147035,384.0214834999997,384.0214834999997,384.4947470999996,385.7230151999993,385.7230151999993,x,0.7386514999998326,None,384.0214834999997,,,,,,,,,,NU_th,001,2025-03-07_12h23.12.522,MainFlow,2024.2.4,107.35419153672241,2025-03-07 12h23.32.847776 +0700,
1,70,1,word/wordth0701.png,image/True/img70.png,96,96,0,z,0.7291857999998683,None,0,96,96,96,386.4754746999997,,,,,,,387.9797271999996,387.4863676999994,387.4930480999992,387.4930480999992,387.9733814000001,389.17716159999964,389.17716159999964,z,0.7291857999998683,None,,,,,,,,,,,NU_th,001,2025-03-07_12h23.12.522,MainFlow,2024.2.4,107.35419153672241,2025-03-07 12h23.32.847776 +0700,
1,94,0,word/wordth0941.png,image/False/imgf94.png,97,97,0,x,0.6453944999993837,None,0,97,97,97,389.91994909999994,,,,,,,391.4234526,390.9385309999998,390.9452373999993,390.9452373999993,391.4171484999997,392.6694981999999,392.6694981999999,x,0.6453944999993837,None,390.9452373999993,,,,,,,,,,NU_th,001,2025-03-07_12h23.12.522,MainFlow,2024.2.4,107.35419153672241,2025-03-07 12h23.32.847776 +0700,
1,9,0,word/wordth0091.png,image/False/imgf09.png,98,98,0,x,0.5823965999998109,None,0,98,98,98,393.32807460000004,,,,,,,394.8324383999998,394.3475596999997,394.35395419999986,394.35395419999986,394.8262810999995,395.99651229999927,395.99651229999927,x,0.5823965999998109,None,394.35395419999986,,,,,,,,,,NU_th,001,2025-03-07_12h23.12.522,MainFlow,2024.2.4,107.35419153672241,2025-03-07 12h23.32.847776 +0700,
1,18,0,word/wordth0181.png,image/False/imgf18.png,99,99,0,x,0.7508758000003581,None,0,99,99,99,396.59149049999996,,,,,,,398.0955822999995,397.60943549999956,397.6160009999994,397.6160009999994,398.08934919999956,399.3015617000001,399.3015617000001,x,0.7508758000003581,None,397.6160009999994,,,,,,,,,,NU_th,001,2025-03-07_12h23.12.522,MainFlow,2024.2.4,107.35419153672241,2025-03-07 12h23.32.847776 +0700,
1,28,1,word/wordth0281.png,image/True/img28.png,100,100,0,z,0.8598581000005652,None,0,100,100,100,400.06311689999984,,,,,,,401.56721500000003,401.0736385,401.0803882,401.0803882,401.56106610000006,402.8101201999998,402.8101201999998,z,0.8598581000005652,None,,,,,,,,,,,NU_th,001,2025-03-07_12h23.12.522,MainFlow,2024.2.4,107.35419153672241,2025-03-07 12h23.32.847776 +0700,
1,23,1,word/wordth0231.png,image/True/img23.png,101,101,0,z,0.6812355999991269,None,0,101,101,101,403.68093599999975,,,,,,,405.1846160999994,404.69183019999946,404.6983531999995,404.6983531999995,405.1784412999996,406.39577969999937,406.39577969999937,z,0.6812355999991269,None,,,,,,,,,,,NU_th,001,2025-03-07_12h23.12.522,MainFlow,2024.2.4,107.35419153672241,2025-03-07 12h23.32.847776 +0700,
1,30,0,word/wordth0301.png,image/False/imgf30.png,102,102,0,x,0.9076329999998052,None,0,102,102,102,407.08669609999924,,,,,,,408.5936093,408.10085789999994,408.10759509999934,408.10759509999934,408.58737779999956,409.77599329999975,409.77599329999975,x,0.9076329999998052,None,,,,,,,,,,,NU_th,001,2025-03-07_12h23.12.522,MainFlow,2024.2.4,107.35419153672241,2025-03-07 12h23.32.847776 +0700,
1,11,1,word/wordth0111.png,image/True/img11.png,103,103,0,z,2.3337012000001778,None,0,103,103,103,410.69358829999965,,,,,,,412.1834103000001,411.6898689999998,411.6937156999993,411.6937156999993,412.1785551999992,413.43976010000006,413.43976010000006,z,2.3337012000001778,None,413.43976010000006,412.1834103000001,412.1834103000001,,,,,,,,NU_th,001,2025-03-07_12h23.12.522,MainFlow,2024.2.4,107.35419153672241,2025-03-07 12h23.32.847776 +0700,
1,75,0,word/wordth0751.png,image/False/imgf75.png,104,104,0,x,0.9661760999997568,None,0,104,104,104,415.7827456999994,,,,,,,417.2864614,416.7975200000001,416.8027855,416.8027855,417.28020039999956,418.4974941999999,418.4974941999999,x,0.9661760999997568,None,416.8027855,,,,,,,,,,NU_th,001,2025-03-07_12h23.12.522,MainFlow,2024.2.4,107.35419153672241,2025-03-07 12h23.32.847776 +0700,
1,6,0,word/wordth0061.png,image/False/imgf06.png,105,105,0,x,1.717481100000441,None,0,105,105,105,419.47808239999995,,,,,,,420.9730544999993,420.4793927999999,420.4839388999999,420.4839388999999,420.96825999999965,422.1760058,422.1760058,x,1.717481100000441,None,422.1760058,420.9730544999993,420.9730544999993,,,,,,,,NU_th,001,2025-03-07_12h23.12.522,MainFlow,2024.2.4,107.35419153672241,2025-03-07 12h23.32.847776 +0700,
1,27,1,word/wordth0271.png,image/True/img27.png,106,106,0,z,0.8655311000002257,None,0,106,106,106,423.90806059999977,,,,,,,425.40975789999993,424.91054319999967,424.9155071999994,424.9155071999994,425.4034892999998,426.6672458999992,426.6672458999992,z,0.8655311000002257,None,,,,,,,,,,,NU_th,001,2025-03-07_12h23.12.522,MainFlow,2024.2.4,107.35419153672241,2025-03-07 12h23.32.847776 +0700,
1,1,1,word/wordth0011.png,image/True/img01.png,107,107,0,z,4.547221200000422,None,0,107,107,107,427.54595639999934,,,,,,,429.04793809999956,428.56263039999976,428.5691591999994,428.5691591999994,429.0416642,430.27115719999983,430.27115719999983,z,4.547221200000422,None,,,,,,,,,,,NU_th,001,2025-03-07_12h23.12.522,MainFlow,2024.2.4,107.35419153672241,2025-03-07 12h23.32.847776 +0700,
1,44,0,word/wordth0441.png,image/False/imgf44.png,108,108,0,x,3.340266799999881,None,0,108,108,108,434.8275834999995,,,,,,,436.33147009999993,435.8449619999992,435.8521987999993,435.8521987999993,436.32543540000006,437.5771686999997,437.5771686999997,x,3.340266799999881,None,435.8521987999993,,,,,,,,,,NU_th,001,2025-03-07_12h23.12.522,MainFlow,2024.2.4,107.35419153672241,2025-03-07 12h23.32.847776 +0700,
1,48,0,word/wordth0481.png,image/False/imgf48.png,109,109,0,x,2.563439599999583,None,0,109,109,109,440.93000649999976,,,,,,,442.43427429999974,441.9423993999999,441.94968900000003,441.94968900000003,442.42807939999966,443.6745578,443.6745578,x,2.563439599999583,None,,,,,,,,,,,NU_th,001,2025-03-07_12h23.12.522,MainFlow,2024.2.4,107.35419153672241,2025-03-07 12h23.32.847776 +0700,
1,60,0,word/wordth0601.png,image/False/imgf60.png,110,110,0,x,0.828216899999461,None,0,110,110,110,446.2481557000001,,,,,,,447.7388713999999,447.2437766999992,447.2483222000001,447.2483222000001,447.73394779999944,448.9453100999999,448.9453100999999,x,0.828216899999461,None,448.9453100999999,447.7388713999999,447.7388713999999,,,,,,,,NU_th,001,2025-03-07_12h23.12.522,MainFlow,2024.2.4,107.35419153672241,2025-03-07 12h23.32.847776 +0700,
1,96,1,word/wordth0961.png,image/True/img96.png,111,111,0,z,1.306263200000103,None,0,111,111,111,449.782827,,,,,,,451.2869065999994,450.79342389999965,450.8000435999993,450.8000435999993,451.2805843999995,452.5540301000001,452.5540301000001,z,1.306263200000103,None,,,,,,,,,,,NU_th,001,2025-03-07_12h23.12.522,MainFlow,2024.2.4,107.35419153672241,2025-03-07 12h23.32.847776 +0700,
1,79,0,word/wordth0791.png,image/False/imgf79.png,112,112,0,x,0.8637952999997651,None,0,112,112,112,453.8717643,,,,,,,455.37622699999974,454.8826435000001,454.88911459999963,454.88911459999963,455.37001359999977,456.5692355000001,456.5692355000001,x,0.8637952999997651,None,,,,,,,,,,,NU_th,001,2025-03-07_12h23.12.522,MainFlow,2024.2.4,107.35419153672241,2025-03-07 12h23.32.847776 +0700,
1,7,0,word/wordth0071.png,image/False/imgf07.png,113,113,0,x,0.9465550999993866,None,0,113,113,113,457.44722249999995,,,,,,,458.9518402999993,458.46320859999923,458.4695555999997,458.4695555999997,458.94573669999954,460.17630310000004,460.17630310000004,x,0.9465550999993866,None,458.4695555999997,,,,,,,,,,NU_th,001,2025-03-07_12h23.12.522,MainFlow,2024.2.4,107.35419153672241,2025-03-07 12h23.32.847776 +0700,
1,36,0,word/wordth0361.png,image/False/imgf36.png,114,114,0,x,1.0879386999995404,None,0,114,114,114,461.1351224,,,,,,,462.6387791999996,462.1508785999995,462.15723249999974,462.15723249999974,462.6326756999997,463.84440189999987,463.84440189999987,x,1.0879386999995404,None,462.15723249999974,,,,,,,,,,NU_th,001,2025-03-07_12h23.12.522,MainFlow,2024.2.4,107.35419153672241,2025-03-07 12h23.32.847776 +0700,
1,71,0,word/wordth0711.png,image/False/imgf71.png,115,115,0,x,0.7086774999997942,None,0,115,115,115,464.9488799999999,,,,,,,466.45039819999965,465.96460899999965,465.9712413999996,465.9712413999996,466.44429729999956,467.69521199999963,467.69521199999963,x,0.7086774999997942,None,,,,,,,,,,,NU_th,001,2025-03-07_12h23.12.522,MainFlow,2024.2.4,107.35419153672241,2025-03-07 12h23.32.847776 +0700,
1,20,0,word/wordth0201.png,image/False/imgf20.png,116,116,0,x,1.6133663000000524,None,0,116,116,116,468.41958259999956,,,,,,,469.9226356999998,469.43615919999957,469.4426383,469.4426383,469.91721400000006,471.1759084999994,471.1759084999994,x,1.6133663000000524,None,,,,,,,,,,,NU_th,001,2025-03-07_12h23.12.522,MainFlow,2024.2.4,107.35419153672241,2025-03-07 12h23.32.847776 +0700,
1,87,1,word/wordth0871.png,image/True/img87.png,117,117,0,z,1.6328388000001723,None,0,117,117,117,472.7970287999997,,,,,,,474.3031384999995,473.8120500999994,473.81869149999966,473.81869149999966,474.2968295999999,475.5081047999993,475.5081047999993,z,1.6328388000001723,None,,,,,,,,,,,NU_th,001,2025-03-07_12h23.12.522,MainFlow,2024.2.4,107.35419153672241,2025-03-07 12h23.32.847776 +0700,
1,50,0,word/wordth0501.png,image/False/imgf50.png,118,118,0,x,0.7835482999998931,None,0,118,118,118,477.1530823999992,,,,,,,478.6562105999992,478.17070369999965,478.17718759999934,478.17718759999934,478.64987070000006,479.8651052999994,479.8651052999994,x,0.7835482999998931,None,478.17718759999934,,,,,,,,,,NU_th,001,2025-03-07_12h23.12.522,MainFlow,2024.2.4,107.35419153672241,2025-03-07 12h23.32.847776 +0700,
1,18,1,word/wordth0181.png,image/True/img18.png,119,119,0,z,1.2445760999999038,None,0,119,119,119,480.6622204999994,,,,,,,482.16265399999975,481.67630179999924,481.6828531000001,481.6828531000001,482.1564531999993,483.32027799999923,483.32027799999923,z,1.2445760999999038,None,,,,,,,,,,,NU_th,001,2025-03-07_12h23.12.522,MainFlow,2024.2.4,107.35419153672241,2025-03-07 12h23.32.847776 +0700,
1,71,0,word/wordth0711.png,image/False/imgf71.png,120,120,0,x,0.5921656999998959,None,0,120,120,120,484.57442790000005,,,,,,,486.07862320000004,485.58521759999985,485.5916232999998,485.5916232999998,486.0723442999997,487.30983689999994,487.30983689999994,x,0.5921656999998959,None,,,,,,,,,,,NU_th,001,2025-03-07_12h23.12.522,MainFlow,2024.2.4,107.35419153672241,2025-03-07 12h23.32.847776 +0700,
1,46,1,word/wordth0461.png,image/True/img46.png,121,121,0,z,0.8779996000002939,None,0,121,121,121,487.9153613999997,,,,,,,489.41817999999967,488.9329147999997,488.9392404,488.9392404,489.4120712999993,490.6621691999999,490.6621691999999,z,0.8779996000002939,None,,,,,,,,,,,NU_th,001,2025-03-07_12h23.12.522,MainFlow,2024.2.4,107.35419153672241,2025-03-07 12h23.32.847776 +0700,
1,10,1,word/wordth0101.png,image/True/img10.png,122,122,0,z,1.4989988000006633,None,0,122,122,122,491.55011449999984,,,,,,,493.0564255999998,492.5620947999996,492.5689384999996,492.5689384999996,493.0502041,494.2401325000001,494.2401325000001,z,1.4989988000006633,None,,,,,,,,,,,NU_th,001,2025-03-07_12h23.12.522,MainFlow,2024.2.4,107.35419153672241,2025-03-07 12h23.32.847776 +0700,
1,16,0,word/wordth0161.png,image/False/imgf16.png,123,123,0,x,0.6708195999999589,None,0,123,123,123,495.75238329999956,,,,,,,497.2570077999999,496.7705270999995,496.77693249999993,496.77693249999993,497.25068119999924,498.4760034000001,498.4760034000001,x,0.6708195999999589,None,496.77693249999993,,,,,,,,,,NU_th,001,2025-03-07_12h23.12.522,MainFlow,2024.2.4,107.35419153672241,2025-03-07 12h23.32.847776 +0700,
1,15,0,word/wordth0151.png,image/False/imgf15.png,124,124,0,x,0.754797999999937,None,0,124,124,124,499.1574905999996,,,,,,,500.6589176999996,500.1729422999997,500.1796979999999,500.1796979999999,500.6526034999997,501.84757379999974,501.84757379999974,x,0.754797999999937,None,,,,,,,,,,,NU_th,001,2025-03-07_12h23.12.522,MainFlow,2024.2.4,107.35419153672241,2025-03-07 12h23.32.847776 +0700,
1,59,0,word/wordth0591.png,image/False/imgf59.png,125,125,0,x,0.6452986000003875,None,0,125,125,125,502.6139642999997,,,,,,,504.1171999999997,503.6233831999998,503.6297833999997,503.6297833999997,504.1114983999996,505.2624117999994,505.2624117999994,x,0.6452986000003875,None,,,,,,,,,,,NU_th,001,2025-03-07_12h23.12.522,MainFlow,2024.2.4,107.35419153672241,2025-03-07 12h23.32.847776 +0700,
1,11,0,word/wordth0111.png,image/False/imgf11.png,126,126,0,x,0.9421308999999383,None,0,126,126,126,505.9173664,,,,,,,507.42179399999986,506.92927749999944,506.9358874999998,506.9358874999998,507.41558429999986,508.66258070000003,508.66258070000003,x,0.9421308999999383,None,,,,,,,,,,,NU_th,001,2025-03-07_12h23.12.522,MainFlow,2024.2.4,107.35419153672241,2025-03-07 12h23.32.847776 +0700,
1,75,1,word/wordth0751.png,image/True/img75.png,127,127,0,z,2.0972498000000996,None,0,127,127,127,509.6154440999999,,,,,,,511.1224714,510.62799879999966,510.6343280000001,510.6343280000001,511.11612220000006,512.3298262999997,512.3298262999997,z,2.0972498000000996,None,,,,,,,,,,,NU_th,001,2025-03-07_12h23.12.522,MainFlow,2024.2.4,107.35419153672241,2025-03-07 12h23.32.847776 +0700,
1,33,1,word/wordth0331.png,image/True/img33.png,128,128,0,z,5.507385300000351,None,0,128,128,128,514.4368593999998,,,,,,,515.9410312999998,515.4478897999998,515.4544840999997,515.4544840999997,515.9348121999992,517.1653262,517.1653262,z,5.507385300000351,None,,,,,,,,,,,NU_th,001,2025-03-07_12h23.12.522,MainFlow,2024.2.4,107.35419153672241,2025-03-07 12h23.32.847776 +0700,
1,66,0,word/wordth0661.png,image/False/imgf66.png,129,129,0,x,1.0304211000002397,None,0,129,129,129,522.6855820999999,,,,,,,524.1894683,523.7053060999997,523.7130140999998,523.7130140999998,524.1831214999993,525.4107774999993,525.4107774999993,x,1.0304211000002397,None,523.7130140999998,,,,,,,,,,NU_th,001,2025-03-07_12h23.12.522,MainFlow,2024.2.4,107.35419153672241,2025-03-07 12h23.32.847776 +0700,
1,38,1,word/wordth0381.png,image/True/img38.png,130,130,0,z,0.6293509999995877,None,0,130,130,130,526.4572668999999,,,,,,,527.9595357999997,527.4602949999999,527.4651789,527.4651789,527.9532945999999,529.1491493999993,529.1491493999993,z,0.6293509999995877,None,,,,,,,,,,,NU_th,001,2025-03-07_12h23.12.522,MainFlow,2024.2.4,107.35419153672241,2025-03-07 12h23.32.847776 +0700,
1,38,1,word/wordth0381.png,image/True/img38.png,131,131,0,z,0.53421679999974,None,0,131,131,131,529.7892339,,,,,,,531.2921382999994,530.8065031999995,530.8131057999999,530.8131057999999,531.2860290999997,532.4892406999998,532.4892406999998,z,0.53421679999974,None,,,,,,,,,,,NU_th,001,2025-03-07_12h23.12.522,MainFlow,2024.2.4,107.35419153672241,2025-03-07 12h23.32.847776 +0700,
1,63,1,word/wordth0631.png,image/True/img63.png,132,132,0,z,3.5719868999995015,None,0,132,132,132,533.0377768999997,,,,,,,534.5416464,534.0486707999999,534.0551531000001,534.0551531000001,534.5352896999993,535.7569765999997,535.7569765999997,z,3.5719868999995015,None,,,,,,,,,,,NU_th,001,2025-03-07_12h23.12.522,MainFlow,2024.2.4,107.35419153672241,2025-03-07 12h23.32.847776 +0700,
1,33,0,word/wordth0331.png,image/False/imgf33.png,133,133,0,x,0.7300249999998414,None,0,133,133,133,539.3427228,,,,,,,540.8455206999997,540.3595559999994,540.3663534999996,540.3663534999996,540.8391781,542.0646075999994,542.0646075999994,x,0.7300249999998414,None,540.3663534999996,,,,,,,,,,NU_th,001,2025-03-07_12h23.12.522,MainFlow,2024.2.4,107.35419153672241,2025-03-07 12h23.32.847776 +0700,
1,52,1,word/wordth0521.png,image/True/img52.png,134,134,0,z,0.7401381999998193,None,0,134,134,134,542.8066156999994,,,,,,,544.3106003999992,543.8227029999998,543.8301308999999,543.8301308999999,544.3043060999998,545.5028980999996,545.5028980999996,z,0.7401381999998193,None,543.8301308999999,,,,,,,,,,NU_th,001,2025-03-07_12h23.12.522,MainFlow,2024.2.4,107.35419153672241,2025-03-07 12h23.32.847776 +0700,
1,11,0,word/wordth0111.png,image/False/imgf11.png,135,135,0,x,0.6615904000000228,None,0,135,135,135,546.2581759999994,,,,,,,547.7612781999997,547.2749266999999,547.2814861999996,547.2814861999996,547.7550439999995,548.9914546999998,548.9914546999998,x,0.6615904000000228,None,,,,,,,,,,,NU_th,001,2025-03-07_12h23.12.522,MainFlow,2024.2.4,107.35419153672241,2025-03-07 12h23.32.847776 +0700,
1,1,0,word/wordth0011.png,image/False/imgf01.png,136,136,0,x,0.7553084000001036,None,0,136,136,136,549.6635696999992,,,,,,,551.1703398,550.6760832,550.6825672999994,550.6825672999994,551.1640717999999,552.340314,552.340314,x,0.7553084000001036,None,,,,,,,,,,,NU_th,001,2025-03-07_12h23.12.522,MainFlow,2024.2.4,107.35419153672241,2025-03-07 12h23.32.847776 +0700,
1,96,0,word/wordth0961.png,image/False/imgf96.png,137,137,0,x,0.7106810999994195,None,0,137,137,137,553.1118942999992,,,,,,,554.6143477999995,554.1140411999995,554.1187475999996,554.1187475999996,554.6077526999998,555.8122735999996,555.8122735999996,x,0.7106810999994195,None,,,,,,,,,,,NU_th,001,2025-03-07_12h23.12.522,MainFlow,2024.2.4,107.35419153672241,2025-03-07 12h23.32.847776 +0700,
1,57,1,word/wordth0571.png,image/True/img57.png,138,138,0,z,0.7513186999995014,None,0,138,138,138,556.5331032999993,,,,,,,558.0370521999994,557.5507979999993,557.5570934999996,557.5570934999996,558.0306438999996,559.2346073999997,559.2346073999997,z,0.7513186999995014,None,557.5570934999996,,,,,,,,,,NU_th,001,2025-03-07_12h23.12.522,MainFlow,2024.2.4,107.35419153672241,2025-03-07 12h23.32.847776 +0700,
1,30,1,word/wordth0301.png,image/True/img30.png,139,139,0,z,0.9446324999998978,None,0,139,139,139,559.9980240999994,,,,,,,561.5016472999996,561.0162249999994,561.0226479999992,561.0226479999992,561.4954009999992,562.6814796999997,562.6814796999997,z,0.9446324999998978,None,561.0226479999992,,,,,,,,,,NU_th,001,2025-03-07_12h23.12.522,MainFlow,2024.2.4,107.35419153672241,2025-03-07 12h23.32.847776 +0700,
1,41,1,word/wordth0411.png,image/True/img41.png,140,140,0,z,1.012763200000336,None,0,140,140,140,563.6357549999993,,,,,,,565.1397573999993,564.6487907000001,564.6553752999998,564.6553752999998,565.1335853,566.3524326999996,566.3524326999996,z,1.012763200000336,None,,,,,,,,,,,NU_th,001,2025-03-07_12h23.12.522,MainFlow,2024.2.4,107.35419153672241,2025-03-07 12h23.32.847776 +0700,
1,50,1,word/wordth0501.png,image/True/img50.png,141,141,0,z,1.6142545000002428,None,0,141,141,141,567.3755273999996,,,,,,,568.8821414999993,568.3886747999995,568.3953905999997,568.3953905999997,568.8760820999996,570.0812834999997,570.0812834999997,z,1.6142545000002428,None,,,,,,,,,,,NU_th,001,2025-03-07_12h23.12.522,MainFlow,2024.2.4,107.35419153672241,2025-03-07 12h23.32.847776 +0700,
1,3,0,word/wordth0031.png,image/False/imgf03.png,142,142,0,x,1.8232121000000916,None,0,142,142,142,571.7077510999998,,,,,,,573.2145671999997,572.7196571999993,572.7261438999994,572.7261438999994,573.2083622,574.3939095999995,574.3939095999995,x,1.8232121000000916,None,,,,,,,,,,,NU_th,001,2025-03-07_12h23.12.522,MainFlow,2024.2.4,107.35419153672241,2025-03-07 12h23.32.847776 +0700,
1,78,1,word/wordth0781.png,image/True/img78.png,143,143,0,z,0.46078490000036254,None,0,143,143,143,576.2277922999992,,,,,,,577.7345126,577.2407323999996,577.2473018999999,577.2473018999999,577.7283468999995,578.9448468,578.9448468,z,0.46078490000036254,None,,,,,,,,,,,NU_th,001,2025-03-07_12h23.12.522,MainFlow,2024.2.4,107.35419153672241,2025-03-07 12h23.32.847776 +0700,
1,76,0,word/wordth0761.png,image/False/imgf76.png,144,144,0,x,1.2945760000002338,None,0,144,144,144,579.4181209999997,,,,,,,580.9212841999997,580.4363630999997,580.4431254000001,580.4431254000001,580.9148563999997,582.2014239999999,582.2014239999999,x,1.2945760000002338,None,580.4431254000001,,,,,,,,,,NU_th,001,2025-03-07_12h23.12.522,MainFlow,2024.2.4,107.35419153672241,2025-03-07 12h23.32.847776 +0700,
1,6,1,word/wordth0061.png,image/True/img06.png,145,145,0,z,0.7860529999998107,None,0,145,145,145,583.5075392999997,,,,,,,585.0107337,584.5166122999999,584.5234339999997,584.5234339999997,585.0043743999995,586.1984169999996,586.1984169999996,z,0.7860529999998107,None,,,,,,,,,,,NU_th,001,2025-03-07_12h23.12.522,MainFlow,2024.2.4,107.35419153672241,2025-03-07 12h23.32.847776 +0700,
1,31,0,word/wordth0311.png,image/False/imgf31.png,146,146,0,x,0.6674338000002535,None,0,146,146,146,586.9943385999995,,,,,,,588.4965638999993,588.0111374999997,588.0179026999995,588.0179026999995,588.4903838,589.6311990999993,589.6311990999993,x,0.6674338000002535,None,,,,,,,,,,,NU_th,001,2025-03-07_12h23.12.522,MainFlow,2024.2.4,107.35419153672241,2025-03-07 12h23.32.847776 +0700,
1,22,0,word/wordth0221.png,image/False/imgf22.png,147,147,0,x,0.8135646000000634,None,0,147,147,147,590.3133496,,,,,,,591.8151482999992,591.3297522999992,591.3363913999992,591.3363913999992,591.8087957999996,593.0342191999998,593.0342191999998,x,0.8135646000000634,None,,,,,,,,,,,NU_th,001,2025-03-07_12h23.12.522,MainFlow,2024.2.4,107.35419153672241,2025-03-07 12h23.32.847776 +0700,
1,28,0,word/wordth0281.png,image/False/imgf28.png,148,148,0,x,0.8231724000006579,None,0,148,148,148,593.8587963999998,,,,,,,595.3632208999998,594.8698863,594.8767195,594.8767195,595.3569979999993,596.5648793,596.5648793,x,0.8231724000006579,None,,,,,,,,,,,NU_th,001,2025-03-07_12h23.12.522,MainFlow,2024.2.4,107.35419153672241,2025-03-07 12h23.32.847776 +0700,
1,57,0,word/wordth0571.png,image/False/imgf57.png,149,149,0,x,1.5061249999998836,None,0,149,149,149,597.4009768999995,,,,,,,598.8970712999999,598.4033664999997,598.4081335999999,598.4081335999999,598.8920324999999,600.1332619999994,600.1332619999994,x,1.5061249999998836,None,600.1332619999994,598.8970712999999,598.8970712999999,,,,,,,,NU_th,001,2025-03-07_12h23.12.522,MainFlow,2024.2.4,107.35419153672241,2025-03-07 12h23.32.847776 +0700,
1,7,0,word/wordth0071.png,image/False/imgf07.png,150,150,0,x,0.6163679000001139,None,0,150,150,150,601.6493425999997,,,,,,,603.1532643,602.6658780999996,602.6727364999997,602.6727364999997,603.1470584999997,604.3456308999994,604.3456308999994,x,0.6163679000001139,None,602.6727364999997,,,,,,,,,,NU_th,001,2025-03-07_12h23.12.522,MainFlow,2024.2.4,107.35419153672241,2025-03-07 12h23.32.847776 +0700,
1,56,1,word/wordth0561.png,image/True/img56.png,151,151,0,z,0.7112839000001259,None,0,151,151,151,604.9741549999999,,,,,,,606.4789885,605.9938907999995,606.0004742000001,606.0004742000001,606.4727484999994,607.6543732999999,607.6543732999999,z,0.7112839000001259,None,606.0004742000001,,,,,,,,,,NU_th,001,2025-03-07_12h23.12.522,MainFlow,2024.2.4,107.35419153672241,2025-03-07 12h23.32.847776 +0700,
1,6,0,word/wordth0061.png,image/False/imgf06.png,152,152,0,x,2.371785799999998,None,0,152,152,152,608.3835039999994,,,,,,,609.8880685999993,609.3932304999998,609.3998302999998,609.3998302999998,609.8818128999992,611.0627593999998,611.0627593999998,x,2.371785799999998,None,,,,,,,,,,,NU_th,001,2025-03-07_12h23.12.522,MainFlow,2024.2.4,107.35419153672241,2025-03-07 12h23.32.847776 +0700,
1,36,0,word/wordth0361.png,image/False/imgf36.png,153,153,0,x,3.279941900000267,None,0,153,153,153,613.4456144999995,,,,,,,614.9496602999998,614.4585111999995,614.4650555999997,614.4650555999997,614.9433427999993,616.1411394999996,616.1411394999996,x,3.279941900000267,None,,,,,,,,,,,NU_th,001,2025-03-07_12h23.12.522,MainFlow,2024.2.4,107.35419153672241,2025-03-07 12h23.32.847776 +0700,
1,79,1,word/wordth0791.png,image/True/img79.png,154,154,0,z,6.130735200000345,None,0,154,154,154,619.4308686999993,,,,,,,620.9274691999999,620.4283422999997,620.4333739999993,620.4333739999993,620.9225140999997,622.1474989999997,622.1474989999997,z,6.130735200000345,None,,620.9274691999999,620.9274691999999,,,,,,,,NU_th,001,2025-03-07_12h23.12.522,MainFlow,2024.2.4,107.35419153672241,2025-03-07 12h23.32.847776 +0700,
1,52,0,word/wordth0521.png,image/False/imgf52.png,155,155,0,x,0.6622243000001617,None,0,155,155,155,628.2904269999999,,,,,,,629.7938946999993,629.2951075000001,629.2997682999994,629.2997682999994,629.7876827999999,631.0406015999997,631.0406015999997,x,0.6622243000001617,None,629.2997682999994,,,,,,,,,,NU_th,001,2025-03-07_12h23.12.522,MainFlow,2024.2.4,107.35419153672241,2025-03-07 12h23.32.847776 +0700,
1,18,0,word/wordth0181.png,image/False/imgf18.png,156,156,0,x,0.6322321999996348,None,0,156,156,156,631.7126033999994,,,,,,,633.2168830999999,632.7252903999997,632.7301422,632.7301422,633.2105521999993,634.4636369,634.4636369,x,0.6322321999996348,None,,,,,,,,,,,NU_th,001,2025-03-07_12h23.12.522,MainFlow,2024.2.4,107.35419153672241,2025-03-07 12h23.32.847776 +0700,
1,23,1,word/wordth0231.png,image/True/img23.png,157,157,0,z,1.3772734000003766,None,0,157,157,157,635.1085266999999,,,,,,,636.6122391999997,636.1263317999992,636.1329562999999,636.1329562999999,636.6060693,637.8344466999997,637.8344466999997,z,1.3772734000003766,None,636.1329562999999,,,,,,,,,,NU_th,001,2025-03-07_12h23.12.522,MainFlow,2024.2.4,107.35419153672241,2025-03-07 12h23.32.847776 +0700,
1,61,1,word/wordth0611.png,image/True/img61.png,158,158,0,z,2.9300642999996853,None,0,158,158,158,639.2258277999999,,,,,,,640.7293851999993,640.2456495999995,640.2521577999996,640.2521577999996,640.7233263999997,641.9401308999995,641.9401308999995,z,2.9300642999996853,None,640.2521577999996,,,,,,,,,,NU_th,001,2025-03-07_12h23.12.522,MainFlow,2024.2.4,107.35419153672241,2025-03-07 12h23.32.847776 +0700,
1,44,1,word/wordth0441.png,image/True/img44.png,159,159,0,z,0.7576073999998698,None,0,159,159,159,644.8842357999993,,,,,,,646.3878652999992,645.9012294999993,645.9077146999998,645.9077146999998,646.3816245999997,647.5878317999995,647.5878317999995,z,0.7576073999998698,None,645.9077146999998,,,,,,,,,,NU_th,001,2025-03-07_12h23.12.522,MainFlow,2024.2.4,107.35419153672241,2025-03-07 12h23.32.847776 +0700,
1,10,1,word/wordth0101.png,image/True/img10.png,160,160,0,z,1.0523694999992586,None,0,160,160,160,648.3558902999994,,,,,,,649.8595410999997,649.3716270999994,649.3799598999994,649.3799598999994,649.8533082999993,651.0547008999993,651.0547008999993,z,1.0523694999992586,None,649.3799598999994,,,,,,,,,,NU_th,001,2025-03-07_12h23.12.522,MainFlow,2024.2.4,107.35419153672241,2025-03-07 12h23.32.847776 +0700,
1,31,1,word/wordth0311.png,image/True/img31.png,161,161,0,z,0.5059784999994008,None,0,161,161,161,652.1216362999994,,,,,,,653.6226731999996,653.1385111999998,653.1449401,653.1449401,653.6163596999995,654.8031408999996,654.8031408999996,z,0.5059784999994008,None,,,,,,,,,,,NU_th,001,2025-03-07_12h23.12.522,MainFlow,2024.2.4,107.35419153672241,2025-03-07 12h23.32.847776 +0700,
1,14,0,word/wordth0141.png,image/False/imgf14.png,162,162,0,x,1.2657507000003534,None,0,162,162,162,655.3201209999997,,,,,,,656.8235324999996,656.3378763999999,656.3443748,656.3443748,656.8171474000001,658.0322116999996,658.0322116999996,x,1.2657507000003534,None,656.3443748,,,,,,,,,,NU_th,001,2025-03-07_12h23.12.522,MainFlow,2024.2.4,107.35419153672241,2025-03-07 12h23.32.847776 +0700,
1,15,0,word/wordth0151.png,image/False/imgf15.png,163,163,0,x,1.0706453000002512,None,0,163,163,163,659.3136350999994,,,,,,,660.8157840999993,660.3308952999996,660.3373644999992,660.3373644999992,660.8095294999994,662.0086193999996,662.0086193999996,x,1.0706453000002512,None,,,,,,,,,,,NU_th,001,2025-03-07_12h23.12.522,MainFlow,2024.2.4,107.35419153672241,2025-03-07 12h23.32.847776 +0700,
1,51,1,word/wordth0511.png,image/True/img51.png,164,164,0,z,0.8213760999997248,None,0,164,164,164,663.0890181999994,,,,,,,664.5929405999996,664.1053597,664.1117922999993,664.1117922999993,664.5868023999992,665.7896154,665.7896154,z,0.8213760999997248,None,664.1117922999993,,,,,,,,,,NU_th,001,2025-03-07_12h23.12.522,MainFlow,2024.2.4,107.35419153672241,2025-03-07 12h23.32.847776 +0700,
1,82,1,word/wordth0821.png,image/True/img82.png,165,165,0,z,1.6387134999995396,None,0,165,165,165,666.6234053999997,,,,,,,668.1269437000001,667.6386235999998,667.6453054999993,667.6453054999993,668.1207353,669.2895991999994,669.2895991999994,z,1.6387134999995396,None,667.6453054999993,,,,,,,,,,NU_th,001,2025-03-07_12h23.12.522,MainFlow,2024.2.4,107.35419153672241,2025-03-07 12h23.32.847776 +0700,
1,27,0,word/wordth0271.png,image/False/imgf27.png,166,166,0,x,0.9692182999997385,None,0,166,166,166,670.9414413999993,,,,,,,672.4456948999996,671.9596377999997,671.966316,671.966316,672.4395213999996,673.6283767999994,673.6283767999994,x,0.9692182999997385,None,671.966316,,,,,,,,,,NU_th,001,2025-03-07_12h23.12.522,MainFlow,2024.2.4,107.35419153672241,2025-03-07 12h23.32.847776 +0700,
1,78,0,word/wordth0781.png,image/False/imgf78.png,167,167,0,x,1.0599413999998433,None,0,167,167,167,674.6072793999992,,,,,,,676.1115381999998,675.6237508999993,675.6303848999996,675.6303848999996,676.1051869999992,677.2686771999997,677.2686771999997,x,1.0599413999998433,None,675.6303848999996,,,,,,,,,,NU_th,001,2025-03-07_12h23.12.522,MainFlow,2024.2.4,107.35419153672241,2025-03-07 12h23.32.847776 +0700,
1,89,1,word/wordth0891.png,image/True/img89.png,168,168,0,z,1.0079050000003917,None,0,168,168,168,678.3434875999992,,,,,,,679.8468270999992,679.3612188999996,679.3678788999996,679.3678788999996,679.8407176999999,681.0131031999999,681.0131031999999,z,1.0079050000003917,None,679.3678788999996,,,,,,,,,,NU_th,001,2025-03-07_12h23.12.522,MainFlow,2024.2.4,107.35419153672241,2025-03-07 12h23.32.847776 +0700,
1,76,1,word/wordth0761.png,image/True/img76.png,169,169,0,z,0.6401294999996026,None,0,169,169,169,682.0299375999994,,,,,,,683.5336449999995,683.0486613999992,683.0551219999998,683.0551219999998,683.5274794999996,684.7410494999995,684.7410494999995,z,0.6401294999996026,None,683.0551219999998,,,,,,,,,,NU_th,001,2025-03-07_12h23.12.522,MainFlow,2024.2.4,107.35419153672241,2025-03-07 12h23.32.847776 +0700,
1,17,0,word/wordth0171.png,image/False/imgf17.png,170,170,0,x,2.094804500000464,None,0,170,170,170,685.3903420999995,,,,,,,686.8937863000001,686.4075006999992,686.4137867,686.4137867,686.8873807,688.1064754999998,688.1064754999998,x,2.094804500000464,None,686.4137867,,,,,,,,,,NU_th,001,2025-03-07_12h23.12.522,MainFlow,2024.2.4,107.35419153672241,2025-03-07 12h23.32.847776 +0700,
1,95,1,word/wordth0951.png,image/True/img95.png,171,171,0,z,0.741141699999389,None,0,171,171,171,690.2164119999998,,,,,,,691.7193312999998,691.2350923999993,691.2416409999996,691.2416409999996,691.7130023999998,692.9914288,692.9914288,z,0.741141699999389,None,691.2416409999996,,,,,,,,,,NU_th,001,2025-03-07_12h23.12.522,MainFlow,2024.2.4,107.35419153672241,2025-03-07 12h23.32.847776 +0700,
1,61,0,word/wordth0611.png,image/False/imgf61.png,172,172,0,x,1.1816907000002175,None,0,172,172,172,693.7429929,,,,,,,695.2467368999996,694.7544482999992,694.7608427999994,694.7608427999994,695.2403047999996,696.4504165999997,696.4504165999997,x,1.1816907000002175,None,,,,,,,,,,,NU_th,001,2025-03-07_12h23.12.522,MainFlow,2024.2.4,107.35419153672241,2025-03-07 12h23.32.847776 +0700,
1,82,1,word/wordth0821.png,image/True/img82.png,173,173,0,z,1.6532790999999634,None,0,173,173,173,697.6457313000001,,,,,,,699.1486202999995,698.6608788999993,698.6673721999996,698.6673721999996,699.1424582999998,700.2952492999993,700.2952492999993,z,1.6532790999999634,None,,,,,,,,,,,NU_th,001,2025-03-07_12h23.12.522,MainFlow,2024.2.4,107.35419153672241,2025-03-07 12h23.32.847776 +0700,
1,14,1,word/wordth0141.png,image/True/img14.png,174,174,0,z,0.9883053999992626,None,0,174,174,174,701.9625006999995,,,,,,,703.4673348999995,702.9800710999998,702.9867787999992,702.9867787999992,703.4610866999992,704.6705962999995,704.6705962999995,z,0.9883053999992626,None,702.9867787999992,,,,,,,,,,NU_th,001,2025-03-07_12h23.12.522,MainFlow,2024.2.4,107.35419153672241,2025-03-07 12h23.32.847776 +0700,
1,38,0,word/wordth0381.png,image/False/imgf38.png,175,175,0,x,0.8322342000001299,None,0,175,175,175,705.6705225999995,,,,,,,707.1749986999994,706.6825223999995,706.6888591999996,706.6888591999996,707.1687174999997,708.4150968999993,708.4150968999993,x,0.8322342000001299,None,,,,,,,,,,,NU_th,001,2025-03-07_12h23.12.522,MainFlow,2024.2.4,107.35419153672241,2025-03-07 12h23.32.847776 +0700,
1,17,0,word/wordth0171.png,image/False/imgf17.png,176,176,0,x,1.633833300000333,None,0,176,176,176,709.2576693000001,,,,,,,710.7643824999996,710.2713691999998,710.2778705999999,710.2778705999999,710.7581243999994,712.0070736999996,712.0070736999996,x,1.633833300000333,None,,,,,,,,,,,NU_th,001,2025-03-07_12h23.12.522,MainFlow,2024.2.4,107.35419153672241,2025-03-07 12h23.32.847776 +0700,
1,42,0,word/wordth0421.png,image/False/imgf42.png,177,177,0,x,1.1536127999997916,None,0,177,177,177,713.6562650999995,,,,,,,715.1594544999998,714.6754186999997,714.6819427,714.6819427,715.1532794999994,716.3923582999996,716.3923582999996,x,1.1536127999997916,None,714.6819427,,,,,,,,,,NU_th,001,2025-03-07_12h23.12.522,MainFlow,2024.2.4,107.35419153672241,2025-03-07 12h23.32.847776 +0700,
1,24,1,word/wordth0241.png,image/True/img24.png,178,178,0,z,2.774358700000448,None,0,178,178,178,717.5571626999999,,,,,,,719.0544317999993,718.5611276,718.5652444999996,718.5652444999996,719.0494134,720.1990208999996,720.1990208999996,z,2.774358700000448,None,718.5652444999996,719.0544317999993,719.0544317999993,,,,,,,,NU_th,001,2025-03-07_12h23.12.522,MainFlow,2024.2.4,107.35419153672241,2025-03-07 12h23.32.847776 +0700,
1,51,1,word/wordth0511.png,image/True/img51.png,179,179,0,z,0.568684700000631,None,0,179,179,179,722.9863581,,,,,,,724.4911397999995,724.0042784999996,724.0109188999995,724.0109188999995,724.4848757,725.7176573999996,725.7176573999996,z,0.568684700000631,None,724.0109188999995,,,,,,,,,,NU_th,001,2025-03-07_12h23.12.522,MainFlow,2024.2.4,107.35419153672241,2025-03-07 12h23.32.847776 +0700,
1,24,0,word/wordth0241.png,image/False/imgf24.png,180,180,0,x,0.6740174000005936,None,0,180,180,180,726.2987907999996,,,,,,,727.8029489,727.3171634,727.3238646999998,727.3238646999998,727.7965808999998,728.9907528999993,728.9907528999993,x,0.6740174000005936,None,727.3238646999998,,,,,,,,,,NU_th,001,2025-03-07_12h23.12.522,MainFlow,2024.2.4,107.35419153672241,2025-03-07 12h23.32.847776 +0700,
1,23,0,word/wordth0231.png,image/False/imgf23.png,181,181,0,x,0.6749329999993279,None,0,181,181,181,729.6732425,,,,,,,731.1772925999994,730.6917113999998,730.6988504999999,730.6988504999999,731.1709443,732.4029972999997,732.4029972999997,x,0.6749329999993279,None,730.6988504999999,,,,,,,,,,NU_th,001,2025-03-07_12h23.12.522,MainFlow,2024.2.4,107.35419153672241,2025-03-07 12h23.32.847776 +0700,
1,6,1,word/wordth0061.png,image/True/img06.png,182,182,0,z,1.0843205000001035,None,0,182,182,182,733.0887016999995,,,,,,,734.5932313999992,734.0980858999992,734.1052157999993,734.1052157999993,734.5869425999999,735.7696541999994,735.7696541999994,z,1.0843205000001035,None,,,,,,,,,,,NU_th,001,2025-03-07_12h23.12.522,MainFlow,2024.2.4,107.35419153672241,2025-03-07 12h23.32.847776 +0700,
1,93,1,word/wordth0931.png,image/True/img93.png,183,183,0,z,2.32330599999932,None,0,183,183,183,736.8672074999995,,,,,,,738.3702355999994,737.8837242999998,737.8902215999997,737.8902215999997,738.3639901999995,739.543694,739.543694,z,2.32330599999932,None,,,,,,,,,,,NU_th,001,2025-03-07_12h23.12.522,MainFlow,2024.2.4,107.35419153672241,2025-03-07 12h23.32.847776 +0700,
1,38,0,word/wordth0381.png,image/False/imgf38.png,184,184,0,x,0.8602113000006284,None,0,184,184,184,741.8794457999993,,,,,,,743.3831293999992,742.8986974999998,742.9052456,742.9052456,743.3768459999992,744.6251041999994,744.6251041999994,x,0.8602113000006284,None,742.9052456,,,,,,,,,,NU_th,001,2025-03-07_12h23.12.522,MainFlow,2024.2.4,107.35419153672241,2025-03-07 12h23.32.847776 +0700,
1,57,1,word/wordth0571.png,image/True/img57.png,185,185,0,z,0.59554449999996,None,0,185,185,185,745.4940326999995,,,,,,,747.0005775,746.5062613,746.5141488999998,746.5141488999998,746.9942732,748.2173184999992,748.2173184999992,z,0.59554449999996,None,,,,,,,,,,,NU_th,001,2025-03-07_12h23.12.522,MainFlow,2024.2.4,107.35419153672241,2025-03-07 12h23.32.847776 +0700,
1,40,1,word/wordth0401.png,image/True/img40.png,186,186,0,z,1.2814046000003145,None,0,186,186,186,748.8282614999998,,,,,,,750.3262071999998,749.8257987999996,749.8311913999996,749.8311913999996,750.3211498999999,751.5858543999993,751.5858543999993,z,1.2814046000003145,None,,750.3262071999998,750.3262071999998,,,,,,,,NU_th,001,2025-03-07_12h23.12.522,MainFlow,2024.2.4,107.35419153672241,2025-03-07 12h23.32.847776 +0700,
1,50,0,word/wordth0501.png,image/False/imgf50.png,187,187,0,x,0.8310307000001558,None,0,187,187,187,752.8770421999998,,,,,,,754.3808356999998,753.8955087999993,753.9019503,753.9019503,754.3743834999996,755.5774666999996,755.5774666999996,x,0.8310307000001558,None,753.9019503,,,,,,,,,,NU_th,001,2025-03-07_12h23.12.522,MainFlow,2024.2.4,107.35419153672241,2025-03-07 12h23.32.847776 +0700,
1,66,0,word/wordth0661.png,image/False/imgf66.png,188,188,0,x,0.7718496999996205,None,0,188,188,188,756.4184918000001,,,,,,,757.9219354999996,757.4349372999995,757.4414434,757.4414434,757.9157169,759.1263722999993,759.1263722999993,x,0.7718496999996205,None,757.4414434,,,,,,,,,,NU_th,001,2025-03-07_12h23.12.522,MainFlow,2024.2.4,107.35419153672241,2025-03-07 12h23.32.847776 +0700,
1,44,0,word/wordth0441.png,image/False/imgf44.png,189,189,0,x,0.7027494000003571,None,0,189,189,189,759.9074608000001,,,,,,,761.4144452,760.9203582999999,760.9266430999996,760.9266430999996,761.4080913999996,762.6334465,762.6334465,x,0.7027494000003571,None,,,,,,,,,,,NU_th,001,2025-03-07_12h23.12.522,MainFlow,2024.2.4,107.35419153672241,2025-03-07 12h23.32.847776 +0700,
1,75,0,word/wordth0751.png,image/False/imgf75.png,190,190,0,x,0.929334899999958,None,0,190,190,190,763.3443444999994,,,,,,,764.8511828000001,764.3573799999995,764.3640507999999,764.3640507999999,764.8454879999999,766.034858,766.034858,x,0.929334899999958,None,,,,,,,,,,,NU_th,001,2025-03-07_12h23.12.522,MainFlow,2024.2.4,107.35419153672241,2025-03-07 12h23.32.847776 +0700,
1,31,0,word/wordth0311.png,image/False/imgf31.png,191,191,0,x,0.8747497000003932,None,0,191,191,191,766.9792398999998,,,,,,,768.4826748999994,767.9968952999998,768.0035373999999,768.0035373999999,768.4762793,769.6494665999999,769.6494665999999,x,0.8747497000003932,None,768.0035373999999,,,,,,,,,,NU_th,001,2025-03-07_12h23.12.522,MainFlow,2024.2.4,107.35419153672241,2025-03-07 12h23.32.847776 +0700,
1,87,1,word/wordth0871.png,image/True/img87.png,192,192,0,z,0.8549597999999605,None,0,192,192,192,770.5335779999996,,,,,,,772.0371812999992,771.5501572999992,771.5570180999994,771.5570180999994,772.0308642,773.2843482999997,773.2843482999997,z,0.8549597999999605,None,771.5570180999994,,,,,,,,,,NU_th,001,2025-03-07_12h23.12.522,MainFlow,2024.2.4,107.35419153672241,2025-03-07 12h23.32.847776 +0700,
1,33,1,word/wordth0331.png,image/True/img33.png,193,193,0,z,1.5811835000004066,None,0,193,193,193,774.1515687000001,,,,,,,775.6547953999998,775.1670696000001,775.1737917,775.1737917,775.6484356000001,776.8747390999997,776.8747390999997,z,1.5811835000004066,None,775.1737917,,,,,,,,,,NU_th,001,2025-03-07_12h23.12.522,MainFlow,2024.2.4,107.35419153672241,2025-03-07 12h23.32.847776 +0700,
1,70,0,word/wordth0701.png,image/False/imgf70.png,194,194,0,x,1.168939500000306,None,0,194,194,194,778.4695159999992,,,,,,,779.9732164999996,779.4886481999993,779.4951877999993,779.4951877999993,779.9670831999993,781.1417048999992,781.1417048999992,x,1.168939500000306,None,779.4951877999993,,,,,,,,,,NU_th,001,2025-03-07_12h23.12.522,MainFlow,2024.2.4,107.35419153672241,2025-03-07 12h23.32.847776 +0700,
1,27,1,word/wordth0271.png,image/True/img27.png,195,195,0,z,0.9967280000000756,None,0,195,195,195,782.3241119999993,,,,,,,783.8267345999993,783.3404022999994,783.3470915999997,783.3470915999997,783.8205168999993,785.0097716,785.0097716,z,0.9967280000000756,None,,,,,,,,,,,NU_th,001,2025-03-07_12h23.12.522,MainFlow,2024.2.4,107.35419153672241,2025-03-07 12h23.32.847776 +0700,
1,88,1,word/wordth0881.png,image/True/img88.png,196,196,0,z,1.1362038000006578,None,0,196,196,196,786.0162332999998,,,,,,,787.5204220999995,787.0292235999996,787.0371267999999,787.0371267999999,787.5141035999995,788.7450910999996,788.7450910999996,z,1.1362038000006578,None,,,,,,,,,,,NU_th,001,2025-03-07_12h23.12.522,MainFlow,2024.2.4,107.35419153672241,2025-03-07 12h23.32.847776 +0700,
1,87,0,word/wordth0871.png,image/False/imgf87.png,197,197,0,x,0.8993896000001769,None,0,197,197,197,789.8877329999996,,,,,,,791.3948487999996,790.9000140999997,790.9064682999997,790.9064682999997,791.3885743999999,792.6475774999999,792.6475774999999,x,0.8993896000001769,None,,,,,,,,,,,NU_th,001,2025-03-07_12h23.12.522,MainFlow,2024.2.4,107.35419153672241,2025-03-07 12h23.32.847776 +0700,
1,11,1,word/wordth0111.png,image/True/img11.png,198,198,0,z,1.6770392999997057,None,0,198,198,198,793.558164,,,,,,,795.0606573999994,794.5674008999995,794.5737978999996,794.5737978999996,795.0547203999995,796.3046795,796.3046795,z,1.6770392999997057,None,,,,,,,,,,,NU_th,001,2025-03-07_12h23.12.522,MainFlow,2024.2.4,107.35419153672241,2025-03-07 12h23.32.847776 +0700,
1,61,0,word/wordth0611.png,image/False/imgf61.png,199,199,0,x,0.6133537999994587,None,0,199,199,199,797.9949843999993,,,,,,,799.4973461,799.0140787,799.0212836999999,799.0212836999999,799.4912980999998,800.7250371999999,800.7250371999999,x,0.6133537999994587,None,,,,,,,,,,,NU_th,001,2025-03-07_12h23.12.522,MainFlow,2024.2.4,107.35419153672241,2025-03-07 12h23.32.847776 +0700,
1,15,1,word/wordth0151.png,image/True/img15.png,200,200,0,z,0.6989673000007315,None,0,200,200,200,801.3474151,,,,,,,802.8506849999994,802.3663394999994,802.3728867,802.3728867,802.8445576999993,804.1212372,804.1212372,z,0.6989673000007315,None,802.3728867,,,,,,,,,,NU_th,001,2025-03-07_12h23.12.522,MainFlow,2024.2.4,107.35419153672241,2025-03-07 12h23.32.847776 +0700,
1,16,0,word/wordth0161.png,image/False/imgf16.png,201,201,0,x,1.8895174999997835,None,0,201,201,201,804.8332567999996,,,,,,,806.3362296999994,805.8506281999998,805.8570376999996,805.8570376999996,806.3300102999992,807.5585143999997,807.5585143999997,x,1.8895174999997835,None,,,,,,,,,,,NU_th,001,2025-03-07_12h23.12.522,MainFlow,2024.2.4,107.35419153672241,2025-03-07 12h23.32.847776 +0700,
1,63,0,word/wordth0631.png,image/False/imgf63.png,202,202,0,x,6.258988800000225,None,0,202,202,202,809.4582078999993,,,,,,,810.9603056999995,810.4724811999995,810.4788639999997,810.4788639999997,810.9542099,812.1622756999996,812.1622756999996,x,6.258988800000225,None,,,,,,,,,,,NU_th,001,2025-03-07_12h23.12.522,MainFlow,2024.2.4,107.35419153672241,2025-03-07 12h23.32.847776 +0700,
1,28,1,word/wordth0281.png,image/True/img28.png,203,203,0,z,0.4754267999996955,None,0,203,203,203,818.4348635999995,,,,,,,819.9377727000001,819.4522253999994,819.4588137000001,819.4588137000001,819.9320179999995,821.2448454999994,821.2448454999994,z,0.4754267999996955,None,,,,,,,,,,,NU_th,001,2025-03-07_12h23.12.522,MainFlow,2024.2.4,107.35419153672241,2025-03-07 12h23.32.847776 +0700,
1,89,1,word/wordth0891.png,image/True/img89.png,204,204,0,z,0.7065805000002001,None,0,204,204,204,821.7322353999998,,,,,,,823.2357255999996,822.7491399,822.7555262999995,822.7555262999995,823.2296480999994,824.4186022999993,824.4186022999993,z,0.7065805000002001,None,822.7555262999995,,,,,,,,,,NU_th,001,2025-03-07_12h23.12.522,MainFlow,2024.2.4,107.35419153672241,2025-03-07 12h23.32.847776 +0700,
1,76,0,word/wordth0761.png,image/False/imgf76.png,205,205,0,x,0.5521694999997635,None,0,205,205,205,825.1350058999997,,,,,,,826.6378256999997,826.1524532999993,826.1587366999993,826.1587366999993,826.6315803999996,827.8602893999996,827.8602893999996,x,0.5521694999997635,None,,,,,,,,,,,NU_th,001,2025-03-07_12h23.12.522,MainFlow,2024.2.4,107.35419153672241,2025-03-07 12h23.32.847776 +0700,
1,51,0,word/wordth0511.png,image/False/imgf51.png,206,206,0,x,0.7196587999997064,None,0,206,206,206,828.4268742999993,,,,,,,829.9286392999993,829.4422623,829.4486719999995,829.4486719999995,829.922313,831.1060209999996,831.1060209999996,x,0.7196587999997064,None,,,,,,,,,,,NU_th,001,2025-03-07_12h23.12.522,MainFlow,2024.2.4,107.35419153672241,2025-03-07 12h23.32.847776 +0700,
1,26,0,word/wordth0261.png,image/False/imgf26.png,207,207,0,x,1.0266242000006969,None,0,207,207,207,831.8349427999992,,,,,,,833.3379118999992,832.8515535999995,832.8579798999999,832.8579798999999,833.3316842999993,834.5561080999996,834.5561080999996,x,1.0266242000006969,None,832.8579798999999,,,,,,,,,,NU_th,001,2025-03-07_12h23.12.522,MainFlow,2024.2.4,107.35419153672241,2025-03-07 12h23.32.847776 +0700,
1,16,1,word/wordth0161.png,image/True/img16.png,208,208,0,z,1.0144159999999829,None,0,208,208,208,835.5980296999996,,,,,,,837.1012453999992,836.6154440999999,836.6221108999998,836.6221108999998,837.0950346,838.3299100999993,838.3299100999993,z,1.0144159999999829,None,836.6221108999998,,,,,,,,,,NU_th,001,2025-03-07_12h23.12.522,MainFlow,2024.2.4,107.35419153672241,2025-03-07 12h23.32.847776 +0700,
1,64,1,word/wordth0641.png,image/True/img64.png,209,209,0,z,0.7890060999998241,None,0,209,209,209,839.3544407999998,,,,,,,840.8574189000001,840.3699410999998,840.3766734000001,840.3766734000001,840.8512203999999,842.0088857999999,842.0088857999999,z,0.7890060999998241,None,840.3766734000001,,,,,,,,,,NU_th,001,2025-03-07_12h23.12.522,MainFlow,2024.2.4,107.35419153672241,2025-03-07 12h23.32.847776 +0700,
1,7,1,word/wordth0071.png,image/True/img07.png,210,210,0,z,0.7352277999998478,None,0,210,210,210,842.8109766999996,,,,,,,844.3152567999996,843.8270749999992,843.8338604,843.8338604,844.3089303999996,845.5220954999995,845.5220954999995,z,0.7352277999998478,None,843.8338604,,,,,,,,,,NU_th,001,2025-03-07_12h23.12.522,MainFlow,2024.2.4,107.35419153672241,2025-03-07 12h23.32.847776 +0700,
1,10,0,word/wordth0101.png,image/False/imgf10.png,211,211,0,x,0.6972208999995928,None,0,211,211,211,846.2697742,,,,,,,847.7725353999995,847.2784820999996,847.2851185999998,847.2851185999998,847.7661939,848.9788406999996,848.9788406999996,x,0.6972208999995928,None,,,,,,,,,,,NU_th,001,2025-03-07_12h23.12.522,MainFlow,2024.2.4,107.35419153672241,2025-03-07 12h23.32.847776 +0700,
1,22,1,word/wordth0221.png,image/True/img22.png,212,212,0,z,3.5676338000002943,None,0,212,212,212,849.6861257,,,,,,,851.1887491999996,850.7009565999997,850.7074778999995,850.7074778999995,851.1824578999995,852.4003616,852.4003616,z,3.5676338000002943,None,,,,,,,,,,,NU_th,001,2025-03-07_12h23.12.522,MainFlow,2024.2.4,107.35419153672241,2025-03-07 12h23.32.847776 +0700,
1,40,1,word/wordth0401.png,image/True/img40.png,213,213,0,z,0.7614184000003661,None,0,213,213,213,855.9841094999992,,,,,,,857.4862008,856.9974305999995,857.0038995999994,857.0038995999994,857.4803431999999,858.7276607999993,858.7276607999993,z,0.7614184000003661,None,,,,,,,,,,,NU_th,001,2025-03-07_12h23.12.522,MainFlow,2024.2.4,107.35419153672241,2025-03-07 12h23.32.847776 +0700,
1,57,0,word/wordth0571.png,image/False/imgf57.png,214,214,0,x,0.9501356000000669,None,0,214,214,214,859.5022247999996,,,,,,,861.0059891999999,860.5182983999994,860.5249422999996,860.5249422999996,860.9996320999999,862.2244082999996,862.2244082999996,x,0.9501356000000669,None,860.5249422999996,,,,,,,,,,NU_th,001,2025-03-07_12h23.12.522,MainFlow,2024.2.4,107.35419153672241,2025-03-07 12h23.32.847776 +0700,
1,50,1,word/wordth0501.png,image/True/img50.png,215,215,0,z,0.6691170000003694,None,0,215,215,215,863.1894763999999,,,,,,,864.6931265999992,864.2069180999997,864.2139489000001,864.2139489000001,864.6869118999994,865.8916673999993,865.8916673999993,z,0.6691170000003694,None,864.2139489000001,,,,,,,,,,NU_th,001,2025-03-07_12h23.12.522,MainFlow,2024.2.4,107.35419153672241,2025-03-07 12h23.32.847776 +0700,
1,64,0,word/wordth0641.png,image/False/imgf64.png,216,216,0,x,0.6357751999994434,None,0,216,216,216,866.5697336999992,,,,,,,868.0744535999993,867.5802481000001,867.5878838999997,867.5878838999997,868.0682403000001,869.2123980999995,869.2123980999995,x,0.6357751999994434,None,,,,,,,,,,,NU_th,001,2025-03-07_12h23.12.522,MainFlow,2024.2.4,107.35419153672241,2025-03-07 12h23.32.847776 +0700,
1,42,1,word/wordth0421.png,image/True/img42.png,217,217,0,z,0.5173452999997608,None,0,217,217,217,869.8584608000001,,,,,,,871.3653301999993,870.8726483,870.8793655,870.8793655,871.3593142,872.5700935999994,872.5700935999994,z,0.5173452999997608,None,,,,,,,,,,,NU_th,001,2025-03-07_12h23.12.522,MainFlow,2024.2.4,107.35419153672241,2025-03-07 12h23.32.847776 +0700,
1,56,0,word/wordth0561.png,image/False/imgf56.png,218,218,0,x,1.0690023999995901,None,0,218,218,218,873.1036402999998,,,,,,,874.6077661999998,874.1213054999998,874.1277604999996,874.1277604999996,874.6014335999998,875.841367,875.841367,x,1.0690023999995901,None,874.1277604999996,,,,,,,,,,NU_th,001,2025-03-07_12h23.12.522,MainFlow,2024.2.4,107.35419153672241,2025-03-07 12h23.32.847776 +0700,
1,22,1,word/wordth0221.png,image/True/img22.png,219,219,0,z,1.1147657000001345,None,0,219,219,219,876.9233470999998,,,,,,,878.4265087999993,877.9392429999998,877.9461299999994,877.9461299999994,878.4202787999993,879.6556575999994,879.6556575999994,z,1.1147657000001345,None,877.9461299999994,,,,,,,,,,NU_th,001,2025-03-07_12h23.12.522,MainFlow,2024.2.4,107.35419153672241,2025-03-07 12h23.32.847776 +0700,
1,82,0,word/wordth0821.png,image/False/imgf82.png,220,220,0,x,1.0719702999995206,None,0,220,220,220,880.7827038999994,,,,,,,882.2868117999997,881.8006784999998,881.8073346000001,881.8073346000001,882.2805487999995,883.4755439999999,883.4755439999999,x,1.0719702999995206,None,881.8073346000001,,,,,,,,,,NU_th,001,2025-03-07_12h23.12.522,MainFlow,2024.2.4,107.35419153672241,2025-03-07 12h23.32.847776 +0700,
1,54,1,word/wordth0541.png,image/True/img54.png,221,221,0,z,0.6587689999996655,None,0,221,221,221,884.5602931999993,,,,,,,886.0638413999995,885.5773652999997,885.5839194999999,885.5839194999999,886.0576066999993,887.2867649,887.2867649,z,0.6587689999996655,None,885.5839194999999,,,,,,,,,,NU_th,001,2025-03-07_12h23.12.522,MainFlow,2024.2.4,107.35419153672241,2025-03-07 12h23.32.847776 +0700,
1,55,0,word/wordth0551.png,image/False/imgf55.png,222,222,0,x,2.0934564999997747,None,0,222,222,222,887.9539672000001,,,,,,,889.4591265999998,888.9664656999994,888.9729345999995,888.9729345999995,889.4529124000001,890.6591146000001,890.6591146000001,x,2.0934564999997747,None,,,,,,,,,,,NU_th,001,2025-03-07_12h23.12.522,MainFlow,2024.2.4,107.35419153672241,2025-03-07 12h23.32.847776 +0700,
1,48,1,word/wordth0481.png,image/True/img48.png,223,223,0,x,2.6902946000000156,None,0,223,223,223,892.7629184999996,,,,,,,894.2637274999997,893.7773429999997,893.7840496999997,893.7840496999997,894.2574624999997,895.5067518999995,895.5067518999995,x,2.6902946000000156,None,,,,,,,,,,,NU_th,001,2025-03-07_12h23.12.522,MainFlow,2024.2.4,107.35419153672241,2025-03-07 12h23.32.847776 +0700,
1,44,1,word/wordth0441.png,image/True/img44.png,224,224,0,z,1.2556378999997833,None,0,224,224,224,898.2102599,,,,,,,899.7141666999996,899.2276759999995,899.2339855,899.2339855,899.7078600999994,900.9023331999997,900.9023331999997,z,1.2556378999997833,None,899.2339855,,,,,,,,,,NU_th,001,2025-03-07_12h23.12.522,MainFlow,2024.2.4,107.35419153672241,2025-03-07 12h23.32.847776 +0700,
1,87,0,word/wordth0871.png,image/False/imgf87.png,225,225,0,x,0.7504756999996971,None,0,225,225,225,902.1673260999996,,,,,,,903.6717060000001,903.1845266999999,903.1917401000001,903.1917401000001,903.6653400999994,904.8546350999995,904.8546350999995,x,0.7504756999996971,None,903.1917401000001,,,,,,,,,,NU_th,001,2025-03-07_12h23.12.522,MainFlow,2024.2.4,107.35419153672241,2025-03-07 12h23.32.847776 +0700,
1,70,1,word/wordth0701.png,image/True/img70.png,226,226,0,z,1.7826460999995106,None,0,226,226,226,905.6175862,,,,,,,907.1222997999994,906.6285067999997,906.6348516999997,906.6348516999997,907.1161919999995,908.3588933999999,908.3588933999999,z,1.7826460999995106,None,,,,,,,,,,,NU_th,001,2025-03-07_12h23.12.522,MainFlow,2024.2.4,107.35419153672241,2025-03-07 12h23.32.847776 +0700,
1,33,0,word/wordth0331.png,image/False/imgf33.png,227,227,0,x,1.6879503000000113,None,0,227,227,227,910.1524885999997,,,,,,,911.6561864999994,911.1700990999998,911.1765822999996,911.1765822999996,911.6503027999997,912.8774937999997,912.8774937999997,x,1.6879503000000113,None,911.1765822999996,,,,,,,,,,NU_th,001,2025-03-07_12h23.12.522,MainFlow,2024.2.4,107.35419153672241,2025-03-07 12h23.32.847776 +0700,
1,52,1,word/wordth0521.png,image/True/img52.png,228,228,0,z,0.4898988000004465,None,0,228,228,228,914.5720426999997,,,,,,,916.0790408999992,915.5870789,915.5937737999993,915.5937737999993,916.0730015999998,917.2986500999996,917.2986500999996,z,0.4898988000004465,None,,,,,,,,,,,NU_th,001,2025-03-07_12h23.12.522,MainFlow,2024.2.4,107.35419153672241,2025-03-07 12h23.32.847776 +0700,
1,59,1,word/wordth0591.png,image/True/img59.png,229,229,0,z,0.5635994000003848,None,0,229,229,229,917.7994159999998,,,,,,,919.3005989999992,918.8005819999998,918.8050908999994,918.8050908999994,919.2942798999993,920.4958419999994,920.4958419999994,z,0.5635994000003848,None,,,,,,,,,,,NU_th,001,2025-03-07_12h23.12.522,MainFlow,2024.2.4,107.35419153672241,2025-03-07 12h23.32.847776 +0700,
1,56,0,word/wordth0561.png,image/False/imgf56.png,230,230,0,x,3.945766700000604,None,0,230,230,230,921.0756653999997,,,,,,,922.5776403999998,922.0947843999993,922.1011447000001,922.1011447000001,922.5715842,923.8295960999994,923.8295960999994,x,3.945766700000604,None,,,,,,,,,,,NU_th,001,2025-03-07_12h23.12.522,MainFlow,2024.2.4,107.35419153672241,2025-03-07 12h23.32.847776 +0700,
1,79,1,word/wordth0791.png,image/True/img79.png,231,231,0,z,0.9474407999996401,None,0,231,231,231,927.7850759999992,,,,,,,929.2915663999993,928.7984630000001,928.8051324999997,928.8051324999997,929.2853762999994,930.4893081,930.4893081,z,0.9474407999996401,None,,,,,,,,,,,NU_th,001,2025-03-07_12h23.12.522,MainFlow,2024.2.4,107.35419153672241,2025-03-07 12h23.32.847776 +0700,
1,96,1,word/wordth0961.png,image/True/img96.png,232,232,0,z,4.656689700000243,None,0,232,232,232,931.4478196999999,,,,,,,932.9366692999993,932.4410173999995,932.4456829000001,932.4456829000001,932.9317321999997,934.1554139,934.1554139,z,4.656689700000243,None,934.1554139,932.9366692999993,932.9366692999993,,,,,,,,NU_th,001,2025-03-07_12h23.12.522,MainFlow,2024.2.4,107.35419153672241,2025-03-07 12h23.32.847776 +0700,
1,88,0,word/wordth0881.png,image/False/imgf88.png,233,233,0,x,2.385394500000075,None,0,233,233,233,938.8219870999992,,,,,,,940.3242905999996,939.8394963000001,939.8464507999997,939.8464507999997,940.3180947000001,941.5164686999997,941.5164686999997,x,2.385394500000075,None,,,,,,,,,,,NU_th,001,2025-03-07_12h23.12.522,MainFlow,2024.2.4,107.35419153672241,2025-03-07 12h23.32.847776 +0700,
1,96,0,word/wordth0961.png,image/False/imgf96.png,234,234,0,x,0.6490289999992456,None,0,234,234,234,943.9163531999993,,,,,,,945.4202465999997,944.9364957999996,944.9429729999993,944.9429729999993,945.4138844999998,946.6301854999992,946.6301854999992,x,0.6490289999992456,None,944.9429729999993,,,,,,,,,,NU_th,001,2025-03-07_12h23.12.522,MainFlow,2024.2.4,107.35419153672241,2025-03-07 12h23.32.847776 +0700,
1,88,1,word/wordth0881.png,image/True/img88.png,235,235,0,z,0.698984499999824,None,0,235,235,235,947.2923317999994,,,,,,,948.7950996,948.3097340999993,948.3162726,948.3162726,948.7887301999999,950.0169909999995,950.0169909999995,z,0.698984499999824,None,,,,,,,,,,,NU_th,001,2025-03-07_12h23.12.522,MainFlow,2024.2.4,107.35419153672241,2025-03-07 12h23.32.847776 +0700,
1,70,0,word/wordth0701.png,image/False/imgf70.png,236,236,0,x,1.5711040000005596,None,0,236,236,236,950.7284573999996,,,,,,,952.2319724999998,951.7390777999999,951.7455167999997,951.7455167999997,952.2255516999994,953.4903061999994,953.4903061999994,x,1.5711040000005596,None,,,,,,,,,,,NU_th,001,2025-03-07_12h23.12.522,MainFlow,2024.2.4,107.35419153672241,2025-03-07 12h23.32.847776 +0700,
1,71,1,word/wordth0711.png,image/True/img71.png,237,237,0,z,0.4798479999999472,None,0,237,237,237,955.0737548999996,,,,,,,956.5783217999997,956.0938965999994,956.1003923999997,956.1003923999997,956.5720457999996,957.7819181999994,957.7819181999994,z,0.4798479999999472,None,956.1003923999997,,,,,,,,,,NU_th,001,2025-03-07_12h23.12.522,MainFlow,2024.2.4,107.35419153672241,2025-03-07 12h23.32.847776 +0700,
1,94,0,word/wordth0941.png,image/False/imgf94.png,238,238,0,x,0.5991662000005817,None,0,238,238,238,958.2761414999995,,,,,,,959.7788764999996,959.2924982999994,959.2991214999993,959.2991214999993,959.7728000999996,961.2590547999998,961.2590547999998,x,0.5991662000005817,None,,,,,,,,,,,NU_th,001,2025-03-07_12h23.12.522,MainFlow,2024.2.4,107.35419153672241,2025-03-07 12h23.32.847776 +0700,
1,17,1,word/wordth0171.png,image/True/img17.png,239,239,0,z,0.8532446999997774,None,0,239,239,239,961.8702997999999,,,,,,,963.3751763,962.8825833999999,962.8890392999992,962.8890392999992,963.3689910999992,964.6659218999994,964.6659218999994,z,0.8532446999997774,None,,,,,,,,,,,NU_th,001,2025-03-07_12h23.12.522,MainFlow,2024.2.4,107.35419153672241,2025-03-07 12h23.32.847776 +0700,
,,,,,,,,,,,,,,,,,,,,,,,,,,,,,,,,,,,965.5247939000001,965.5334880999999,965.5334880999999,968.0561492999996,space,2.520876500000668,None,NU_th,001,2025-03-07_12h23.12.522,MainFlow,2024.2.4,107.35419153672241,2025-03-07 12h23.32.847776 +0700,
