lang,wordid,truestate,worddir,imgdir,thisN,thisTrialN,thisRepN,key_resp.keys,key_resp.rt,key_resp.duration,trials.thisRepN,trials.thisTrialN,trials.thisN,trials.thisIndex,thisRow.t,notes,tutorial.started,tutorial.stopped,key_instruct.keys,key_instruct.rt,key_instruct.duration,plusblank.started,wordshow.started,image.started,plsuer.started,image.stopped,plsuer.stopped,wordshow.stopped,plusblank.stopped,imageword.started,key_resp.started,trials.key_resp.keys,trials.key_resp.rt,trials.key_resp.duration,ending.started,text_3.started,ending_key.started,ending.stopped,ending_key.keys,ending_key.rt,ending_key.duration,participant,session,date,expName,psychopyVersion,frameRate,expStart,
,,,,,,,,,,,,,,,,,0.002550399978645146,4.534820500062779,space,4.511219999985769,None,,,,,,,,,,,,,,,,,,,,,PH_th,001,2025-03-09_20h19.27.634,MainFlow,2024.2.4,129.83303474581254,2025-03-09 20h19.41.154924 +0700,
1,51,0,word/wordth0511.png,image/False/imgf51.png,0,0,0,x,2.4212537999264896,None,0,0,0,0,4.5758278999710456,,,,,,,6.031155299977399,5.534724400029518,5.539164899964817,5.539164899964817,6.031155299977399,6.031155299977399,6.024517000070773,7.117085200035945,7.117085200035945,7.117085200035945,x,2.4212537999264896,None,,,,,,,,PH_th,001,2025-03-09_20h19.27.634,MainFlow,2024.2.4,129.83303474581254,2025-03-09 20h19.41.154924 +0700,
1,66,1,word/wordth0661.png,image/True/img66.png,1,1,0,z,0.9018264000769705,None,0,1,1,1,9.547913299989887,,,,,,,11.03374270000495,10.535261600045487,10.539308600011282,10.539308600011282,11.03374270000495,11.03374270000495,11.027671199990436,12.126497799996287,12.126497799996287,12.126497799996287,z,0.9018264000769705,None,,,,,,,,PH_th,001,2025-03-09_20h19.27.634,MainFlow,2024.2.4,129.83303474581254,2025-03-09 20h19.41.154924 +0700,
1,60,1,word/wordth0601.png,image/True/img60.png,2,2,0,z,1.0420401999726892,None,0,2,2,2,13.040313599980436,,,,,,,14.527491600019857,14.029939700034447,14.033821600023657,14.033821600023657,14.527491600019857,14.527491600019857,14.520781300030649,15.611191099975258,15.611191099975258,15.611191099975258,z,1.0420401999726892,None,,,,,,,,PH_th,001,2025-03-09_20h19.27.634,MainFlow,2024.2.4,129.83303474581254,2025-03-09 20h19.41.154924 +0700,
1,46,0,word/wordth0461.png,image/False/imgf46.png,3,3,0,x,1.3576541000511497,None,0,3,3,3,16.662322900025174,,,,,,,18.149356000008993,17.65149499999825,17.655716000008397,17.655716000008397,18.149356000008993,18.149356000008993,18.14272870006971,19.25456769997254,19.25456769997254,19.25456769997254,x,1.3576541000511497,None,,,,,,,,PH_th,001,2025-03-09_20h19.27.634,MainFlow,2024.2.4,129.83303474581254,2025-03-09 20h19.41.154924 +0700,
1,24,1,word/wordth0241.png,image/True/img24.png,4,4,0,z,1.377048599999398,None,0,4,4,4,20.623869700008072,,,,,,,22.111021100077778,21.61327099998016,21.617265500011854,21.617265500011854,22.111021100077778,22.111021100077778,22.104291500058025,23.175901300041005,23.175901300041005,23.175901300041005,z,1.377048599999398,None,,,,,,,,PH_th,001,2025-03-09_20h19.27.634,MainFlow,2024.2.4,129.83303474581254,2025-03-09 20h19.41.154924 +0700,
1,68,1,word/wordth0681.png,image/True/img68.png,5,5,0,z,0.6153554000193253,None,0,5,5,5,24.56472470005974,,,,,,,26.051189200021327,25.552560099982657,25.55661880003754,25.55661880003754,26.051189200021327,26.051189200021327,26.04447970003821,27.117259999969974,27.117259999969974,27.117259999969974,z,0.6153554000193253,None,,,,,,,,PH_th,001,2025-03-09_20h19.27.634,MainFlow,2024.2.4,129.83303474581254,2025-03-09 20h19.41.154924 +0700,
1,22,0,word/wordth0221.png,image/False/imgf22.png,6,6,0,x,1.03359379991889,None,0,6,6,6,27.742242700071074,,,,,,,29.22857669997029,28.72981879999861,28.734629600076005,28.734629600076005,29.22857669997029,29.22857669997029,29.221849899971858,30.32928780000657,30.32928780000657,30.32928780000657,x,1.03359379991889,None,,,,,,,,PH_th,001,2025-03-09_20h19.27.634,MainFlow,2024.2.4,129.83303474581254,2025-03-09 20h19.41.154924 +0700,
1,36,1,word/wordth0361.png,image/True/img36.png,7,7,0,z,1.2297332000453025,None,0,7,7,7,31.370652200072072,,,,,,,32.85756689996924,32.35836740001105,32.3640603000531,32.3640603000531,32.85756689996924,32.85756689996924,32.85088879999239,33.93744250002783,33.93744250002783,33.93744250002783,z,1.2297332000453025,None,,,,,,,,PH_th,001,2025-03-09_20h19.27.634,MainFlow,2024.2.4,129.83303474581254,2025-03-09 20h19.41.154924 +0700,
1,68,0,word/wordth0681.png,image/False/imgf68.png,8,8,0,x,0.867074100067839,None,0,8,8,8,35.180814799969085,,,,,,,36.66675229999237,36.16791760001797,36.17191799997818,36.17191799997818,36.66675229999237,36.66675229999237,36.66004670003895,37.73552450002171,37.73552450002171,37.73552450002171,x,0.867074100067839,None,,,,,,,,PH_th,001,2025-03-09_20h19.27.634,MainFlow,2024.2.4,129.83303474581254,2025-03-09 20h19.41.154924 +0700,
1,16,1,word/wordth0161.png,image/True/img16.png,9,9,0,z,1.0615515999961644,None,0,9,9,9,38.61635440005921,,,,,,,40.10344900004566,39.60532349999994,39.609497600002214,39.609497600002214,40.10344900004566,40.10344900004566,40.09693070000503,41.2061063000001,41.2061063000001,41.2061063000001,z,1.0615515999961644,None,,,,,,,,PH_th,001,2025-03-09_20h19.27.634,MainFlow,2024.2.4,129.83303474581254,2025-03-09 20h19.41.154924 +0700,
1,94,1,word/wordth0941.png,image/True/img94.png,10,10,0,z,0.8131789999315515,None,0,10,10,10,42.277438300079666,,,,,,,43.76413180003874,43.265916600008495,43.27002070005983,43.27002070005983,43.76413180003874,43.76413180003874,43.75744219997432,44.87014660006389,44.87014660006389,44.87014660006389,z,0.8131789999315515,None,,,,,,,,PH_th,001,2025-03-09_20h19.27.634,MainFlow,2024.2.4,129.83303474581254,2025-03-09 20h19.41.154924 +0700,
1,95,0,word/wordth0951.png,image/False/imgf95.png,11,11,0,x,1.125320199993439,None,0,11,11,11,45.69058150006458,,,,,,,47.176837200066075,46.678307999973185,46.682938800076954,46.682938800076954,47.176837200066075,47.176837200066075,47.170138200046495,48.27287560002878,48.27287560002878,48.27287560002878,x,1.125320199993439,None,,,,,,,,PH_th,001,2025-03-09_20h19.27.634,MainFlow,2024.2.4,129.83303474581254,2025-03-09 20h19.41.154924 +0700,
1,30,0,word/wordth0301.png,image/False/imgf30.png,12,12,0,x,1.1293469000374898,None,0,12,12,12,49.405857100035064,,,,,,,50.89180330000818,50.3933701000642,50.39719230006449,50.39719230006449,50.89180330000818,50.89180330000818,50.88513740000781,51.97382780001499,51.97382780001499,51.97382780001499,x,1.1293469000374898,None,,,,,,,,PH_th,001,2025-03-09_20h19.27.634,MainFlow,2024.2.4,129.83303474581254,2025-03-09 20h19.41.154924 +0700,
1,20,1,word/wordth0201.png,image/True/img20.png,13,13,0,z,0.9244140000082552,None,0,13,13,13,53.11621230002493,,,,,,,54.60217520000879,54.1036071999697,54.107520399964415,54.107520399964415,54.60217520000879,54.60217520000879,54.595518100075424,55.69896409998182,55.69896409998182,55.69896409998182,z,0.9244140000082552,None,,,,,,,,PH_th,001,2025-03-09_20h19.27.634,MainFlow,2024.2.4,129.83303474581254,2025-03-09 20h19.41.154924 +0700,
1,42,0,word/wordth0421.png,image/False/imgf42.png,14,14,0,x,1.3185439999215305,None,0,14,14,14,56.636864300002344,,,,,,,58.12273719999939,57.62460630002897,57.62845499999821,57.62845499999821,58.12273719999939,58.12273719999939,58.116090500028804,59.22467690007761,59.22467690007761,59.22467690007761,x,1.3185439999215305,None,,,,,,,,PH_th,001,2025-03-09_20h19.27.634,MainFlow,2024.2.4,129.83303474581254,2025-03-09 20h19.41.154924 +0700,
1,31,1,word/wordth0311.png,image/True/img31.png,15,15,0,z,3.7715004000347108,None,0,15,15,15,60.55053450004198,,,,,,,62.03700040001422,61.53861789999064,61.54255260003265,61.54255260003265,62.03700040001422,62.03700040001422,62.03037030005362,63.11803080001846,63.11803080001846,63.11803080001846,z,3.7715004000347108,None,,,,,,,,PH_th,001,2025-03-09_20h19.27.634,MainFlow,2024.2.4,129.83303474581254,2025-03-09 20h19.41.154924 +0700,
1,55,1,word/wordth0551.png,image/True/img55.png,16,16,0,z,1.2112765000201762,None,0,16,16,16,66.8997741000494,,,,,,,68.38625089998823,67.8876841000747,67.8916466999799,67.8916466999799,68.38625089998823,68.38625089998823,68.37952529999893,69.48226129997056,69.48226129997056,69.48226129997056,z,1.2112765000201762,None,,,,,,,,PH_th,001,2025-03-09_20h19.27.634,MainFlow,2024.2.4,129.83303474581254,2025-03-09 20h19.41.154924 +0700,
1,36,1,word/wordth0361.png,image/True/img36.png,17,17,0,z,1.0144202000228688,None,0,17,17,17,70.70454880001489,,,,,,,72.19151440006681,71.69276989996433,71.6964412999805,71.6964412999805,72.19151440006681,72.19151440006681,72.18483569996897,73.26951060001738,73.26951060001738,73.26951060001738,z,1.0144202000228688,None,,,,,,,,PH_th,001,2025-03-09_20h19.27.634,MainFlow,2024.2.4,129.83303474581254,2025-03-09 20h19.41.154924 +0700,
1,9,1,word/wordth0091.png,image/True/img09.png,18,18,0,z,0.7341503000352532,None,0,18,18,18,74.29755350004416,,,,,,,75.78453429997899,75.2865504999645,75.29044650006108,75.29044650006108,75.78453429997899,75.78453429997899,75.77785030007362,76.84429969999474,76.84429969999474,76.84429969999474,z,0.7341503000352532,None,,,,,,,,PH_th,001,2025-03-09_20h19.27.634,MainFlow,2024.2.4,129.83303474581254,2025-03-09 20h19.41.154924 +0700,
1,64,1,word/wordth0641.png,image/True/img64.png,19,19,0,z,1.111737500061281,None,0,19,19,19,77.59180110006128,,,,,,,79.07784390007146,78.57908060005866,78.58299110003281,78.58299110003281,79.07784390007146,79.07784390007146,79.07114720006939,80.14690709998831,80.14690709998831,80.14690709998831,z,1.111737500061281,None,,,,,,,,PH_th,001,2025-03-09_20h19.27.634,MainFlow,2024.2.4,129.83303474581254,2025-03-09 20h19.41.154924 +0700,
1,95,1,word/wordth0951.png,image/True/img95.png,20,20,0,z,0.9030515999766067,None,0,20,20,20,81.27021330001298,,,,,,,82.75610690005124,82.25699909997638,82.26090260001365,82.26090260001365,82.75610690005124,82.75610690005124,82.74996350007132,83.86070020007901,83.86070020007901,83.86070020007901,z,0.9030515999766067,None,,,,,,,,PH_th,001,2025-03-09_20h19.27.634,MainFlow,2024.2.4,129.83303474581254,2025-03-09 20h19.41.154924 +0700,
1,41,1,word/wordth0411.png,image/True/img41.png,21,21,0,z,0.520089800003916,None,0,21,21,21,84.77482769999187,,,,,,,86.2607695000479,85.76213669998106,85.7662519000005,85.7662519000005,86.2607695000479,86.2607695000479,86.25401350005995,87.35941130004358,87.35941130004358,87.35941130004358,z,0.520089800003916,None,,,,,,,,PH_th,001,2025-03-09_20h19.27.634,MainFlow,2024.2.4,129.83303474581254,2025-03-09 20h19.41.154924 +0700,
1,8,1,word/wordth0081.png,image/True/img08.png,22,22,0,z,0.4124508999520913,None,0,22,22,22,87.88675070006866,,,,,,,89.37266140000429,88.8738959999755,88.87792270001955,88.87792270001955,89.37266140000429,89.37266140000429,89.3660821999656,90.44637310004327,90.44637310004327,90.44637310004327,z,0.4124508999520913,None,,,,,,,,PH_th,001,2025-03-09_20h19.27.634,MainFlow,2024.2.4,129.83303474581254,2025-03-09 20h19.41.154924 +0700,
1,60,1,word/wordth0601.png,image/True/img60.png,23,23,0,z,0.6428370999637991,None,0,23,23,23,90.86965860007331,,,,,,,92.35605020006187,91.85703419998754,91.86112380004488,91.86112380004488,92.35605020006187,92.35605020006187,92.34937130007893,93.43635750003159,93.43635750003159,93.43635750003159,z,0.6428370999637991,None,,,,,,,,PH_th,001,2025-03-09_20h19.27.634,MainFlow,2024.2.4,129.83303474581254,2025-03-09 20h19.41.154924 +0700,
1,48,0,word/wordth0481.png,image/False/imgf48.png,24,24,0,x,0.6575525999069214,None,0,24,24,24,94.08748240000568,,,,,,,95.57733840006404,95.07172500004526,95.07570699998178,95.07570699998178,95.57033820007928,95.57033820007928,95.56370599998627,96.6816091000801,96.6816091000801,96.6816091000801,x,0.6575525999069214,None,,,,,,,,PH_th,001,2025-03-09_20h19.27.634,MainFlow,2024.2.4,129.83303474581254,2025-03-09 20h19.41.154924 +0700,
1,41,0,word/wordth0411.png,image/False/imgf41.png,25,25,0,x,0.682814700063318,None,0,25,25,25,97.3527193000773,,,,,,,98.8381874000188,98.33969759999309,98.34341740002856,98.34341740002856,98.8381874000188,98.8381874000188,98.83205810002983,99.9071835000068,99.9071835000068,99.9071835000068,x,0.682814700063318,None,,,,,,,,PH_th,001,2025-03-09_20h19.27.634,MainFlow,2024.2.4,129.83303474581254,2025-03-09 20h19.41.154924 +0700,
1,54,0,word/wordth0541.png,image/False/imgf54.png,26,26,0,x,1.1550875999964774,None,0,26,26,26,100.60018339997623,,,,,,,102.08611719997134,101.58751250000205,101.59136239998043,101.59136239998043,102.08611719997134,102.08611719997134,102.07997059996706,103.17500440008007,103.17500440008007,103.17500440008007,x,1.1550875999964774,None,,,,,,,,PH_th,001,2025-03-09_20h19.27.634,MainFlow,2024.2.4,129.83303474581254,2025-03-09 20h19.41.154924 +0700,
1,54,1,word/wordth0541.png,image/True/img54.png,27,27,0,z,0.9284909999696538,None,0,27,27,27,104.34129500004929,,,,,,,105.82724340003915,105.32800280000083,105.33209989999887,105.33209989999887,105.82724340003915,105.82724340003915,105.82057670003269,106.93635159998666,106.93635159998666,106.93635159998666,z,0.9284909999696538,None,,,,,,,,PH_th,001,2025-03-09_20h19.27.634,MainFlow,2024.2.4,129.83303474581254,2025-03-09 20h19.41.154924 +0700,
1,63,0,word/wordth0631.png,image/False/imgf63.png,28,28,0,z,4.484908599988557,None,0,28,28,28,107.87389080005232,,,,,,,109.35994960006792,108.86084830004256,108.86459760006983,108.86459760006983,109.35994960006792,109.35994960006792,109.35321890003979,110.4609471000731,110.4609471000731,110.4609471000731,z,4.484908599988557,None,,,,,,,,PH_th,001,2025-03-09_20h19.27.634,MainFlow,2024.2.4,129.83303474581254,2025-03-09 20h19.41.154924 +0700,
1,37,0,word/wordth0371.png,image/False/imgf37.png,29,29,0,x,0.9954556999728084,None,0,29,29,29,114.95666739996523,,,,,,,116.44249719998334,115.94373190007173,115.94775429996662,115.94775429996662,116.44249719998334,116.44249719998334,116.43590450007468,117.55536410002969,117.55536410002969,117.55536410002969,x,0.9954556999728084,None,,,,,,,,PH_th,001,2025-03-09_20h19.27.634,MainFlow,2024.2.4,129.83303474581254,2025-03-09 20h19.41.154924 +0700,
1,54,0,word/wordth0541.png,image/False/imgf54.png,30,30,0,x,1.0585896000266075,None,0,30,30,30,118.5616096999729,,,,,,,120.0451413000701,119.5461917000357,119.55005620000884,119.55005620000884,120.0451413000701,120.0451413000701,120.03848210000433,121.13458070007619,121.13458070007619,121.13458070007619,x,1.0585896000266075,None,,,,,,,,PH_th,001,2025-03-09_20h19.27.634,MainFlow,2024.2.4,129.83303474581254,2025-03-09 20h19.41.154924 +0700,
1,48,1,word/wordth0481.png,image/True/img48.png,31,31,0,z,0.5801643000449985,None,0,31,31,31,122.20356529997662,,,,,,,123.6871294999728,123.19125859998167,123.19520519999787,123.19520519999787,123.6871294999728,123.6871294999728,123.68040020007174,124.78619060001802,124.78619060001802,124.78619060001802,z,0.5801643000449985,None,,,,,,,,PH_th,001,2025-03-09_20h19.27.634,MainFlow,2024.2.4,129.83303474581254,2025-03-09 20h19.41.154924 +0700,
1,26,0,word/wordth0261.png,image/False/imgf26.png,32,32,0,x,1.0162650999845937,None,0,32,32,32,125.37568549998105,,,,,,,126.8622602999676,126.3636119000148,126.3676566000795,126.3676566000795,126.8622602999676,126.8622602999676,126.85557500005234,127.9843546000775,127.9843546000775,127.9843546000775,x,1.0162650999845937,None,,,,,,,,PH_th,001,2025-03-09_20h19.27.634,MainFlow,2024.2.4,129.83303474581254,2025-03-09 20h19.41.154924 +0700,
1,59,0,word/wordth0591.png,image/False/imgf59.png,33,33,0,x,1.9444141000276431,None,0,33,33,33,129.01253750000615,,,,,,,130.49741700000595,129.9994264000561,130.00378989998717,130.00378989998717,130.49741700000595,130.49741700000595,130.490827600006,131.56720499997027,131.56720499997027,131.56720499997027,x,1.9444141000276431,None,,,,,,,,PH_th,001,2025-03-09_20h19.27.634,MainFlow,2024.2.4,129.83303474581254,2025-03-09 20h19.41.154924 +0700,
1,8,1,word/wordth0081.png,image/True/img08.png,34,34,0,z,0.8723539999919012,None,0,34,34,34,133.52092330006417,,,,,,,135.00688540004194,134.50825730001088,134.5125526000047,134.5125526000047,135.00688540004194,135.00688540004194,135.0001823999919,136.07972669997253,136.07972669997253,136.07972669997253,z,0.8723539999919012,None,,,,,,,,PH_th,001,2025-03-09_20h19.27.634,MainFlow,2024.2.4,129.83303474581254,2025-03-09 20h19.41.154924 +0700,
1,66,1,word/wordth0661.png,image/True/img66.png,35,35,0,z,0.5548248999984935,None,0,35,35,35,136.96085310005583,,,,,,,138.4467244000407,137.9475352000445,137.9517970000161,137.9517970000161,138.4467244000407,138.4467244000407,138.44063540000934,139.53762560000177,139.53762560000177,139.53762560000177,z,0.5548248999984935,None,,,,,,,,PH_th,001,2025-03-09_20h19.27.634,MainFlow,2024.2.4,129.83303474581254,2025-03-09 20h19.41.154924 +0700,
1,24,0,word/wordth0241.png,image/False/imgf24.png,36,36,0,x,1.045332899899222,None,0,36,36,36,140.10293419996742,,,,,,,141.58934810000937,141.0902396000456,141.09438690007664,141.09438690007664,141.58934810000937,141.58934810000937,141.58268460002728,142.67632440000307,142.67632440000307,142.67632440000307,x,1.045332899899222,None,,,,,,,,PH_th,001,2025-03-09_20h19.27.634,MainFlow,2024.2.4,129.83303474581254,2025-03-09 20h19.41.154924 +0700,
1,14,1,word/wordth0141.png,image/True/img14.png,37,37,0,z,0.9109033000422642,None,0,37,37,37,143.729957500007,,,,,,,145.2151359000709,144.71682530001272,144.72098129999358,144.72098129999358,145.2151359000709,145.2151359000709,145.20799170003738,146.31600400002208,146.31600400002208,146.31600400002208,z,0.9109033000422642,None,,,,,,,,PH_th,001,2025-03-09_20h19.27.634,MainFlow,2024.2.4,129.83303474581254,2025-03-09 20h19.41.154924 +0700,
1,20,0,word/wordth0201.png,image/False/imgf20.png,38,38,0,x,0.8572050000075251,None,0,38,38,38,147.23882420000155,,,,,,,148.72637110005599,148.22602399997413,148.23458930000197,148.23458930000197,148.72637110005599,148.72637110005599,148.71974760002922,149.840330200037,149.840330200037,149.840330200037,x,0.8572050000075251,None,,,,,,,,PH_th,001,2025-03-09_20h19.27.634,MainFlow,2024.2.4,129.83303474581254,2025-03-09 20h19.41.154924 +0700,
1,89,0,word/wordth0891.png,image/False/imgf89.png,39,39,0,x,1.2577030999818817,None,0,39,39,39,150.70725670002867,,,,,,,152.19869570003357,151.69582769996487,151.7043000999838,151.7043000999838,152.19869570003357,152.19869570003357,152.19201250001788,153.28014639997855,153.28014639997855,153.28014639997855,x,1.2577030999818817,None,,,,,,,,PH_th,001,2025-03-09_20h19.27.634,MainFlow,2024.2.4,129.83303474581254,2025-03-09 20h19.41.154924 +0700,
1,64,0,word/wordth0641.png,image/False/imgf64.png,40,40,0,x,1.2354160000104457,None,0,40,40,40,154.5458748000674,,,,,,,156.0318976000417,155.5330227999948,155.53732760006096,155.53732760006096,156.0318976000417,156.0318976000417,156.02523420006037,157.12271610007156,157.12271610007156,157.12271610007156,x,1.2354160000104457,None,,,,,,,,PH_th,001,2025-03-09_20h19.27.634,MainFlow,2024.2.4,129.83303474581254,2025-03-09 20h19.41.154924 +0700,
1,56,1,word/wordth0561.png,image/True/img56.png,41,41,0,z,0.9763600000878796,None,0,41,41,41,158.3705966999987,,,,,,,159.8568747000536,159.35839489998762,159.3626276999712,159.3626276999712,159.8568747000536,159.8568747000536,159.85029670002405,160.93738740007393,160.93738740007393,160.93738740007393,z,0.9763600000878796,None,,,,,,,,PH_th,001,2025-03-09_20h19.27.634,MainFlow,2024.2.4,129.83303474581254,2025-03-09 20h19.41.154924 +0700,
1,15,1,word/wordth0151.png,image/True/img15.png,42,42,0,z,0.9552067000186071,None,0,42,42,42,161.92591340001673,,,,,,,163.41196910000872,162.91311640001368,162.91742640000302,162.91742640000302,163.41196910000872,163.41196910000872,163.40536460001022,164.51253289997112,164.51253289997112,164.51253289997112,z,0.9552067000186071,None,,,,,,,,PH_th,001,2025-03-09_20h19.27.634,MainFlow,2024.2.4,129.83303474581254,2025-03-09 20h19.41.154924 +0700,
1,88,0,word/wordth0881.png,image/False/imgf88.png,43,43,0,x,2.331670999992639,None,0,43,43,43,165.47510500007775,,,,,,,166.963520099991,166.4628368000267,166.47004120005295,166.47004120005295,166.963520099991,166.963520099991,166.95701610005926,168.05635540001094,168.05635540001094,168.05635540001094,x,2.331670999992639,None,,,,,,,,PH_th,001,2025-03-09_20h19.27.634,MainFlow,2024.2.4,129.83303474581254,2025-03-09 20h19.41.154924 +0700,
1,94,1,word/wordth0941.png,image/True/img94.png,44,44,0,z,0.43815989990253,None,0,44,44,44,170.40172700001858,,,,,,,171.88833260000683,171.38966450002044,171.39385150000453,171.39385150000453,171.88833260000683,171.88833260000683,171.88168330001645,172.98020700004417,172.98020700004417,172.98020700004417,z,0.43815989990253,None,,,,,,,,PH_th,001,2025-03-09_20h19.27.634,MainFlow,2024.2.4,129.83303474581254,2025-03-09 20h19.41.154924 +0700,
1,40,0,word/wordth0401.png,image/False/imgf40.png,45,45,0,x,1.2589869999792427,None,0,45,45,45,173.42629700002726,,,,,,,174.91251980001107,174.4137337000575,174.41768950002734,174.41768950002734,174.91251980001107,174.91251980001107,174.90598420007154,176.0143927000463,176.0143927000463,176.0143927000463,x,1.2589869999792427,None,,,,,,,,PH_th,001,2025-03-09_20h19.27.634,MainFlow,2024.2.4,129.83303474581254,2025-03-09 20h19.41.154924 +0700,
1,41,0,word/wordth0411.png,image/False/imgf41.png,46,46,0,x,0.8857765001012012,None,0,46,46,46,177.2855821000412,,,,,,,178.77166179998312,178.2726263999939,178.2767751000356,178.2767751000356,178.77166179998312,178.77166179998312,178.76524640002754,179.8385650999844,179.8385650999844,179.8385650999844,x,0.8857765001012012,None,,,,,,,,PH_th,001,2025-03-09_20h19.27.634,MainFlow,2024.2.4,129.83303474581254,2025-03-09 20h19.41.154924 +0700,
1,7,1,word/wordth0071.png,image/True/img07.png,47,47,0,z,0.737576000043191,None,0,47,47,47,180.73466389998794,,,,,,,182.2222229000181,181.72397839999758,181.72813339997083,181.72813339997083,182.2222229000181,182.2222229000181,182.21551820007153,183.3161713000154,183.3161713000154,183.3161713000154,z,0.737576000043191,None,,,,,,,,PH_th,001,2025-03-09_20h19.27.634,MainFlow,2024.2.4,129.83303474581254,2025-03-09 20h19.41.154924 +0700,
1,60,0,word/wordth0601.png,image/False/imgf60.png,48,48,0,x,1.396225000033155,None,0,48,48,48,184.06172370002605,,,,,,,185.54797309997957,185.04902460006997,185.0531139000086,185.0531139000086,185.54797309997957,185.54797309997957,185.54151070001535,186.6377781999763,186.6377781999763,186.6377781999763,x,1.396225000033155,None,,,,,,,,PH_th,001,2025-03-09_20h19.27.634,MainFlow,2024.2.4,129.83303474581254,2025-03-09 20h19.41.154924 +0700,
1,23,0,word/wordth0231.png,image/False/imgf23.png,49,49,0,z,1.8569275999907404,None,0,49,49,49,188.04758300003596,,,,,,,189.53332170005888,189.03517430007923,189.03909159998875,189.03909159998875,189.53332170005888,189.53332170005888,189.52693659998477,190.64757300005294,190.64757300005294,190.64757300005294,z,1.8569275999907404,None,,,,,,,,PH_th,001,2025-03-09_20h19.27.634,MainFlow,2024.2.4,129.83303474581254,2025-03-09 20h19.41.154924 +0700,
1,68,0,word/wordth0681.png,image/False/imgf68.png,50,50,0,x,0.7877842000452802,None,0,50,50,50,192.51397049997468,,,,,,,194.0002471000189,193.5008374999743,193.50511979998555,193.50511979998555,194.0002471000189,194.0002471000189,193.9936418000143,195.06753260002006,195.06753260002006,195.06753260002006,x,0.7877842000452802,None,,,,,,,,PH_th,001,2025-03-09_20h19.27.634,MainFlow,2024.2.4,129.83303474581254,2025-03-09 20h19.41.154924 +0700,
1,26,1,word/wordth0261.png,image/True/img26.png,51,51,0,z,1.8139056999934837,None,0,51,51,51,195.8652235000627,,,,,,,197.35113680001814,196.85269870003685,196.85668980004266,196.85668980004266,197.35113680001814,197.35113680001814,197.34455460007302,198.45707360003144,198.45707360003144,198.45707360003144,z,1.8139056999934837,None,,,,,,,,PH_th,001,2025-03-09_20h19.27.634,MainFlow,2024.2.4,129.83303474581254,2025-03-09 20h19.41.154924 +0700,
1,89,0,word/wordth0891.png,image/False/imgf89.png,52,52,0,x,0.7748976999428123,None,0,52,52,52,200.27818300004583,,,,,,,201.7642843000358,201.2646082000574,201.26837180007715,201.26837180007715,201.7642843000358,201.7642843000358,201.75765230006073,202.8460835000733,202.8460835000733,202.8460835000733,x,0.7748976999428123,None,,,,,,,,PH_th,001,2025-03-09_20h19.27.634,MainFlow,2024.2.4,129.83303474581254,2025-03-09 20h19.41.154924 +0700,
1,3,0,word/wordth0031.png,image/False/imgf03.png,53,53,0,x,0.9934201000723988,None,0,53,53,53,203.63466250000056,,,,,,,205.12105409998912,204.6232055000728,204.62712219997775,204.62712219997775,205.12105409998912,205.12105409998912,205.11440429999493,206.20593990001362,206.20593990001362,206.20593990001362,x,0.9934201000723988,None,,,,,,,,PH_th,001,2025-03-09_20h19.27.634,MainFlow,2024.2.4,129.83303474581254,2025-03-09 20h19.41.154924 +0700,
1,55,1,word/wordth0551.png,image/True/img55.png,54,54,0,z,1.1558482999680564,None,0,54,54,54,207.20662820001598,,,,,,,208.69342420005705,208.19452150003053,208.198630400002,208.198630400002,208.69342420005705,208.69342420005705,208.68684239999857,209.7921319999732,209.7921319999732,209.7921319999732,z,1.1558482999680564,None,,,,,,,,PH_th,001,2025-03-09_20h19.27.634,MainFlow,2024.2.4,129.83303474581254,2025-03-09 20h19.41.154924 +0700,
1,46,1,word/wordth0461.png,image/True/img46.png,55,55,0,z,1.202609800035134,None,0,55,55,55,210.9585016000783,,,,,,,212.444615000044,211.94538200006355,211.95056909997948,211.95056909997948,212.444615000044,212.444615000044,212.4379423999926,213.54935390001629,213.54935390001629,213.54935390001629,z,1.202609800035134,None,,,,,,,,PH_th,001,2025-03-09_20h19.27.634,MainFlow,2024.2.4,129.83303474581254,2025-03-09 20h19.41.154924 +0700,
1,1,1,word/wordth0011.png,image/True/img01.png,56,56,0,z,1.2166394999949262,None,0,56,56,56,214.76153150002938,,,,,,,216.24854449997656,215.75042489997577,215.75435820000712,215.75435820000712,216.24854449997656,216.24854449997656,216.2419111999916,217.34550840000156,217.34550840000156,217.34550840000156,z,1.2166394999949262,None,,,,,,,,PH_th,001,2025-03-09_20h19.27.634,MainFlow,2024.2.4,129.83303474581254,2025-03-09 20h19.41.154924 +0700,
1,3,1,word/wordth0031.png,image/True/img03.png,57,57,0,z,0.811452400055714,None,0,57,57,57,218.57413980003912,,,,,,,220.06062230002135,219.56150239997078,219.56530909996945,219.56530909996945,220.06062230002135,220.06062230002135,220.0539173000725,221.15687170007732,221.15687170007732,221.15687170007732,z,0.811452400055714,None,,,,,,,,PH_th,001,2025-03-09_20h19.27.634,MainFlow,2024.2.4,129.83303474581254,2025-03-09 20h19.41.154924 +0700,
1,76,1,word/wordth0761.png,image/True/img76.png,58,58,0,z,1.2744388000573963,None,0,58,58,58,221.98072660004254,,,,,,,223.46718040003907,222.9685468999669,222.97323410003446,222.97323410003446,223.46718040003907,223.46718040003907,223.4604476999957,224.55427940003574,224.55427940003574,224.55427940003574,z,1.2744388000573963,None,,,,,,,,PH_th,001,2025-03-09_20h19.27.634,MainFlow,2024.2.4,129.83303474581254,2025-03-09 20h19.41.154924 +0700,
1,52,0,word/wordth0521.png,image/False/imgf52.png,59,59,0,x,0.9858841000823304,None,0,59,59,59,225.8359969999874,,,,,,,227.3192437000107,226.82280149997678,226.82687290001195,226.82687290001195,227.3192437000107,227.3192437000107,227.31271069997456,228.39762529998552,228.39762529998552,228.39762529998552,x,0.9858841000823304,None,,,,,,,,PH_th,001,2025-03-09_20h19.27.634,MainFlow,2024.2.4,129.83303474581254,2025-03-09 20h19.41.154924 +0700,
1,14,0,word/wordth0141.png,image/False/imgf14.png,60,60,0,x,0.8784955999581143,None,0,60,60,60,229.39126000006218,,,,,,,230.8767203000607,230.37806370004546,230.38258890004363,230.38258890004363,230.8767203000607,230.8767203000607,230.87061260000337,231.97032810002565,231.97032810002565,231.97032810002565,x,0.8784955999581143,None,,,,,,,,PH_th,001,2025-03-09_20h19.27.634,MainFlow,2024.2.4,129.83303474581254,2025-03-09 20h19.41.154924 +0700,
1,61,1,word/wordth0611.png,image/True/img61.png,61,61,0,z,0.832327000098303,None,0,61,61,61,232.86264990002383,,,,,,,234.34901790006552,233.85109800007194,233.8551182000665,233.8551182000665,234.34901790006552,234.34901790006552,234.34256879996974,235.44213189999573,235.44213189999573,235.44213189999573,z,0.832327000098303,None,,,,,,,,PH_th,001,2025-03-09_20h19.27.634,MainFlow,2024.2.4,129.83303474581254,2025-03-09 20h19.41.154924 +0700,
1,93,0,word/wordth0931.png,image/False/imgf93.png,62,62,0,x,3.186881799949333,None,0,62,62,62,236.28594790003262,,,,,,,237.77203240001108,237.2734075000044,237.2775020999834,237.2775020999834,237.77203240001108,237.77203240001108,237.76538120000623,238.84777850005776,238.84777850005776,238.84777850005776,x,3.186881799949333,None,,,,,,,,PH_th,001,2025-03-09_20h19.27.634,MainFlow,2024.2.4,129.83303474581254,2025-03-09 20h19.41.154924 +0700,
1,37,1,word/wordth0371.png,image/True/img37.png,63,63,0,z,1.1388093999121338,None,0,63,63,63,242.04341310006566,,,,,,,243.52827610005625,243.0288563000504,243.03292590007186,243.03292590007186,243.52827610005625,243.52827610005625,243.5216765999794,244.63693000003695,244.63693000003695,244.63693000003695,z,1.1388093999121338,None,,,,,,,,PH_th,001,2025-03-09_20h19.27.634,MainFlow,2024.2.4,129.83303474581254,2025-03-09 20h19.41.154924 +0700,
1,79,0,word/wordth0791.png,image/False/imgf79.png,64,64,0,x,1.4258023999864236,None,0,64,64,64,245.78909600002225,,,,,,,247.27576150000095,246.77757150004618,246.78179560007993,246.78179560007993,247.27576150000095,247.27576150000095,247.2692768999841,248.37543560005724,248.37543560005724,248.37543560005724,x,1.4258023999864236,None,,,,,,,,PH_th,001,2025-03-09_20h19.27.634,MainFlow,2024.2.4,129.83303474581254,2025-03-09 20h19.41.154924 +0700,
1,37,0,word/wordth0371.png,image/False/imgf37.png,65,65,0,x,0.5945130999898538,None,0,65,65,65,249.81192550004926,,,,,,,251.29838190006558,250.79935460002162,250.80375510000158,250.80375510000158,251.29838190006558,251.29838190006558,251.2916226000525,252.40992220002227,252.40992220002227,252.40992220002227,x,0.5945130999898538,None,,,,,,,,PH_th,001,2025-03-09_20h19.27.634,MainFlow,2024.2.4,129.83303474581254,2025-03-09 20h19.41.154924 +0700,
1,3,1,word/wordth0031.png,image/True/img03.png,66,66,0,z,0.7537938000168651,None,0,66,66,66,253.01373960007913,,,,,,,254.49997420003638,254.00067540002055,254.0044540000381,254.0044540000381,254.49997420003638,254.49997420003638,254.49334200005978,255.59306810004637,255.59306810004637,255.59306810004637,z,0.7537938000168651,None,,,,,,,,PH_th,001,2025-03-09_20h19.27.634,MainFlow,2024.2.4,129.83303474581254,2025-03-09 20h19.41.154924 +0700,
1,93,0,word/wordth0931.png,image/False/imgf93.png,67,67,0,x,1.2232278999872506,None,0,67,67,67,256.3601589000318,,,,,,,257.84618009999394,257.34708169999067,257.35089180001523,257.35089180001523,257.84618009999394,257.84618009999394,257.8395698000677,258.92408680007793,258.92408680007793,258.92408680007793,x,1.2232278999872506,None,,,,,,,,PH_th,001,2025-03-09_20h19.27.634,MainFlow,2024.2.4,129.83303474581254,2025-03-09 20h19.41.154924 +0700,
1,30,1,word/wordth0301.png,image/True/img30.png,68,68,0,z,1.0137616000138223,None,0,68,68,68,260.1543918000534,,,,,,,261.64081010001246,261.14032810006756,261.14409199997317,261.14409199997317,261.6337093000766,261.6337093000766,261.6269951000577,262.72008280002046,262.72008280002046,262.72008280002046,z,1.0137616000138223,None,,,,,,,,PH_th,001,2025-03-09_20h19.27.634,MainFlow,2024.2.4,129.83303474581254,2025-03-09 20h19.41.154924 +0700,
1,46,0,word/wordth0461.png,image/False/imgf46.png,69,69,0,x,0.7037706000264734,None,0,69,69,69,263.7481605000794,,,,,,,265.2329463000642,264.7336072999751,264.7375678999815,264.7375678999815,265.2329463000642,265.2329463000642,265.22635750006884,266.3343420000747,266.3343420000747,266.3343420000747,x,0.7037706000264734,None,,,,,,,,PH_th,001,2025-03-09_20h19.27.634,MainFlow,2024.2.4,129.83303474581254,2025-03-09 20h19.41.154924 +0700,
1,27,0,word/wordth0271.png,image/False/imgf27.png,70,70,0,x,0.8443237999454141,None,0,70,70,70,267.0495396000333,,,,,,,268.5356885000365,268.0367392000044,268.0407292000018,268.0407292000018,268.5356885000365,268.5356885000365,268.5290931999916,269.6189115999732,269.6189115999732,269.6189115999732,x,0.8443237999454141,None,,,,,,,,PH_th,001,2025-03-09_20h19.27.634,MainFlow,2024.2.4,129.83303474581254,2025-03-09 20h19.41.154924 +0700,
1,37,1,word/wordth0371.png,image/True/img37.png,71,71,0,z,1.120631800033152,None,0,71,71,71,270.4756266999757,,,,,,,271.96181710006204,271.4625876999926,271.4669333000202,271.4669333000202,271.96181710006204,271.96181710006204,271.95528730005026,273.0680757999653,273.0680757999653,273.0680757999653,z,1.120631800033152,None,,,,,,,,PH_th,001,2025-03-09_20h19.27.634,MainFlow,2024.2.4,129.83303474581254,2025-03-09 20h19.41.154924 +0700,
1,20,1,word/wordth0201.png,image/True/img20.png,72,72,0,x,1.793076700065285,None,0,72,72,72,274.20118490001187,,,,,,,275.68713710003067,275.1880446000723,275.1920340000652,275.1920340000652,275.68713710003067,275.68713710003067,275.6805885999929,276.78635429998394,276.78635429998394,276.78635429998394,x,1.793076700065285,None,,,,,,,,PH_th,001,2025-03-09_20h19.27.634,MainFlow,2024.2.4,129.83303474581254,2025-03-09 20h19.41.154924 +0700,
1,17,1,word/wordth0171.png,image/True/img17.png,73,73,0,z,1.2796115999808535,None,0,73,73,73,278.591040099971,,,,,,,280.080888699973,279.58282949996646,279.58712000004016,279.58712000004016,280.080888699973,280.080888699973,280.0747121999739,281.1699771999847,281.1699771999847,281.1699771999847,z,1.2796115999808535,None,,,,,,,,PH_th,001,2025-03-09_20h19.27.634,MainFlow,2024.2.4,129.83303474581254,2025-03-09 20h19.41.154924 +0700,
1,10,0,word/wordth0101.png,image/False/imgf10.png,74,74,0,x,0.8464085999876261,None,0,74,74,74,282.46129230002407,,,,,,,283.94798629998695,283.4499870999716,283.4538126999978,283.4538126999978,283.94798629998695,283.94798629998695,283.9412171000149,285.0388340000063,285.0388340000063,285.0388340000063,x,0.8464085999876261,None,,,,,,,,PH_th,001,2025-03-09_20h19.27.634,MainFlow,2024.2.4,129.83303474581254,2025-03-09 20h19.41.154924 +0700,
1,68,1,word/wordth0681.png,image/True/img68.png,75,75,0,z,0.6770525999600068,None,0,75,75,75,285.892793099978,,,,,,,287.37906599999405,286.8804922000272,286.884712100029,286.884712100029,287.37906599999405,287.37906599999405,287.3724218000425,288.4440518000629,288.4440518000629,288.4440518000629,z,0.6770525999600068,None,,,,,,,,PH_th,001,2025-03-09_20h19.27.634,MainFlow,2024.2.4,129.83303474581254,2025-03-09 20h19.41.154924 +0700,
1,82,0,word/wordth0821.png,image/False/imgf82.png,76,76,0,x,1.0639863000251353,None,0,76,76,76,289.13120259996504,,,,,,,290.61702520004474,290.11863799998537,290.12293760001194,290.12293760001194,290.61702520004474,290.61702520004474,290.6104350000387,291.70679389999714,291.70679389999714,291.70679389999714,x,1.0639863000251353,None,,,,,,,,PH_th,001,2025-03-09_20h19.27.634,MainFlow,2024.2.4,129.83303474581254,2025-03-09 20h19.41.154924 +0700,
1,42,1,word/wordth0421.png,image/True/img42.png,77,77,0,z,0.6642448999918997,None,0,77,77,77,292.7830326000694,,,,,,,294.26898599998094,293.7704106000019,293.77425420004874,293.77425420004874,294.26898599998094,294.26898599998094,294.262290499988,295.3621196000604,295.3621196000604,295.3621196000604,z,0.6642448999918997,None,,,,,,,,PH_th,001,2025-03-09_20h19.27.634,MainFlow,2024.2.4,129.83303474581254,2025-03-09 20h19.41.154924 +0700,
1,59,1,word/wordth0591.png,image/True/img59.png,78,78,0,z,0.6846948000602424,None,0,78,78,78,296.0392079000594,,,,,,,297.52554940001573,297.0260798999807,297.0299035999924,297.0299035999924,297.52554940001573,297.52554940001573,297.5190023999894,298.5969296999974,298.5969296999974,298.5969296999974,z,0.6846948000602424,None,,,,,,,,PH_th,001,2025-03-09_20h19.27.634,MainFlow,2024.2.4,129.83303474581254,2025-03-09 20h19.41.154924 +0700,
1,18,1,word/wordth0181.png,image/True/img18.png,79,79,0,z,0.7867821999825537,None,0,79,79,79,299.29496209998615,,,,,,,300.78108510002494,300.2816052000271,300.2856333999662,300.2856333999662,300.78108510002494,300.78108510002494,300.77438790001906,301.8602410000749,301.8602410000749,301.8602410000749,z,0.7867821999825537,None,,,,,,,,PH_th,001,2025-03-09_20h19.27.634,MainFlow,2024.2.4,129.83303474581254,2025-03-09 20h19.41.154924 +0700,
1,63,1,word/wordth0631.png,image/True/img63.png,80,80,0,z,0.7713846999686211,None,0,80,80,80,302.6593070999952,,,,,,,304.144871699973,303.64591219997965,303.6500171000371,303.6500171000371,304.144871699973,304.144871699973,304.13825910002925,305.240250700037,305.240250700037,305.240250700037,z,0.7713846999686211,None,,,,,,,,PH_th,001,2025-03-09_20h19.27.634,MainFlow,2024.2.4,129.83303474581254,2025-03-09 20h19.41.154924 +0700,
1,40,0,word/wordth0401.png,image/False/imgf40.png,81,81,0,x,0.6320593999698758,None,0,81,81,81,306.01945640007034,,,,,,,307.5054246999789,307.00613920006435,307.00990210007876,307.00990210007876,307.5054246999789,307.5054246999789,307.49872869998217,308.59594160004053,308.59594160004053,308.59594160004053,x,0.6320593999698758,None,,,,,,,,PH_th,001,2025-03-09_20h19.27.634,MainFlow,2024.2.4,129.83303474581254,2025-03-09 20h19.41.154924 +0700,
1,55,0,word/wordth0551.png,image/False/imgf55.png,82,82,0,z,4.209657700033858,None,0,82,82,82,309.2416229000082,,,,,,,310.72757370001636,310.2287118000677,310.23278089996893,310.23278089996893,310.72757370001636,310.72757370001636,310.7209533000132,311.81422639999073,311.81422639999073,311.81422639999073,z,4.209657700033858,None,,,,,,,,PH_th,001,2025-03-09_20h19.27.634,MainFlow,2024.2.4,129.83303474581254,2025-03-09 20h19.41.154924 +0700,
1,26,1,word/wordth0261.png,image/True/img26.png,83,83,0,z,0.7401535999961197,None,0,83,83,83,316.0362991000293,,,,,,,317.5224975000601,317.0238615999697,317.02809270005673,317.02809270005673,317.5224975000601,317.5224975000601,317.5158737000311,318.6243208000669,318.6243208000669,318.6243208000669,z,0.7401535999961197,None,,,,,,,,PH_th,001,2025-03-09_20h19.27.634,MainFlow,2024.2.4,129.83303474581254,2025-03-09 20h19.41.154924 +0700,
1,28,0,word/wordth0281.png,image/False/imgf28.png,84,84,0,z,2.2449864000082016,None,0,84,84,84,319.37421440007165,,,,,,,320.8599432000192,320.36133710003924,320.36522599996533,320.36522599996533,320.8599432000192,320.8599432000192,320.85325210005976,321.95605290005915,321.95605290005915,321.95605290005915,z,2.2449864000082016,None,,,,,,,,PH_th,001,2025-03-09_20h19.27.634,MainFlow,2024.2.4,129.83303474581254,2025-03-09 20h19.41.154924 +0700,
1,8,0,word/wordth0081.png,image/False/imgf08.png,85,85,0,x,0.9164533999282867,None,0,85,85,85,324.21195749996696,,,,,,,325.69787560007535,325.19905280007515,325.20323099999223,325.20323099999223,325.69787560007535,325.69787560007535,325.69137150002643,326.7738830000162,326.7738830000162,326.7738830000162,x,0.9164533999282867,None,,,,,,,,PH_th,001,2025-03-09_20h19.27.634,MainFlow,2024.2.4,129.83303474581254,2025-03-09 20h19.41.154924 +0700,
1,9,1,word/wordth0091.png,image/True/img09.png,86,86,0,z,0.6586170999798924,None,0,86,86,86,327.6976313000778,,,,,,,329.1835710000014,328.6850457000546,328.68903830007184,328.68903830007184,329.1835710000014,329.1835710000014,329.1768751000054,330.24241120007355,330.24241120007355,330.24241120007355,z,0.6586170999798924,None,,,,,,,,PH_th,001,2025-03-09_20h19.27.634,MainFlow,2024.2.4,129.83303474581254,2025-03-09 20h19.41.154924 +0700,
1,78,1,word/wordth0781.png,image/True/img78.png,87,87,0,z,0.5745755999814719,None,0,87,87,87,330.9143122000387,,,,,,,332.4005022000056,331.9018395000603,331.90599400002975,331.90599400002975,332.4005022000056,332.4005022000056,332.3935634000227,333.4871247999836,333.4871247999836,333.4871247999836,z,0.5745755999814719,None,,,,,,,,PH_th,001,2025-03-09_20h19.27.634,MainFlow,2024.2.4,129.83303474581254,2025-03-09 20h19.41.154924 +0700,
1,1,0,word/wordth0011.png,image/False/imgf01.png,88,88,0,x,0.610952099901624,None,0,88,88,88,334.07014600001276,,,,,,,335.5559884000104,335.0571664000163,335.06169160001446,335.06169160001446,335.5559884000104,335.5559884000104,335.54929090000223,336.6366943999892,336.6366943999892,336.6366943999892,x,0.610952099901624,None,,,,,,,,PH_th,001,2025-03-09_20h19.27.634,MainFlow,2024.2.4,129.83303474581254,2025-03-09 20h19.41.154924 +0700,
1,71,1,word/wordth0711.png,image/True/img71.png,89,89,0,x,1.2112883999943733,None,0,89,89,89,337.25931380002294,,,,,,,338.7458317000419,338.2473084999947,338.2514254000271,338.2514254000271,338.7458317000419,338.7458317000419,338.73911780002527,339.8422538000159,339.8422538000159,339.8422538000159,x,1.2112883999943733,None,,,,,,,,PH_th,001,2025-03-09_20h19.27.634,MainFlow,2024.2.4,129.83303474581254,2025-03-09 20h19.41.154924 +0700,
1,93,1,word/wordth0931.png,image/True/img93.png,90,90,0,z,1.5047120000235736,None,0,90,90,90,341.06505710002966,,,,,,,342.55115549999755,342.0522056000773,342.05611120001413,342.05611120001413,342.55115549999755,342.55115549999755,342.54442519997247,343.63320849998854,343.63320849998854,343.63320849998854,z,1.5047120000235736,None,,,,,,,,PH_th,001,2025-03-09_20h19.27.634,MainFlow,2024.2.4,129.83303474581254,2025-03-09 20h19.41.154924 +0700,
1,78,0,word/wordth0781.png,image/False/imgf78.png,91,91,0,z,1.7089580999454483,None,0,91,91,91,345.1507424999727,,,,,,,346.6362880000379,346.1371736000292,346.1414056000067,346.1414056000067,346.6362880000379,346.6362880000379,346.6296076000435,347.7153678999748,347.7153678999748,347.7153678999748,z,1.7089580999454483,None,,,,,,,,PH_th,001,2025-03-09_20h19.27.634,MainFlow,2024.2.4,129.83303474581254,2025-03-09 20h19.41.154924 +0700,
1,8,0,word/wordth0081.png,image/False/imgf08.png,92,92,0,x,1.946447900030762,None,0,92,92,92,349.4373817000305,,,,,,,350.9233321000356,350.42441350000445,350.4280770000769,350.4280770000769,350.9233321000356,350.9233321000356,350.9170716999797,351.999090300058,351.999090300058,351.999090300058,x,1.946447900030762,None,,,,,,,,PH_th,001,2025-03-09_20h19.27.634,MainFlow,2024.2.4,129.83303474581254,2025-03-09 20h19.41.154924 +0700,
1,9,0,word/wordth0091.png,image/False/imgf09.png,93,93,0,x,0.9359624999342486,None,0,93,93,93,353.95760550000705,,,,,,,355.44321749999654,354.9447116999654,354.9487231000094,354.9487231000094,355.44321749999654,355.44321749999654,355.4365343999816,356.5146398000652,356.5146398000652,356.5146398000652,x,0.9359624999342486,None,,,,,,,,PH_th,001,2025-03-09_20h19.27.634,MainFlow,2024.2.4,129.83303474581254,2025-03-09 20h19.41.154924 +0700,
1,75,1,word/wordth0751.png,image/True/img75.png,94,94,0,z,1.8373241000808775,None,0,94,94,94,357.46276240004227,,,,,,,358.9500647999812,358.4515703000361,358.4561662999913,358.4561662999913,358.9500647999812,358.9500647999812,358.94348180003,360.0387570000021,360.0387570000021,360.0387570000021,z,1.8373241000808775,None,,,,,,,,PH_th,001,2025-03-09_20h19.27.634,MainFlow,2024.2.4,129.83303474581254,2025-03-09 20h19.41.154924 +0700,
1,95,0,word/wordth0951.png,image/False/imgf95.png,95,95,0,x,1.0922803999856114,None,0,95,95,95,361.8854813000653,,,,,,,363.37196220003534,362.8729948999826,362.87676540005486,362.87676540005486,363.37196220003534,363.37196220003534,363.36529009998776,364.46985180000775,364.46985180000775,364.46985180000775,x,1.0922803999856114,None,,,,,,,,PH_th,001,2025-03-09_20h19.27.634,MainFlow,2024.2.4,129.83303474581254,2025-03-09 20h19.41.154924 +0700,
1,70,1,word/wordth0701.png,image/True/img70.png,96,96,0,z,1.0113980999449268,None,0,96,96,96,365.5734000999946,,,,,,,367.05987090000417,366.56079670006875,366.5646693999879,366.5646693999879,367.05987090000417,367.05987090000417,367.05319170001894,368.1512300000759,368.1512300000759,368.1512300000759,z,1.0113980999449268,None,,,,,,,,PH_th,001,2025-03-09_20h19.27.634,MainFlow,2024.2.4,129.83303474581254,2025-03-09 20h19.41.154924 +0700,
1,94,0,word/wordth0941.png,image/False/imgf94.png,97,97,0,x,0.8880890000145882,None,0,97,97,97,369.1714393000584,,,,,,,370.65761390002444,370.15870420006104,370.16288750001695,370.16288750001695,370.65761390002444,370.65761390002444,370.65096510003787,371.76440340001136,371.76440340001136,371.76440340001136,x,0.8880890000145882,None,,,,,,,,PH_th,001,2025-03-09_20h19.27.634,MainFlow,2024.2.4,129.83303474581254,2025-03-09 20h19.41.154924 +0700,
1,9,0,word/wordth0091.png,image/False/imgf09.png,98,98,0,x,0.8390000000363216,None,0,98,98,98,372.6608580000466,,,,,,,374.1471212999895,373.64762469998095,373.65164920000825,373.65164920000825,374.1471212999895,374.1471212999895,374.1401225000154,375.21466200007126,375.21466200007126,375.21466200007126,x,0.8390000000363216,None,,,,,,,,PH_th,001,2025-03-09_20h19.27.634,MainFlow,2024.2.4,129.83303474581254,2025-03-09 20h19.41.154924 +0700,
1,18,0,word/wordth0181.png,image/False/imgf18.png,99,99,0,x,1.6159907000837848,None,0,99,99,99,376.06041530007496,,,,,,,377.5464479000075,377.04768650000915,377.0524293000344,377.0524293000344,377.5464479000075,377.5464479000075,377.5397325999802,378.6331825000234,378.6331825000234,378.6331825000234,x,1.6159907000837848,None,,,,,,,,PH_th,001,2025-03-09_20h19.27.634,MainFlow,2024.2.4,129.83303474581254,2025-03-09 20h19.41.154924 +0700,
1,28,1,word/wordth0281.png,image/True/img28.png,100,100,0,z,1.2639876999892294,None,0,100,100,100,380.2622034000233,,,,,,,381.7481761999661,381.2490683000069,381.2539652000414,381.2539652000414,381.7481761999661,381.7481761999661,381.74152549996506,382.85120120004285,382.85120120004285,382.85120120004285,z,1.2639876999892294,None,,,,,,,,PH_th,001,2025-03-09_20h19.27.634,MainFlow,2024.2.4,129.83303474581254,2025-03-09 20h19.41.154924 +0700,
1,23,1,word/wordth0231.png,image/True/img23.png,101,101,0,x,2.120289899990894,None,0,101,101,101,384.1291100999806,,,,,,,385.6136275000172,385.1145461000269,385.1184610000346,385.1184610000346,385.6136275000172,385.6136275000172,385.607122000074,386.70060960005503,386.70060960005503,386.70060960005503,x,2.120289899990894,None,,,,,,,,PH_th,001,2025-03-09_20h19.27.634,MainFlow,2024.2.4,129.83303474581254,2025-03-09 20h19.41.154924 +0700,
1,30,0,word/wordth0301.png,image/False/imgf30.png,102,102,0,x,0.8843735000118613,None,0,102,102,102,388.83269499999005,,,,,,,390.32440779998433,389.8200624000747,389.8289958999958,389.8289958999958,390.32440779998433,390.32440779998433,390.31779240001924,391.40677870006766,391.40677870006766,391.40677870006766,x,0.8843735000118613,None,,,,,,,,PH_th,001,2025-03-09_20h19.27.634,MainFlow,2024.2.4,129.83303474581254,2025-03-09 20h19.41.154924 +0700,
1,11,1,word/wordth0111.png,image/True/img11.png,103,103,0,z,1.3573471999261528,None,0,103,103,103,392.2992806000402,,,,,,,393.7853121999651,393.28681580000557,393.29091430001426,393.29091430001426,393.7853121999651,393.7853121999651,393.77861679997295,394.8946557000745,394.8946557000745,394.8946557000745,z,1.3573471999261528,None,,,,,,,,PH_th,001,2025-03-09_20h19.27.634,MainFlow,2024.2.4,129.83303474581254,2025-03-09 20h19.41.154924 +0700,
1,75,0,word/wordth0751.png,image/False/imgf75.png,104,104,0,x,0.9823344999458641,None,0,104,104,104,396.2622998000588,,,,,,,397.74803280003835,397.2493577999994,397.2537081000628,397.2537081000628,397.74803280003835,397.74803280003835,397.7413911999902,398.86041339999065,398.86041339999065,398.86041339999065,x,0.9823344999458641,None,,,,,,,,PH_th,001,2025-03-09_20h19.27.634,MainFlow,2024.2.4,129.83303474581254,2025-03-09 20h19.41.154924 +0700,
1,6,0,word/wordth0061.png,image/False/imgf06.png,105,105,0,x,1.2758734000381082,None,0,105,105,105,399.850885199965,,,,,,,401.3368174000643,400.83879840001464,400.84272740001325,400.84272740001325,401.3368174000643,401.3368174000643,401.33010989998,402.4175662000198,402.4175662000198,402.4175662000198,x,1.2758734000381082,None,,,,,,,,PH_th,001,2025-03-09_20h19.27.634,MainFlow,2024.2.4,129.83303474581254,2025-03-09 20h19.41.154924 +0700,
1,27,1,word/wordth0271.png,image/True/img27.png,106,106,0,z,0.6364921000786126,None,0,106,106,106,403.70430290000513,,,,,,,405.19049259996973,404.6913325000787,404.6955166000407,404.6955166000407,405.19049259996973,405.19049259996973,405.1839202999836,406.27211610006634,406.27211610006634,406.27211610006634,z,0.6364921000786126,None,,,,,,,,PH_th,001,2025-03-09_20h19.27.634,MainFlow,2024.2.4,129.83303474581254,2025-03-09 20h19.41.154924 +0700,
1,1,1,word/wordth0011.png,image/True/img01.png,107,107,0,z,1.1491370999719948,None,0,107,107,107,406.91936679999344,,,,,,,408.40649379999377,407.90640720003285,407.91047830006573,407.91047830006573,408.39996030007023,408.39996030007023,408.3932844999945,409.50518790003844,409.50518790003844,409.50518790003844,z,1.1491370999719948,None,,,,,,,,PH_th,001,2025-03-09_20h19.27.634,MainFlow,2024.2.4,129.83303474581254,2025-03-09 20h19.41.154924 +0700,
1,44,0,word/wordth0441.png,image/False/imgf44.png,108,108,0,x,0.5468630999093875,None,0,108,108,108,410.6648493000539,,,,,,,412.1510050999932,411.65218710002955,411.6561691999668,411.6561691999668,412.1510050999932,412.1510050999932,412.14460070000496,413.25856190000195,413.25856190000195,413.25856190000195,x,0.5468630999093875,None,,,,,,,,PH_th,001,2025-03-09_20h19.27.634,MainFlow,2024.2.4,129.83303474581254,2025-03-09 20h19.41.154924 +0700,
1,48,0,word/wordth0481.png,image/False/imgf48.png,109,109,0,x,1.100873799994588,None,0,109,109,109,413.8138482000213,,,,,,,415.30141920002643,414.80167139996774,414.8080000000773,414.8080000000773,415.30141920002643,415.30141920002643,415.29472490004264,416.4047098000301,416.4047098000301,416.4047098000301,x,1.100873799994588,None,,,,,,,,PH_th,001,2025-03-09_20h19.27.634,MainFlow,2024.2.4,129.83303474581254,2025-03-09 20h19.41.154924 +0700,
1,60,0,word/wordth0601.png,image/False/imgf60.png,110,110,0,x,1.1870511999586597,None,0,110,110,110,417.51391129998956,,,,,,,419.00203760003205,418.50102990004234,418.50514160003513,418.50514160003513,418.99519250006415,418.99519250006415,418.98884180001915,420.0895115999738,420.0895115999738,420.0895115999738,x,1.1870511999586597,None,,,,,,,,PH_th,001,2025-03-09_20h19.27.634,MainFlow,2024.2.4,129.83303474581254,2025-03-09 20h19.41.154924 +0700,
1,96,1,word/wordth0961.png,image/True/img96.png,111,111,0,z,0.7508451999165118,None,0,111,111,111,421.28535899997223,,,,,,,422.7701182999881,422.27123920002487,422.2751186999958,422.2751186999958,422.7701182999881,422.7701182999881,422.7634616000578,423.8763580999803,423.8763580999803,423.8763580999803,z,0.7508451999165118,None,,,,,,,,PH_th,001,2025-03-09_20h19.27.634,MainFlow,2024.2.4,129.83303474581254,2025-03-09 20h19.41.154924 +0700,
1,79,0,word/wordth0791.png,image/False/imgf79.png,112,112,0,x,1.2127185000572354,None,0,112,112,112,424.6372578999726,,,,,,,426.12502729997505,425.62274040002376,425.63125720003154,425.63125720003154,426.12502729997505,426.12502729997505,426.118474900024,427.22517530003097,427.22517530003097,427.22517530003097,x,1.2127185000572354,None,,,,,,,,PH_th,001,2025-03-09_20h19.27.634,MainFlow,2024.2.4,129.83303474581254,2025-03-09 20h19.41.154924 +0700,
1,7,0,word/wordth0071.png,image/False/imgf07.png,113,113,0,x,0.709616299951449,None,0,113,113,113,428.4455643000547,,,,,,,429.931558100041,429.432508100057,429.43664319999516,429.43664319999516,429.931558100041,429.931558100041,429.92485509999096,431.01846230006777,431.01846230006777,431.01846230006777,x,0.709616299951449,None,,,,,,,,PH_th,001,2025-03-09_20h19.27.634,MainFlow,2024.2.4,129.83303474581254,2025-03-09 20h19.41.154924 +0700,
1,36,0,word/wordth0361.png,image/False/imgf36.png,114,114,0,x,0.9707204001024365,None,0,114,114,114,431.7405826000031,,,,,,,433.2260721999919,432.72675330005586,432.73067530000117,432.73067530000117,433.2260721999919,433.2260721999919,433.22003910003696,434.31336610007565,434.31336610007565,434.31336610007565,x,0.9707204001024365,None,,,,,,,,PH_th,001,2025-03-09_20h19.27.634,MainFlow,2024.2.4,129.83303474581254,2025-03-09 20h19.41.154924 +0700,
1,71,0,word/wordth0711.png,image/False/imgf71.png,115,115,0,z,0.6824823000933975,None,0,115,115,115,435.2927441999782,,,,,,,436.7794905999908,436.28100930002984,436.2853382000467,436.2853382000467,436.7794905999908,436.7794905999908,436.77293390000705,437.8873288000468,437.8873288000468,437.8873288000468,z,0.6824823000933975,None,,,,,,,,PH_th,001,2025-03-09_20h19.27.634,MainFlow,2024.2.4,129.83303474581254,2025-03-09 20h19.41.154924 +0700,
1,20,0,word/wordth0201.png,image/False/imgf20.png,116,116,0,x,0.5909402000252157,None,0,116,116,116,438.5815836000256,,,,,,,440.06833240005653,439.56947440002114,439.5735406000167,439.5735406000167,440.06833240005653,440.06833240005653,440.0616498000454,441.1835487000644,441.1835487000644,441.1835487000644,x,0.5909402000252157,None,,,,,,,,PH_th,001,2025-03-09_20h19.27.634,MainFlow,2024.2.4,129.83303474581254,2025-03-09 20h19.41.154924 +0700,
1,87,1,word/wordth0871.png,image/True/img87.png,117,117,0,x,1.0944395000115037,None,0,117,117,117,441.78619570005685,,,,,,,443.27284850005526,442.7748404999729,442.778756899992,442.778756899992,443.27284850005526,443.27284850005526,443.2662016999675,444.3758769000415,444.3758769000415,444.3758769000415,x,1.0944395000115037,None,,,,,,,,PH_th,001,2025-03-09_20h19.27.634,MainFlow,2024.2.4,129.83303474581254,2025-03-09 20h19.41.154924 +0700,
1,50,0,word/wordth0501.png,image/False/imgf50.png,118,118,0,x,0.8371123999822885,None,0,118,118,118,445.47908940003254,,,,,,,446.96906969998963,446.4692697999999,446.47776390006766,446.47776390006766,446.96906969998963,446.96906969998963,446.962374499999,448.0842905000318,448.0842905000318,448.0842905000318,x,0.8371123999822885,None,,,,,,,,PH_th,001,2025-03-09_20h19.27.634,MainFlow,2024.2.4,129.83303474581254,2025-03-09 20h19.41.154924 +0700,
1,18,1,word/wordth0181.png,image/True/img18.png,119,119,0,z,0.8361124000512064,None,0,119,119,119,448.92864339996595,,,,,,,450.4146317000268,449.91583179996815,449.9200535999844,449.9200535999844,450.4146317000268,450.4146317000268,450.4078812999651,451.490759300068,451.490759300068,451.490759300068,z,0.8361124000512064,None,,,,,,,,PH_th,001,2025-03-09_20h19.27.634,MainFlow,2024.2.4,129.83303474581254,2025-03-09 20h19.41.154924 +0700,
1,71,0,word/wordth0711.png,image/False/imgf71.png,120,120,0,x,1.805530000012368,None,0,120,120,120,452.33820640004706,,,,,,,453.8241694000317,453.3252334999852,453.32948519999627,453.32948519999627,453.8241694000317,453.8241694000317,453.8174732000334,454.94178360002115,454.94178360002115,454.94178360002115,x,1.805530000012368,None,,,,,,,,PH_th,001,2025-03-09_20h19.27.634,MainFlow,2024.2.4,129.83303474581254,2025-03-09 20h19.41.154924 +0700,
1,46,1,word/wordth0461.png,image/True/img46.png,121,121,0,z,0.7727399000432342,None,0,121,121,121,456.75731460005045,,,,,,,458.2431078000227,457.7440933000762,457.74810059997253,457.74810059997253,458.2431078000227,458.2431078000227,458.2363698000554,459.36025200004224,459.36025200004224,459.36025200004224,z,0.7727399000432342,None,,,,,,,,PH_th,001,2025-03-09_20h19.27.634,MainFlow,2024.2.4,129.83303474581254,2025-03-09 20h19.41.154924 +0700,
1,10,1,word/wordth0101.png,image/True/img10.png,122,122,0,z,1.0015392999630421,None,0,122,122,122,460.14365280000493,,,,,,,461.63117100007366,461.13000650005415,461.13399810006376,461.13399810006376,461.62425760005135,461.62425760005135,461.6167387000751,462.71659800002817,462.71659800002817,462.71659800002817,z,1.0015392999630421,None,,,,,,,,PH_th,001,2025-03-09_20h19.27.634,MainFlow,2024.2.4,129.83303474581254,2025-03-09 20h19.41.154924 +0700,
1,16,0,word/wordth0161.png,image/False/imgf16.png,123,123,0,x,0.6996168999467045,None,0,123,123,123,463.7274020999903,,,,,,,465.212406000006,464.71346770005766,464.7173588000005,464.7173588000005,465.212406000006,465.212406000006,465.2062028000364,466.3104197999928,466.3104197999928,466.3104197999928,x,0.6996168999467045,None,,,,,,,,PH_th,001,2025-03-09_20h19.27.634,MainFlow,2024.2.4,129.83303474581254,2025-03-09 20h19.41.154924 +0700,
1,15,0,word/wordth0151.png,image/False/imgf15.png,124,124,0,x,1.1880114999366924,None,0,124,124,124,467.0177300000796,,,,,,,468.50418220006395,468.00549210002646,468.0099855000153,468.0099855000153,468.50418220006395,468.50418220006395,468.49757430003956,469.59641350002494,469.59641350002494,469.59641350002494,x,1.1880114999366924,None,,,,,,,,PH_th,001,2025-03-09_20h19.27.634,MainFlow,2024.2.4,129.83303474581254,2025-03-09 20h19.41.154924 +0700,
1,59,0,word/wordth0591.png,image/False/imgf59.png,125,125,0,x,0.9576548999175429,None,0,125,125,125,470.7933415999869,,,,,,,472.2793261000188,471.7804054999724,471.7844856000738,471.7844856000738,472.2793261000188,472.2793261000188,472.2721848000074,473.3532436999958,473.3532436999958,473.3532436999958,x,0.9576548999175429,None,,,,,,,,PH_th,001,2025-03-09_20h19.27.634,MainFlow,2024.2.4,129.83303474581254,2025-03-09 20h19.41.154924 +0700,
1,11,0,word/wordth0111.png,image/False/imgf11.png,126,126,0,x,0.9716251000063494,None,0,126,126,126,474.32023060007486,,,,,,,475.8062123999698,475.30724410002586,475.31154100003187,475.31154100003187,475.8062123999698,475.8062123999698,475.7995146000758,476.9145475999685,476.9145475999685,476.9145475999685,x,0.9716251000063494,None,,,,,,,,PH_th,001,2025-03-09_20h19.27.634,MainFlow,2024.2.4,129.83303474581254,2025-03-09 20h19.41.154924 +0700,
1,75,1,word/wordth0751.png,image/True/img75.png,127,127,0,z,0.5211590999970213,None,0,127,127,127,477.8973460000707,,,,,,,479.38319480000064,478.8843847999815,478.88803610007744,478.88803610007744,479.38319480000064,479.38319480000064,479.3765661000507,480.47110299998894,480.47110299998894,480.47110299998894,z,0.5211590999970213,None,,,,,,,,PH_th,001,2025-03-09_20h19.27.634,MainFlow,2024.2.4,129.83303474581254,2025-03-09 20h19.41.154924 +0700,
1,33,1,word/wordth0331.png,image/True/img33.png,128,128,0,z,0.995579200098291,None,0,128,128,128,481.00594250008,,,,,,,482.49237730004825,481.9942519000033,481.99844470003154,481.99844470003154,482.49237730004825,482.49237730004825,482.4860767000355,483.5863844000269,483.5863844000269,483.5863844000269,z,0.995579200098291,None,,,,,,,,PH_th,001,2025-03-09_20h19.27.634,MainFlow,2024.2.4,129.83303474581254,2025-03-09 20h19.41.154924 +0700,
1,66,0,word/wordth0661.png,image/False/imgf66.png,129,129,0,x,0.6826195999747142,None,0,129,129,129,484.58913259999827,,,,,,,486.0753026000457,485.5760247000726,485.57990050001536,485.57990050001536,486.0753026000457,486.0753026000457,486.0687655999791,487.16548429999966,487.16548429999966,487.16548429999966,x,0.6826195999747142,None,,,,,,,,PH_th,001,2025-03-09_20h19.27.634,MainFlow,2024.2.4,129.83303474581254,2025-03-09 20h19.41.154924 +0700,
1,38,1,word/wordth0381.png,image/True/img38.png,130,130,0,z,1.0703944999258965,None,0,130,130,130,487.86016809998546,,,,,,,489.3462015000405,488.847672300064,488.8517790000187,488.8517790000187,489.3462015000405,489.3462015000405,489.3395071000559,490.4277415999677,490.4277415999677,490.4277415999677,z,1.0703944999258965,None,,,,,,,,PH_th,001,2025-03-09_20h19.27.634,MainFlow,2024.2.4,129.83303474581254,2025-03-09 20h19.41.154924 +0700,
1,38,1,word/wordth0381.png,image/True/img38.png,131,131,0,z,3.0202429000055417,None,0,131,131,131,491.50823609996587,,,,,,,492.9941631000256,492.49543959996663,492.49913130002096,492.49913130002096,492.9941631000256,492.9941631000256,492.9875183000695,494.0740498000523,494.0740498000523,494.0740498000523,z,3.0202429000055417,None,,,,,,,,PH_th,001,2025-03-09_20h19.27.634,MainFlow,2024.2.4,129.83303474581254,2025-03-09 20h19.41.154924 +0700,
1,63,1,word/wordth0631.png,image/True/img63.png,132,132,0,z,0.9415995999006554,None,0,132,132,132,497.1072873000521,,,,,,,498.5931919000577,498.09459440002684,498.0983787999721,498.0983787999721,498.5931919000577,498.5931919000577,498.58645840000827,499.6936407000758,499.6936407000758,499.6936407000758,z,0.9415995999006554,None,,,,,,,,PH_th,001,2025-03-09_20h19.27.634,MainFlow,2024.2.4,129.83303474581254,2025-03-09 20h19.41.154924 +0700,
1,33,0,word/wordth0331.png,image/False/imgf33.png,133,133,0,x,0.9066087000537664,None,0,133,133,133,500.64318450004794,,,,,,,502.1332321000518,501.6323882000288,501.6409900999861,501.6409900999861,502.1332321000518,502.1332321000518,502.1262395000085,503.2287669000216,503.2287669000216,503.2287669000216,x,0.9066087000537664,None,,,,,,,,PH_th,001,2025-03-09_20h19.27.634,MainFlow,2024.2.4,129.83303474581254,2025-03-09 20h19.41.154924 +0700,
1,52,1,word/wordth0521.png,image/True/img52.png,134,134,0,z,0.9126086999895051,None,0,134,134,134,504.1445371999871,,,,,,,505.63075760006905,505.13164969999343,505.13567670003977,505.13567670003977,505.63075760006905,505.63075760006905,505.6241122999927,506.7286271000048,506.7286271000048,506.7286271000048,z,0.9126086999895051,None,,,,,,,,PH_th,001,2025-03-09_20h19.27.634,MainFlow,2024.2.4,129.83303474581254,2025-03-09 20h19.41.154924 +0700,
1,11,0,word/wordth0111.png,image/False/imgf11.png,135,135,0,x,1.251996299950406,None,0,135,135,135,507.65146630001254,,,,,,,509.1378457000246,508.6389436000027,508.643226300017,508.643226300017,509.1378457000246,509.1378457000246,509.1313155000098,510.2450865000719,510.2450865000719,510.2450865000719,x,1.251996299950406,None,,,,,,,,PH_th,001,2025-03-09_20h19.27.634,MainFlow,2024.2.4,129.83303474581254,2025-03-09 20h19.41.154924 +0700,
1,1,0,word/wordth0011.png,image/False/imgf01.png,136,136,0,x,1.1732955999905244,None,0,136,136,136,511.50899430003483,,,,,,,512.996988800005,512.4969835999655,512.5009684000397,512.5009684000397,512.996988800005,512.996988800005,512.9900727000786,514.074427900021,514.074427900021,514.074427900021,x,1.1732955999905244,None,,,,,,,,PH_th,001,2025-03-09_20h19.27.634,MainFlow,2024.2.4,129.83303474581254,2025-03-09 20h19.41.154924 +0700,
1,96,0,word/wordth0961.png,image/False/imgf96.png,137,137,0,z,0.9706039000302553,None,0,137,137,137,515.2550787000218,,,,,,,516.7410291000269,516.2425802000798,516.2467243999708,516.2467243999708,516.7410291000269,516.7410291000269,516.7348616999807,517.8380426999647,517.8380426999647,517.8380426999647,z,0.9706039000302553,None,,,,,,,,PH_th,001,2025-03-09_20h19.27.634,MainFlow,2024.2.4,129.83303474581254,2025-03-09 20h19.41.154924 +0700,
1,57,1,word/wordth0571.png,image/True/img57.png,138,138,0,z,1.1730421000393108,None,0,138,138,138,518.8175557000795,,,,,,,520.3037205999717,519.8051111999666,519.8096484000562,519.8096484000562,520.3037205999717,520.3037205999717,520.2970080999658,521.3958267000271,521.3958267000271,521.3958267000271,z,1.1730421000393108,None,,,,,,,,PH_th,001,2025-03-09_20h19.27.634,MainFlow,2024.2.4,129.83303474581254,2025-03-09 20h19.41.154924 +0700,
1,30,1,word/wordth0301.png,image/True/img30.png,139,139,0,z,0.6719259000383317,None,0,139,139,139,522.582096899976,,,,,,,524.068274899968,523.5691484999843,523.5732214000309,523.5732214000309,524.068274899968,524.068274899968,524.0616131999996,525.1479528000345,525.1479528000345,525.1479528000345,z,0.6719259000383317,None,,,,,,,,PH_th,001,2025-03-09_20h19.27.634,MainFlow,2024.2.4,129.83303474581254,2025-03-09 20h19.41.154924 +0700,
1,41,1,word/wordth0411.png,image/True/img41.png,140,140,0,z,0.6452191000571474,None,0,140,140,140,525.8284187000245,,,,,,,527.3148680999875,526.8158817000221,526.819586400059,526.819586400059,527.3148680999875,527.3148680999875,527.3081748000113,528.4153465999989,528.4153465999989,528.4153465999989,z,0.6452191000571474,None,,,,,,,,PH_th,001,2025-03-09_20h19.27.634,MainFlow,2024.2.4,129.83303474581254,2025-03-09 20h19.41.154924 +0700,
1,50,1,word/wordth0501.png,image/True/img50.png,141,141,0,z,0.6897463999921456,None,0,141,141,141,529.0746644000756,,,,,,,530.5608315999852,530.0617234000238,530.0657928000437,530.0657928000437,530.5608315999852,530.5608315999852,530.5538613999961,531.6512113000499,531.6512113000499,531.6512113000499,z,0.6897463999921456,None,,,,,,,,PH_th,001,2025-03-09_20h19.27.634,MainFlow,2024.2.4,129.83303474581254,2025-03-09 20h19.41.154924 +0700,
1,3,0,word/wordth0031.png,image/False/imgf03.png,142,142,0,x,2.129718100070022,None,0,142,142,142,532.3526512000244,,,,,,,533.8386356000556,533.3392786000622,533.3431672999868,533.3431672999868,533.8386356000556,533.8386356000556,533.8319927999983,534.9224716000026,534.9224716000026,534.9224716000026,x,2.129718100070022,None,,,,,,,,PH_th,001,2025-03-09_20h19.27.634,MainFlow,2024.2.4,129.83303474581254,2025-03-09 20h19.41.154924 +0700,
1,78,1,word/wordth0781.png,image/True/img78.png,143,143,0,z,0.3683008999796584,None,0,143,143,143,537.0635332000675,,,,,,,538.5497067000251,538.050365800038,538.0543509999989,538.0543509999989,538.5497067000251,538.5497067000251,538.5428131000372,539.6344784999965,539.6344784999965,539.6344784999965,z,0.3683008999796584,None,,,,,,,,PH_th,001,2025-03-09_20h19.27.634,MainFlow,2024.2.4,129.83303474581254,2025-03-09 20h19.41.154924 +0700,
1,76,0,word/wordth0761.png,image/False/imgf76.png,144,144,0,x,0.9304561999160796,None,0,144,144,144,540.010757900076,,,,,,,541.4963471000083,540.9979332999792,541.002396899974,541.002396899974,541.4963471000083,541.4963471000083,541.4897005000385,542.6023739000084,542.6023739000084,542.6023739000084,x,0.9304561999160796,None,,,,,,,,PH_th,001,2025-03-09_20h19.27.634,MainFlow,2024.2.4,129.83303474581254,2025-03-09 20h19.41.154924 +0700,
1,6,1,word/wordth0061.png,image/True/img06.png,145,145,0,z,1.0520511999493465,None,0,145,145,145,543.5418168000178,,,,,,,545.0277650000062,544.5285288000014,544.5325350000057,544.5325350000057,545.0277650000062,545.0277650000062,545.0210671999957,546.1065420999657,546.1065420999657,546.1065420999657,z,1.0520511999493465,None,,,,,,,,PH_th,001,2025-03-09_20h19.27.634,MainFlow,2024.2.4,129.83303474581254,2025-03-09 20h19.41.154924 +0700,
1,31,0,word/wordth0311.png,image/False/imgf31.png,146,146,0,x,0.7401951999636367,None,0,146,146,146,547.1695068000117,,,,,,,548.6551131000742,548.1560954999877,548.1597555000335,548.1597555000335,548.6551131000742,548.6551131000742,548.6486130000558,549.7192666999763,549.7192666999763,549.7192666999763,x,0.7401951999636367,None,,,,,,,,PH_th,001,2025-03-09_20h19.27.634,MainFlow,2024.2.4,129.83303474581254,2025-03-09 20h19.41.154924 +0700,
1,22,0,word/wordth0221.png,image/False/imgf22.png,147,147,0,x,1.092762800049968,None,0,147,147,147,550.4702058000257,,,,,,,551.9561627999647,551.4577625000384,551.4623060000595,551.4623060000595,551.9561627999647,551.9561627999647,551.949471800006,553.0575531000504,553.0575531000504,553.0575531000504,x,1.092762800049968,None,,,,,,,,PH_th,001,2025-03-09_20h19.27.634,MainFlow,2024.2.4,129.83303474581254,2025-03-09 20h19.41.154924 +0700,
1,28,0,word/wordth0281.png,image/False/imgf28.png,148,148,0,x,1.038611700059846,None,0,148,148,148,554.1613290000241,,,,,,,555.647747799987,555.1485107999761,555.1525764999678,555.1525764999678,555.647747799987,555.647747799987,555.6413318000268,556.7371626000386,556.7371626000386,556.7371626000386,x,1.038611700059846,None,,,,,,,,PH_th,001,2025-03-09_20h19.27.634,MainFlow,2024.2.4,129.83303474581254,2025-03-09 20h19.41.154924 +0700,
1,57,0,word/wordth0571.png,image/False/imgf57.png,149,149,0,x,2.969353900058195,None,0,149,149,149,557.7859920000192,,,,,,,559.2733902999898,558.7726207000669,558.7766291999724,558.7766291999724,559.2664517000085,559.2664517000085,559.2605472999858,560.3676015000092,560.3676015000092,560.3676015000092,x,2.969353900058195,None,,,,,,,,PH_th,001,2025-03-09_20h19.27.634,MainFlow,2024.2.4,129.83303474581254,2025-03-09 20h19.41.154924 +0700,
1,7,0,word/wordth0071.png,image/False/imgf07.png,150,150,0,x,0.6875078999437392,None,0,150,150,150,563.3487624999834,,,,,,,564.8347709999653,564.3355292000342,564.3399289000081,564.3399289000081,564.8347709999653,564.8347709999653,564.828088200069,565.9252030000789,565.9252030000789,565.9252030000789,x,0.6875078999437392,None,,,,,,,,PH_th,001,2025-03-09_20h19.27.634,MainFlow,2024.2.4,129.83303474581254,2025-03-09 20h19.41.154924 +0700,
1,56,1,word/wordth0561.png,image/True/img56.png,151,151,0,z,1.4192610000027344,None,0,151,151,151,566.6204058000585,,,,,,,568.1068808999844,567.607188199996,567.611332600005,567.611332600005,568.1068808999844,568.1068808999844,568.1002900999738,569.194548200001,569.194548200001,569.194548200001,z,1.4192610000027344,None,,,,,,,,PH_th,001,2025-03-09_20h19.27.634,MainFlow,2024.2.4,129.83303474581254,2025-03-09 20h19.41.154924 +0700,
1,6,0,word/wordth0061.png,image/False/imgf06.png,152,152,0,x,0.8546159999677911,None,0,152,152,152,570.6241570999846,,,,,,,572.1106675000628,571.6115859000711,571.615387900034,571.615387900034,572.1106675000628,572.1106675000628,572.103956200066,573.2049360000528,573.2049360000528,573.2049360000528,x,0.8546159999677911,None,,,,,,,,PH_th,001,2025-03-09_20h19.27.634,MainFlow,2024.2.4,129.83303474581254,2025-03-09 20h19.41.154924 +0700,
1,36,0,word/wordth0361.png,image/False/imgf36.png,153,153,0,x,0.9108043999876827,None,0,153,153,153,574.0683495000703,,,,,,,575.5542848000769,575.0554959999863,575.0591841000132,575.0591841000132,575.5542848000769,575.5542848000769,575.5476048999699,576.6442303999793,576.6442303999793,576.6442303999793,x,0.9108043999876827,None,,,,,,,,PH_th,001,2025-03-09_20h19.27.634,MainFlow,2024.2.4,129.83303474581254,2025-03-09 20h19.41.154924 +0700,
1,79,1,word/wordth0791.png,image/True/img79.png,154,154,0,z,0.9821686999639496,None,0,154,154,154,577.568086000043,,,,,,,579.0540579999797,578.5550212999806,578.5591668999987,578.5591668999987,579.0540579999797,579.0540579999797,579.0473341000034,580.1532434000401,580.1532434000401,580.1532434000401,z,0.9821686999639496,None,,,,,,,,PH_th,001,2025-03-09_20h19.27.634,MainFlow,2024.2.4,129.83303474581254,2025-03-09 20h19.41.154924 +0700,
1,52,0,word/wordth0521.png,image/False/imgf52.png,155,155,0,x,0.7714200000045821,None,0,155,155,155,581.1459930000128,,,,,,,582.6318866000511,582.1329102000454,582.1367309000343,582.1367309000343,582.6318866000511,582.6318866000511,582.6251774000702,583.7201252999948,583.7201252999948,583.7201252999948,x,0.7714200000045821,None,,,,,,,,PH_th,001,2025-03-09_20h19.27.634,MainFlow,2024.2.4,129.83303474581254,2025-03-09 20h19.41.154924 +0700,
1,18,0,word/wordth0181.png,image/False/imgf18.png,156,156,0,x,1.092718799947761,None,0,156,156,156,584.5044286000775,,,,,,,585.9910792000592,585.4918902000645,585.4962759000482,585.4962759000482,585.9910792000592,585.9910792000592,585.9842031999724,587.0794375999831,587.0794375999831,587.0794375999831,x,1.092718799947761,None,,,,,,,,PH_th,001,2025-03-09_20h19.27.634,MainFlow,2024.2.4,129.83303474581254,2025-03-09 20h19.41.154924 +0700,
1,23,1,word/wordth0231.png,image/True/img23.png,157,157,0,x,8.73315680003725,None,0,157,157,157,588.1835750000319,,,,,,,589.6698557999916,589.1707468000241,589.1746767000295,589.1746767000295,589.6698557999916,589.6698557999916,589.6632252000272,590.7658687999938,590.7658687999938,590.7658687999938,x,8.73315680003725,None,,,,,,,,PH_th,001,2025-03-09_20h19.27.634,MainFlow,2024.2.4,129.83303474581254,2025-03-09 20h19.41.154924 +0700,
1,61,1,word/wordth0611.png,image/True/img61.png,158,158,0,z,0.6598845000844449,None,0,158,158,158,599.5095127000241,,,,,,,600.9951834999956,600.4964581000386,600.5003908000654,600.5003908000654,600.9951834999956,600.9951834999956,600.9886064999737,602.0944090000121,602.0944090000121,602.0944090000121,z,0.6598845000844449,None,,,,,,,,PH_th,001,2025-03-09_20h19.27.634,MainFlow,2024.2.4,129.83303474581254,2025-03-09 20h19.41.154924 +0700,
1,44,1,word/wordth0441.png,image/True/img44.png,159,159,0,z,1.0597270000725985,None,0,159,159,159,602.767891400028,,,,,,,604.2534609000431,603.7549457000569,603.7591805000557,603.7591805000557,604.2534609000431,604.2534609000431,604.2467782000313,605.3410448000068,605.3410448000068,605.3410448000068,z,1.0597270000725985,None,,,,,,,,PH_th,001,2025-03-09_20h19.27.634,MainFlow,2024.2.4,129.83303474581254,2025-03-09 20h19.41.154924 +0700,
1,10,1,word/wordth0101.png,image/True/img10.png,160,160,0,z,0.5758626000024378,None,0,160,160,160,606.4103111000732,,,,,,,607.8965211000759,607.3972270999802,607.4015691999812,607.4015691999812,607.8965211000759,607.8965211000759,607.8898609000025,608.990198399988,608.990198399988,608.990198399988,z,0.5758626000024378,None,,,,,,,,PH_th,001,2025-03-09_20h19.27.634,MainFlow,2024.2.4,129.83303474581254,2025-03-09 20h19.41.154924 +0700,
1,31,1,word/wordth0311.png,image/True/img31.png,161,161,0,z,0.6837248000083491,None,0,161,161,161,609.5763354999945,,,,,,,611.0623663000297,610.5636311999988,610.5676043999847,610.5676043999847,611.0623663000297,611.0623663000297,611.0556792999851,612.1534137000563,612.1534137000563,612.1534137000563,z,0.6837248000083491,None,,,,,,,,PH_th,001,2025-03-09_20h19.27.634,MainFlow,2024.2.4,129.83303474581254,2025-03-09 20h19.41.154924 +0700,
1,14,0,word/wordth0141.png,image/False/imgf14.png,162,162,0,z,0.8132268999470398,None,0,162,162,162,612.8476315999869,,,,,,,614.3335697000148,613.8352615999756,613.8398108000401,613.8398108000401,614.3335697000148,614.3335697000148,614.3269042000175,615.42889380001,615.42889380001,615.42889380001,z,0.8132268999470398,None,,,,,,,,PH_th,001,2025-03-09_20h19.27.634,MainFlow,2024.2.4,129.83303474581254,2025-03-09 20h19.41.154924 +0700,
1,15,0,word/wordth0151.png,image/False/imgf15.png,163,163,0,x,1.3716729999287054,None,0,163,163,163,616.2499753000448,,,,,,,617.7372099000495,617.2371401999844,617.2409645000007,617.2409645000007,617.7372099000495,617.7372099000495,617.7293349000392,618.8314785000402,618.8314785000402,618.8314785000402,x,1.3716729999287054,None,,,,,,,,PH_th,001,2025-03-09_20h19.27.634,MainFlow,2024.2.4,129.83303474581254,2025-03-09 20h19.41.154924 +0700,
1,51,1,word/wordth0511.png,image/True/img51.png,164,164,0,z,1.373192600090988,None,0,164,164,164,620.2140569000039,,,,,,,621.7015687000239,621.2011870000279,621.2060189000331,621.2060189000331,621.7015687000239,621.7015687000239,621.6949463000055,622.8105154000223,622.8105154000223,622.8105154000223,z,1.373192600090988,None,,,,,,,,PH_th,001,2025-03-09_20h19.27.634,MainFlow,2024.2.4,129.83303474581254,2025-03-09 20h19.41.154924 +0700,
1,82,1,word/wordth0821.png,image/True/img82.png,165,165,0,x,5.452834199997596,None,0,165,165,165,624.1936404000735,,,,,,,625.6781688000774,625.178958500037,625.1830043999944,625.1830043999944,625.6781688000774,625.6781688000774,625.6714457999915,626.7571467000525,626.7571467000525,626.7571467000525,x,5.452834199997596,None,,,,,,,,PH_th,001,2025-03-09_20h19.27.634,MainFlow,2024.2.4,129.83303474581254,2025-03-09 20h19.41.154924 +0700,
1,27,0,word/wordth0271.png,image/False/imgf27.png,166,166,0,x,0.675714600016363,None,0,166,166,166,632.2226916999789,,,,,,,633.7094055999769,633.2107922000578,633.2153273000149,633.2153273000149,633.7094055999769,633.7094055999769,633.7022862000158,634.8048885000171,634.8048885000171,634.8048885000171,x,0.675714600016363,None,,,,,,,,PH_th,001,2025-03-09_20h19.27.634,MainFlow,2024.2.4,129.83303474581254,2025-03-09 20h19.41.154924 +0700,
1,78,0,word/wordth0781.png,image/False/imgf78.png,167,167,0,x,0.9732037000358105,None,0,167,167,167,635.4936541999923,,,,,,,636.979686900042,636.480193400057,636.4844196999911,636.4844196999911,636.979686900042,636.979686900042,636.9730453999946,638.0697698000586,638.0697698000586,638.0697698000586,x,0.9732037000358105,None,,,,,,,,PH_th,001,2025-03-09_20h19.27.634,MainFlow,2024.2.4,129.83303474581254,2025-03-09 20h19.41.154924 +0700,
1,89,1,word/wordth0891.png,image/True/img89.png,168,168,0,z,3.4573795000324026,None,0,168,168,168,639.0561827999773,,,,,,,640.5423979000188,640.0440233000554,640.0482038999908,640.0482038999908,640.5423979000188,640.5423979000188,640.5352845999878,641.6255092000356,641.6255092000356,641.6255092000356,z,3.4573795000324026,None,,,,,,,,PH_th,001,2025-03-09_20h19.27.634,MainFlow,2024.2.4,129.83303474581254,2025-03-09 20h19.41.154924 +0700,
1,76,1,word/wordth0761.png,image/True/img76.png,169,169,0,z,1.1913341000908986,None,0,169,169,169,645.0933394000167,,,,,,,646.5794701999985,646.0815766999731,646.0856798000168,646.0856798000168,646.5794701999985,646.5794701999985,646.57275390008,647.6774197000777,647.6774197000777,647.6774197000777,z,1.1913341000908986,None,,,,,,,,PH_th,001,2025-03-09_20h19.27.634,MainFlow,2024.2.4,129.83303474581254,2025-03-09 20h19.41.154924 +0700,
1,17,0,word/wordth0171.png,image/False/imgf17.png,170,170,0,z,1.0121746000368148,None,0,170,170,170,648.8783534000395,,,,,,,650.364551100065,649.8660277000163,649.8704258999787,649.8704258999787,650.364551100065,650.364551100065,650.3578387000598,651.477302000043,651.477302000043,651.477302000043,z,1.0121746000368148,None,,,,,,,,PH_th,001,2025-03-09_20h19.27.634,MainFlow,2024.2.4,129.83303474581254,2025-03-09 20h19.41.154924 +0700,
1,95,1,word/wordth0951.png,image/True/img95.png,171,171,0,z,0.8832226999802515,None,0,171,171,171,652.4975536999991,,,,,,,653.9846320999786,653.4866409000242,653.4904497000389,653.4904497000389,653.9846320999786,653.9846320999786,653.9779632000718,655.1074240000453,655.1074240000453,655.1074240000453,z,0.8832226999802515,None,,,,,,,,PH_th,001,2025-03-09_20h19.27.634,MainFlow,2024.2.4,129.83303474581254,2025-03-09 20h19.41.154924 +0700,
1,61,0,word/wordth0611.png,image/False/imgf61.png,172,172,0,x,1.5045148000353947,None,0,172,172,172,656.0030612000264,,,,,,,657.4892223000061,656.9906368000666,656.995244699996,656.995244699996,657.4892223000061,657.4892223000061,657.4824587000767,658.6009752000682,658.6009752000682,658.6009752000682,x,1.5045148000353947,None,,,,,,,,PH_th,001,2025-03-09_20h19.27.634,MainFlow,2024.2.4,129.83303474581254,2025-03-09 20h19.41.154924 +0700,
1,82,1,word/wordth0821.png,image/True/img82.png,173,173,0,z,0.6707365000620484,None,0,173,173,173,660.1141395000741,,,,,,,661.6003632000647,661.1010877999943,661.1059163999744,661.1059163999744,661.6003632000647,661.6003632000647,661.5937972000102,662.6748581000138,662.6748581000138,662.6748581000138,z,0.6707365000620484,None,,,,,,,,PH_th,001,2025-03-09_20h19.27.634,MainFlow,2024.2.4,129.83303474581254,2025-03-09 20h19.41.154924 +0700,
1,14,1,word/wordth0141.png,image/True/img14.png,174,174,0,z,0.5809270999161527,None,0,174,174,174,663.355678700027,,,,,,,664.8422040999867,664.3439066000283,664.3478071000427,664.3478071000427,664.8422040999867,664.8422040999867,664.8355427000206,665.9453810000559,665.9453810000559,665.9453810000559,z,0.5809270999161527,None,,,,,,,,PH_th,001,2025-03-09_20h19.27.634,MainFlow,2024.2.4,129.83303474581254,2025-03-09 20h19.41.154924 +0700,
1,38,0,word/wordth0381.png,image/False/imgf38.png,175,175,0,x,1.0591763999545947,None,0,175,175,175,666.534297300037,,,,,,,668.0202339000534,667.5216017999919,667.5259332000278,667.5259332000278,668.0202339000534,668.0202339000534,668.0135371000506,669.147519399994,669.147519399994,669.147519399994,x,1.0591763999545947,None,,,,,,,,PH_th,001,2025-03-09_20h19.27.634,MainFlow,2024.2.4,129.83303474581254,2025-03-09 20h19.41.154924 +0700,
1,17,0,word/wordth0171.png,image/False/imgf17.png,176,176,0,z,0.576625999994576,None,0,176,176,176,670.2199191000545,,,,,,,671.7061383000109,671.2067802000092,671.2108504000353,671.2108504000353,671.7061383000109,671.7061383000109,671.6994635000592,672.8165353999939,672.8165353999939,672.8165353999939,z,0.576625999994576,None,,,,,,,,PH_th,001,2025-03-09_20h19.27.634,MainFlow,2024.2.4,129.83303474581254,2025-03-09 20h19.41.154924 +0700,
1,42,0,word/wordth0421.png,image/False/imgf42.png,177,177,0,x,0.6356773000443354,None,0,177,177,177,673.4059598000022,,,,,,,674.8924488000339,674.3937910000095,674.3980402000016,674.3980402000016,674.8924488000339,674.8924488000339,674.8857722000685,676.0120915999869,676.0120915999869,676.0120915999869,x,0.6356773000443354,None,,,,,,,,PH_th,001,2025-03-09_20h19.27.634,MainFlow,2024.2.4,129.83303474581254,2025-03-09 20h19.41.154924 +0700,
1,24,1,word/wordth0241.png,image/True/img24.png,178,178,0,z,1.226998099940829,None,0,178,178,178,676.6568449999904,,,,,,,678.1430430000182,677.6447561000241,677.6488617999712,677.6488617999712,678.1430430000182,678.1430430000182,678.1364365000045,679.237345200032,679.237345200032,679.237345200032,z,1.226998099940829,None,,,,,,,,PH_th,001,2025-03-09_20h19.27.634,MainFlow,2024.2.4,129.83303474581254,2025-03-09 20h19.41.154924 +0700,
1,51,1,word/wordth0511.png,image/True/img51.png,179,179,0,z,0.8533233000198379,None,0,179,179,179,680.5504243000178,,,,,,,681.9623298000079,681.4635715000331,681.4677975999657,681.4677975999657,681.9623298000079,681.9623298000079,681.9556270000758,683.0808947000187,683.0808947000187,683.0808947000187,z,0.8533233000198379,None,,,,,,,,PH_th,001,2025-03-09_20h19.27.634,MainFlow,2024.2.4,129.83303474581254,2025-03-09 20h19.41.154924 +0700,
1,24,0,word/wordth0241.png,image/False/imgf24.png,180,180,0,x,1.266650499892421,None,0,180,180,180,683.9435021000681,,,,,,,685.4264856000664,684.9304169999668,684.9342459000181,684.9342459000181,685.4264856000664,685.4264856000664,685.4198454000289,686.5187632000307,686.5187632000307,686.5187632000307,x,1.266650499892421,None,,,,,,,,PH_th,001,2025-03-09_20h19.27.634,MainFlow,2024.2.4,129.83303474581254,2025-03-09 20h19.41.154924 +0700,
1,23,0,word/wordth0231.png,image/False/imgf23.png,181,181,0,x,2.1403910999652,None,0,181,181,181,687.7952340000775,,,,,,,689.2811202000594,688.7828451000387,688.7865848999936,688.7865848999936,689.2811202000594,689.2811202000594,689.2744344000239,690.4106020000763,690.4106020000763,690.4106020000763,x,2.1403910999652,None,,,,,,,,PH_th,001,2025-03-09_20h19.27.634,MainFlow,2024.2.4,129.83303474581254,2025-03-09 20h19.41.154924 +0700,
1,6,1,word/wordth0061.png,image/True/img06.png,182,182,0,z,0.733079900033772,None,0,182,182,182,692.5582466999767,,,,,,,694.0445562000386,693.5459266999969,693.5504691000096,693.5504691000096,694.0445562000386,694.0445562000386,694.0378895000322,695.1334042999661,695.1334042999661,695.1334042999661,z,0.733079900033772,None,,,,,,,,PH_th,001,2025-03-09_20h19.27.634,MainFlow,2024.2.4,129.83303474581254,2025-03-09 20h19.41.154924 +0700,
1,93,1,word/wordth0931.png,image/True/img93.png,183,183,0,z,0.830672400072217,None,0,183,183,183,695.8759504000191,,,,,,,697.3637604999822,696.8651654999703,696.8697281000204,696.8697281000204,697.3637604999822,697.3637604999822,697.3571395999752,698.4498855000129,698.4498855000129,698.4498855000129,z,0.830672400072217,None,,,,,,,,PH_th,001,2025-03-09_20h19.27.634,MainFlow,2024.2.4,129.83303474581254,2025-03-09 20h19.41.154924 +0700,
1,38,0,word/wordth0381.png,image/False/imgf38.png,184,184,0,x,1.2527664999943227,None,0,184,184,184,699.2901032000082,,,,,,,700.7760806999868,700.2774795000441,700.2817716000136,700.2817716000136,700.7760806999868,700.7760806999868,700.7694104000693,701.8999503999949,701.8999503999949,701.8999503999949,x,1.2527664999943227,None,,,,,,,,PH_th,001,2025-03-09_20h19.27.634,MainFlow,2024.2.4,129.83303474581254,2025-03-09 20h19.41.154924 +0700,
1,57,1,word/wordth0571.png,image/True/img57.png,185,185,0,z,0.8507431999314576,None,0,185,185,185,703.1600392999826,,,,,,,704.6463881999953,704.1478945000563,704.1522550999653,704.1522550999653,704.6463881999953,704.6463881999953,704.6396865000715,705.7531944999937,705.7531944999937,705.7531944999937,z,0.8507431999314576,None,,,,,,,,PH_th,001,2025-03-09_20h19.27.634,MainFlow,2024.2.4,129.83303474581254,2025-03-09 20h19.41.154924 +0700,
1,40,1,word/wordth0401.png,image/True/img40.png,186,186,0,z,0.7596394999418408,None,0,186,186,186,706.6174857000588,,,,,,,708.1049867999973,707.6044739000499,707.60859790002,707.60859790002,708.0981709000189,708.0981709000189,708.0915531000355,709.2304721999681,709.2304721999681,709.2304721999681,z,0.7596394999418408,None,,,,,,,,PH_th,001,2025-03-09_20h19.27.634,MainFlow,2024.2.4,129.83303474581254,2025-03-09 20h19.41.154924 +0700,
1,50,0,word/wordth0501.png,image/False/imgf50.png,187,187,0,x,0.8427488000597805,None,0,187,187,187,710.0007216000231,,,,,,,711.4908295000205,710.9924240000546,710.9963754999917,710.9963754999917,711.4908295000205,711.4908295000205,711.4841470000101,712.5919065000489,712.5919065000489,712.5919065000489,x,0.8427488000597805,None,,,,,,,,PH_th,001,2025-03-09_20h19.27.634,MainFlow,2024.2.4,129.83303474581254,2025-03-09 20h19.41.154924 +0700,
1,66,0,word/wordth0661.png,image/False/imgf66.png,188,188,0,x,3.4599312000209466,None,0,188,188,188,713.443890399998,,,,,,,714.9329347000457,714.4327504000394,714.4415343999863,714.4415343999863,714.9329347000457,714.9329347000457,714.9264482000144,716.0309621000197,716.0309621000197,716.0309621000197,x,3.4599312000209466,None,,,,,,,,PH_th,001,2025-03-09_20h19.27.634,MainFlow,2024.2.4,129.83303474581254,2025-03-09 20h19.41.154924 +0700,
1,44,0,word/wordth0441.png,image/False/imgf44.png,189,189,0,x,0.7367380000650883,None,0,189,189,189,719.4997014000546,,,,,,,720.9857990000164,720.4874050000217,720.492228899966,720.492228899966,720.9857990000164,720.9857990000164,720.9790661999723,722.0991016000044,722.0991016000044,722.0991016000044,x,0.7367380000650883,None,,,,,,,,PH_th,001,2025-03-09_20h19.27.634,MainFlow,2024.2.4,129.83303474581254,2025-03-09 20h19.41.154924 +0700,
1,75,0,word/wordth0751.png,image/False/imgf75.png,190,190,0,x,1.093025999958627,None,0,190,190,190,722.848473799997,,,,,,,724.3367244000547,723.8366035000654,723.8432149,723.8432149,724.3367244000547,724.3367244000547,724.3301868999843,725.4292007000186,725.4292007000186,725.4292007000186,x,1.093025999958627,None,,,,,,,,PH_th,001,2025-03-09_20h19.27.634,MainFlow,2024.2.4,129.83303474581254,2025-03-09 20h19.41.154924 +0700,
1,31,0,word/wordth0311.png,image/False/imgf31.png,191,191,0,x,0.7369570999871939,None,0,191,191,191,726.5295819999883,,,,,,,728.0157020000042,727.5163153000176,727.5205794000067,727.5205794000067,728.0157020000042,728.0157020000042,728.0090506999986,729.0851997999707,729.0851997999707,729.0851997999707,x,0.7369570999871939,None,,,,,,,,PH_th,001,2025-03-09_20h19.27.634,MainFlow,2024.2.4,129.83303474581254,2025-03-09 20h19.41.154924 +0700,
1,87,1,word/wordth0871.png,image/True/img87.png,192,192,0,z,1.0683579000178725,None,0,192,192,192,729.8334845000645,,,,,,,731.3176129000494,730.8179539999692,730.8227261999855,730.8227261999855,731.3176129000494,731.3176129000494,731.3097834000364,732.4391440000618,732.4391440000618,732.4391440000618,z,1.0683579000178725,None,,,,,,,,PH_th,001,2025-03-09_20h19.27.634,MainFlow,2024.2.4,129.83303474581254,2025-03-09 20h19.41.154924 +0700,
1,33,1,word/wordth0331.png,image/True/img33.png,193,193,0,x,2.1850390000035986,None,0,193,193,193,733.5199138000607,,,,,,,735.006486200029,734.5074699000688,734.512092399993,734.512092399993,735.006486200029,735.006486200029,734.999804800027,736.1092917000642,736.1092917000642,736.1092917000642,x,2.1850390000035986,None,,,,,,,,PH_th,001,2025-03-09_20h19.27.634,MainFlow,2024.2.4,129.83303474581254,2025-03-09 20h19.41.154924 +0700,
1,70,0,word/wordth0701.png,image/False/imgf70.png,194,194,0,x,0.9898342000087723,None,0,194,194,194,738.3066126999911,,,,,,,739.793276200071,739.2950042000739,739.2996542999754,739.2996542999754,739.793276200071,739.793276200071,739.7869030999718,740.8848231000593,740.8848231000593,740.8848231000593,x,0.9898342000087723,None,,,,,,,,PH_th,001,2025-03-09_20h19.27.634,MainFlow,2024.2.4,129.83303474581254,2025-03-09 20h19.41.154924 +0700,
1,27,1,word/wordth0271.png,image/True/img27.png,195,195,0,z,0.6089891999727115,None,0,195,195,195,741.885718400008,,,,,,,743.3717669000616,742.8727108000312,742.8766434000572,742.8766434000572,743.3717669000616,743.3717669000616,743.3651529999916,744.45663530007,744.45663530007,744.45663530007,z,0.6089891999727115,None,,,,,,,,PH_th,001,2025-03-09_20h19.27.634,MainFlow,2024.2.4,129.83303474581254,2025-03-09 20h19.41.154924 +0700,
1,88,1,word/wordth0881.png,image/True/img88.png,196,196,0,z,0.9271538000321016,None,0,196,196,196,745.0745765999891,,,,,,,746.5630425000563,746.0624398000073,746.0677239999641,746.0677239999641,746.5630425000563,746.5630425000563,746.5548133000266,747.6738671000348,747.6738671000348,747.6738671000348,z,0.9271538000321016,None,,,,,,,,PH_th,001,2025-03-09_20h19.27.634,MainFlow,2024.2.4,129.83303474581254,2025-03-09 20h19.41.154924 +0700,
1,87,0,word/wordth0871.png,image/False/imgf87.png,197,197,0,x,0.8771192000713199,None,0,197,197,197,748.6111148999771,,,,,,,750.0967194000259,749.5981005000649,749.6022196999984,749.6022196999984,750.0967194000259,750.0967194000259,750.0900177999865,751.1846471000463,751.1846471000463,751.1846471000463,x,0.8771192000713199,None,,,,,,,,PH_th,001,2025-03-09_20h19.27.634,MainFlow,2024.2.4,129.83303474581254,2025-03-09 20h19.41.154924 +0700,
1,11,1,word/wordth0111.png,image/True/img11.png,198,198,0,z,1.4229161000112072,None,0,198,198,198,752.0737105000298,,,,,,,753.5614051000448,753.0613418000285,753.0659561000066,753.0659561000066,753.5614051000448,753.5614051000448,753.5534069000278,754.6784871000564,754.6784871000564,754.6784871000564,z,1.4229161000112072,None,,,,,,,,PH_th,001,2025-03-09_20h19.27.634,MainFlow,2024.2.4,129.83303474581254,2025-03-09 20h19.41.154924 +0700,
1,61,0,word/wordth0611.png,image/False/imgf61.png,199,199,0,x,0.7084258999675512,None,0,199,199,199,756.1089173000073,,,,,,,757.5978831000393,757.0970490999753,757.1025653000688,757.1025653000688,757.5978831000393,757.5978831000393,757.5903407000005,758.7038058000617,758.7038058000617,758.7038058000617,x,0.7084258999675512,None,,,,,,,,PH_th,001,2025-03-09_20h19.27.634,MainFlow,2024.2.4,129.83303474581254,2025-03-09 20h19.41.154924 +0700,
1,15,1,word/wordth0151.png,image/True/img15.png,200,200,0,z,1.5319039999740198,None,0,200,200,200,759.4210028999951,,,,,,,760.9059281999944,760.4067606000463,760.4106426000362,760.4106426000362,760.9059281999944,760.9059281999944,760.8992413000669,762.0258718000259,762.0258718000259,762.0258718000259,z,1.5319039999740198,None,,,,,,,,PH_th,001,2025-03-09_20h19.27.634,MainFlow,2024.2.4,129.83303474581254,2025-03-09 20h19.41.154924 +0700,
1,16,0,word/wordth0161.png,image/False/imgf16.png,201,201,0,x,1.004605400026776,None,0,201,201,201,763.5660989000462,,,,,,,765.0492470000172,764.5503605999984,764.5545437000692,764.5545437000692,765.0492470000172,765.0492470000172,765.0425861000549,766.1642367000459,766.1642367000459,766.1642367000459,x,1.004605400026776,None,,,,,,,,PH_th,001,2025-03-09_20h19.27.634,MainFlow,2024.2.4,129.83303474581254,2025-03-09 20h19.41.154924 +0700,
1,63,0,word/wordth0631.png,image/False/imgf63.png,202,202,0,x,2.0600846000015736,None,0,202,202,202,767.1822075999808,,,,,,,768.6883722000057,768.1727388000581,768.1958625999978,768.1958625999978,,,768.682070299983,,769.7791228999849,769.7791228999849,x,2.0600846000015736,None,,,,,,,,PH_th,001,2025-03-09_20h19.27.634,MainFlow,2024.2.4,129.83303474581254,2025-03-09 20h19.41.154924 +0700,
1,28,1,word/wordth0281.png,image/True/img28.png,203,203,0,z,1.0223851000191644,None,0,203,203,203,771.8508558999747,,,,,,,773.3393307999941,772.838736500009,772.8470626000781,772.8470626000781,773.3393307999941,773.3393307999941,773.3322917000623,774.4523793000262,774.4523793000262,774.4523793000262,z,1.0223851000191644,None,,,,,,,,PH_th,001,2025-03-09_20h19.27.634,MainFlow,2024.2.4,129.83303474581254,2025-03-09 20h19.41.154924 +0700,
1,89,1,word/wordth0891.png,image/True/img89.png,204,204,0,z,0.4386477000080049,None,0,204,204,204,775.4819971000543,,,,,,,776.9679506999673,776.469380900031,776.4734440000029,776.4734440000029,776.9679506999673,776.9679506999673,776.9612029000418,778.0473327999935,778.0473327999935,778.0473327999935,z,0.4386477000080049,None,,,,,,,,PH_th,001,2025-03-09_20h19.27.634,MainFlow,2024.2.4,129.83303474581254,2025-03-09 20h19.41.154924 +0700,
1,76,0,word/wordth0761.png,image/False/imgf76.png,205,205,0,x,0.7744989000493661,None,0,205,205,205,778.4991779000266,,,,,,,779.9853439000435,779.4870465999702,779.4911198000191,779.4911198000191,779.9853439000435,779.9853439000435,779.9782132999972,781.0968526999932,781.0968526999932,781.0968526999932,x,0.7744989000493661,None,,,,,,,,PH_th,001,2025-03-09_20h19.27.634,MainFlow,2024.2.4,129.83303474581254,2025-03-09 20h19.41.154924 +0700,
1,51,0,word/wordth0511.png,image/False/imgf51.png,206,206,0,x,1.1403697999194264,None,0,206,206,206,781.8812520999927,,,,,,,783.3675023000687,782.8689605999971,782.8734572000103,782.8734572000103,783.3675023000687,783.3675023000687,783.3606247999705,784.4563604000723,784.4563604000723,784.4563604000723,x,1.1403697999194264,None,,,,,,,,PH_th,001,2025-03-09_20h19.27.634,MainFlow,2024.2.4,129.83303474581254,2025-03-09 20h19.41.154924 +0700,
1,26,0,word/wordth0261.png,image/False/imgf26.png,207,207,0,x,0.6687781000509858,None,0,207,207,207,785.609100200003,,,,,,,787.09463279997,786.5960897000041,786.5998951999936,786.5998951999936,787.09463279997,787.09463279997,787.0885117000435,788.2084775000112,788.2084775000112,788.2084775000112,x,0.6687781000509858,None,,,,,,,,PH_th,001,2025-03-09_20h19.27.634,MainFlow,2024.2.4,129.83303474581254,2025-03-09 20h19.41.154924 +0700,
1,16,1,word/wordth0161.png,image/True/img16.png,208,208,0,z,1.589574299985543,None,0,208,208,208,788.88794470008,,,,,,,790.374029800063,789.8752248999663,789.8796310999896,789.8796310999896,790.374029800063,790.374029800063,790.3674533000449,791.4887760999845,791.4887760999845,791.4887760999845,z,1.589574299985543,None,,,,,,,,PH_th,001,2025-03-09_20h19.27.634,MainFlow,2024.2.4,129.83303474581254,2025-03-09 20h19.41.154924 +0700,
1,64,1,word/wordth0641.png,image/True/img64.png,209,209,0,z,1.1475190999917686,None,0,209,209,209,793.0905649000779,,,,,,,794.5765400000382,794.077629400068,794.08214459999,794.08214459999,794.5765400000382,794.5765400000382,794.5698828999884,795.6814131999854,795.6814131999854,795.6814131999854,z,1.1475190999917686,None,,,,,,,,PH_th,001,2025-03-09_20h19.27.634,MainFlow,2024.2.4,129.83303474581254,2025-03-09 20h19.41.154924 +0700,
1,7,1,word/wordth0071.png,image/True/img07.png,210,210,0,z,1.103567700018175,None,0,210,210,210,796.8383111000294,,,,,,,798.3242425000062,797.8253598000156,797.8293466999894,797.8293466999894,798.3242425000062,798.3242425000062,798.3175369000528,799.4656563000754,799.4656563000754,799.4656563000754,z,1.103567700018175,None,,,,,,,,PH_th,001,2025-03-09_20h19.27.634,MainFlow,2024.2.4,129.83303474581254,2025-03-09 20h19.41.154924 +0700,
1,10,0,word/wordth0101.png,image/False/imgf10.png,211,211,0,x,0.8282413999550045,None,0,211,211,211,800.5764675000682,,,,,,,802.0641485999804,801.5644339000573,801.5691896000644,801.5691896000644,802.0641485999804,802.0641485999804,802.0578668999951,803.1729977000505,803.1729977000505,803.1729977000505,x,0.8282413999550045,None,,,,,,,,PH_th,001,2025-03-09_20h19.27.634,MainFlow,2024.2.4,129.83303474581254,2025-03-09 20h19.41.154924 +0700,
1,22,1,word/wordth0221.png,image/True/img22.png,212,212,0,z,1.8286055999342352,None,0,212,212,212,804.0119685999816,,,,,,,805.4981199000031,804.9993746000109,805.003423999995,805.003423999995,805.4981199000031,805.4981199000031,805.4913752999855,806.6364985000109,806.6364985000109,806.6364985000109,z,1.8286055999342352,None,,,,,,,,PH_th,001,2025-03-09_20h19.27.634,MainFlow,2024.2.4,129.83303474581254,2025-03-09 20h19.41.154924 +0700,
1,40,1,word/wordth0401.png,image/True/img40.png,213,213,0,z,0.8498063000151888,None,0,213,213,213,808.4722651999909,,,,,,,809.9597570999758,809.4596470000688,809.4642446000362,809.4642446000362,809.9597570999758,809.9597570999758,809.9537505999906,811.0760184000246,811.0760184000246,811.0760184000246,z,0.8498063000151888,None,,,,,,,,PH_th,001,2025-03-09_20h19.27.634,MainFlow,2024.2.4,129.83303474581254,2025-03-09 20h19.41.154924 +0700,
1,57,0,word/wordth0571.png,image/False/imgf57.png,214,214,0,x,0.808482600026764,None,0,214,214,214,811.9390368000604,,,,,,,813.4249808000168,812.9259335000534,812.9299317999976,812.9299317999976,813.4249808000168,813.4249808000168,813.4182943999767,814.5237630000338,814.5237630000338,814.5237630000338,x,0.808482600026764,None,,,,,,,,PH_th,001,2025-03-09_20h19.27.634,MainFlow,2024.2.4,129.83303474581254,2025-03-09 20h19.41.154924 +0700,
1,50,1,word/wordth0501.png,image/True/img50.png,215,215,0,x,2.4164385000476614,None,0,215,215,215,815.3430445999838,,,,,,,816.8290918000275,816.3296444000443,816.3336681000656,816.3336681000656,816.8290918000275,816.8290918000275,816.8223938000156,817.9258395000361,817.9258395000361,817.9258395000361,x,2.4164385000476614,None,,,,,,,,PH_th,001,2025-03-09_20h19.27.634,MainFlow,2024.2.4,129.83303474581254,2025-03-09 20h19.41.154924 +0700,
1,64,0,word/wordth0641.png,image/False/imgf64.png,216,216,0,x,0.5525496000191197,None,0,216,216,216,820.350058900076,,,,,,,821.8356322000036,821.3361101000337,821.3401295000222,821.3401295000222,821.8356322000036,821.8356322000036,821.8284608999966,822.9161481000483,822.9161481000483,822.9161481000483,x,0.5525496000191197,None,,,,,,,,PH_th,001,2025-03-09_20h19.27.634,MainFlow,2024.2.4,129.83303474581254,2025-03-09 20h19.41.154924 +0700,
1,42,1,word/wordth0421.png,image/True/img42.png,217,217,0,z,0.6100591999711469,None,0,217,217,217,823.4770584000507,,,,,,,824.963253700058,824.4645138999913,824.4683925000718,824.4683925000718,824.963253700058,824.963253700058,824.9562831000658,826.0590677000582,826.0590677000582,826.0590677000582,z,0.6100591999711469,None,,,,,,,,PH_th,001,2025-03-09_20h19.27.634,MainFlow,2024.2.4,129.83303474581254,2025-03-09 20h19.41.154924 +0700,
1,56,0,word/wordth0561.png,image/False/imgf56.png,218,218,0,x,0.6795928999781609,None,0,218,218,218,826.6779992000666,,,,,,,828.1641876000213,827.6648413999937,827.668896600022,827.668896600022,828.1641876000213,828.1641876000213,828.157531099976,829.2802553999936,829.2802553999936,829.2802553999936,x,0.6795928999781609,None,,,,,,,,PH_th,001,2025-03-09_20h19.27.634,MainFlow,2024.2.4,129.83303474581254,2025-03-09 20h19.41.154924 +0700,
1,22,1,word/wordth0221.png,image/True/img22.png,219,219,0,z,1.045648799976334,None,0,219,219,219,829.9711691000266,,,,,,,831.4571566999657,830.958365199971,830.9622355999891,830.9622355999891,831.4571566999657,831.4571566999657,831.4505116000073,832.5745711000636,832.5745711000636,832.5745711000636,z,1.045648799976334,None,,,,,,,,PH_th,001,2025-03-09_20h19.27.634,MainFlow,2024.2.4,129.83303474581254,2025-03-09 20h19.41.154924 +0700,
1,82,0,word/wordth0821.png,image/False/imgf82.png,220,220,0,x,0.7426723000826314,None,0,220,220,220,833.6323167000664,,,,,,,835.1184850999853,834.6192620000802,834.623021800071,834.623021800071,835.1184850999853,835.1184850999853,835.1118315000786,836.2182780000148,836.2182780000148,836.2182780000148,x,0.7426723000826314,None,,,,,,,,PH_th,001,2025-03-09_20h19.27.634,MainFlow,2024.2.4,129.83303474581254,2025-03-09 20h19.41.154924 +0700,
1,54,1,word/wordth0541.png,image/True/img54.png,221,221,0,z,0.7901955000124872,None,0,221,221,221,836.9678343000123,,,,,,,838.4539542000275,837.9547442999901,837.9604239000473,837.9604239000473,838.4539542000275,838.4539542000275,838.447772399988,839.5666163000278,839.5666163000278,839.5666163000278,z,0.7901955000124872,None,,,,,,,,PH_th,001,2025-03-09_20h19.27.634,MainFlow,2024.2.4,129.83303474581254,2025-03-09 20h19.41.154924 +0700,
1,55,0,word/wordth0551.png,image/False/imgf55.png,222,222,0,z,0.767539200023748,None,0,222,222,222,840.3644153000787,,,,,,,841.8505601000506,841.3514787000604,841.3556032000342,841.3556032000342,841.8505601000506,841.8505601000506,841.8438480000477,842.9445764999837,842.9445764999837,842.9445764999837,z,0.767539200023748,None,,,,,,,,PH_th,001,2025-03-09_20h19.27.634,MainFlow,2024.2.4,129.83303474581254,2025-03-09 20h19.41.154924 +0700,
1,48,1,word/wordth0481.png,image/True/img48.png,223,223,0,z,0.7826247999910265,None,0,223,223,223,843.724708499969,,,,,,,845.2107629000675,844.7117084000492,844.7159396000206,844.7159396000206,845.2107629000675,845.2107629000675,845.2039193999954,846.3157980999677,846.3157980999677,846.3157980999677,z,0.7826247999910265,None,,,,,,,,PH_th,001,2025-03-09_20h19.27.634,MainFlow,2024.2.4,129.83303474581254,2025-03-09 20h19.41.154924 +0700,
1,44,1,word/wordth0441.png,image/True/img44.png,224,224,0,z,0.631018300075084,None,0,224,224,224,847.1110978000797,,,,,,,848.5978660000255,848.0988533999771,848.1036225999705,848.1036225999705,848.5978660000255,848.5978660000255,848.5911998000229,849.6874405000126,849.6874405000126,849.6874405000126,z,0.631018300075084,None,,,,,,,,PH_th,001,2025-03-09_20h19.27.634,MainFlow,2024.2.4,129.83303474581254,2025-03-09 20h19.41.154924 +0700,
