lang,wordid,truestate,worddir,imgdir,thisN,thisTrialN,thisRepN,key_resp.keys,key_resp.rt,key_resp.duration,trials.thisRepN,trials.thisTrialN,trials.thisN,trials.thisIndex,thisRow.t,notes,tutorial.started,tutorial.stopped,key_instruct.keys,key_instruct.rt,key_instruct.duration,plusblank.started,wordshow.started,image.started,plsuer.started,image.stopped,plsuer.stopped,wordshow.stopped,imageword.started,key_resp.started,trials.key_resp.keys,trials.key_resp.rt,trials.key_resp.duration,plusblank.stopped,ending.started,text_3.started,ending_key.started,ending.stopped,ending_key.keys,ending_key.rt,ending_key.duration,participant,session,date,expName,psychopyVersion,frameRate,expStart,
,,,,,,,,,,,,,,,,,0.005083599942736328,5.18009030004032,space,5.1437190000433475,None,,,,,,,,,,,,,,,,,,,,,PM_th,001,2025-03-07_11h44.49.352,MainFlow,2024.2.4,130.5208695737898,2025-03-07 11h45.03.653244 +0700,
1,51,0,word/wordth0511.png,image/False/imgf51.png,0,0,0,x,0.8643230999587104,None,0,0,0,0,5.2475584000349045,,,,,,,6.685266899992712,6.184638399980031,6.191689300001599,6.191689300001599,6.685266899992712,6.685266899992712,6.678905399981886,7.855966600007378,7.855966600007378,x,0.8643230999587104,None,,,,,,,,,PM_th,001,2025-03-07_11h44.49.352,MainFlow,2024.2.4,130.5208695737898,2025-03-07 11h45.03.653244 +0700,
1,66,1,word/wordth0661.png,image/True/img66.png,1,1,0,z,0.3665933999000117,None,0,1,1,1,8.729984599980526,,,,,,,10.223571499926038,9.722775600035675,9.7298654000042,9.7298654000042,10.223571499926038,10.223571499926038,10.216834399965592,11.390953699941747,11.390953699941747,z,0.3665933999000117,None,11.390953699941747,,,,,,,,PM_th,001,2025-03-07_11h44.49.352,MainFlow,2024.2.4,130.5208695737898,2025-03-07 11h45.03.653244 +0700,
1,60,1,word/wordth0601.png,image/True/img60.png,2,2,0,z,0.3971839000005275,None,0,2,2,2,11.765434199944139,,,,,,,13.255545799969696,12.757014799979515,12.763093999936245,12.763093999936245,13.255545799969696,13.255545799969696,13.24910519993864,14.383657000027597,14.383657000027597,z,0.3971839000005275,None,14.383657000027597,,,,,,,,PM_th,001,2025-03-07_11h44.49.352,MainFlow,2024.2.4,130.5208695737898,2025-03-07 11h45.03.653244 +0700,
1,46,0,word/wordth0461.png,image/False/imgf46.png,3,3,0,x,0.5804327999940142,None,0,3,3,3,14.788690999965183,,,,,,,16.278189399978146,15.77847749995999,15.784618000034243,15.784618000034243,16.278189399978146,16.278189399978146,16.271837100037374,17.457536799949594,17.457536799949594,x,0.5804327999940142,None,17.457536799949594,,,,,,,,PM_th,001,2025-03-07_11h44.49.352,MainFlow,2024.2.4,130.5208695737898,2025-03-07 11h45.03.653244 +0700,
1,24,1,word/wordth0241.png,image/True/img24.png,4,4,0,z,0.5681354999542236,None,0,4,4,4,18.046469599939883,,,,,,,19.536494400002994,19.038776500034146,19.044831500039436,19.044831500039436,19.536494400002994,19.536494400002994,19.529954400029965,20.64176409994252,20.64176409994252,z,0.5681354999542236,None,20.64176409994252,,,,,,,,PM_th,001,2025-03-07_11h44.49.352,MainFlow,2024.2.4,130.5208695737898,2025-03-07 11h45.03.653244 +0700,
1,68,1,word/wordth0681.png,image/True/img68.png,5,5,0,z,0.4491873999359086,None,0,5,5,5,21.22160889999941,,,,,,,22.71611179993488,22.215265200007707,22.2226340000052,22.2226340000052,22.71611179993488,22.71611179993488,22.70934539998416,23.82741549995262,23.82741549995262,z,0.4491873999359086,None,23.82741549995262,,,,,,,,PM_th,001,2025-03-07_11h44.49.352,MainFlow,2024.2.4,130.5208695737898,2025-03-07 11h45.03.653244 +0700,
1,22,0,word/wordth0221.png,image/False/imgf22.png,6,6,0,x,0.5249849000247195,None,0,6,6,6,24.28480879997369,,,,,,,25.775002300040796,25.276306899962947,25.282702900003642,25.282702900003642,25.775002300040796,25.775002300040796,25.76894259999972,26.91447960003279,26.91447960003279,x,0.5249849000247195,None,26.91447960003279,,,,,,,,PM_th,001,2025-03-07_11h44.49.352,MainFlow,2024.2.4,130.5208695737898,2025-03-07 11h45.03.653244 +0700,
1,36,1,word/wordth0361.png,image/True/img36.png,7,7,0,z,0.5010106000117958,None,0,7,7,7,27.450653999927454,,,,,,,28.94131839997135,28.441542099928483,28.4478272999404,28.4478272999404,28.94131839997135,28.94131839997135,28.934345999965444,30.07058950001374,30.07058950001374,z,0.5010106000117958,None,30.07058950001374,,,,,,,,PM_th,001,2025-03-07_11h44.49.352,MainFlow,2024.2.4,130.5208695737898,2025-03-07 11h45.03.653244 +0700,
1,68,0,word/wordth0681.png,image/False/imgf68.png,8,8,0,x,0.8856812999583781,None,0,8,8,8,30.585448600002564,,,,,,,32.075501299928874,31.575842599966563,31.581950400024652,31.581950400024652,32.075501299928874,32.075501299928874,32.06862040003762,33.17356629995629,33.17356629995629,x,0.8856812999583781,None,33.17356629995629,,,,,,,,PM_th,001,2025-03-07_11h44.49.352,MainFlow,2024.2.4,130.5208695737898,2025-03-07 11h45.03.653244 +0700,
1,16,1,word/wordth0161.png,image/True/img16.png,9,9,0,z,0.8763782999012619,None,0,9,9,9,34.06881530000828,,,,,,,35.55838289996609,35.05984609993175,35.06587579997722,35.06587579997722,35.55838289996609,35.55838289996609,35.55227510002442,36.69898009998724,36.69898009998724,z,0.8763782999012619,None,36.69898009998724,,,,,,,,PM_th,001,2025-03-07_11h44.49.352,MainFlow,2024.2.4,130.5208695737898,2025-03-07 11h45.03.653244 +0700,
1,94,1,word/wordth0941.png,image/True/img94.png,10,10,0,z,0.3917387999827042,None,0,10,10,10,37.588422999950126,,,,,,,39.07807980000507,38.578423899947666,38.58456949994434,38.58456949994434,39.07807980000507,39.07807980000507,39.072052799980156,40.19614879996516,40.19614879996516,z,0.3917387999827042,None,40.19614879996516,,,,,,,,PM_th,001,2025-03-07_11h44.49.352,MainFlow,2024.2.4,130.5208695737898,2025-03-07 11h45.03.653244 +0700,
1,95,0,word/wordth0951.png,image/False/imgf95.png,11,11,0,x,0.6310902999248356,None,0,11,11,11,40.60055149998516,,,,,,,42.090552899986506,41.591798300039954,41.59859409998171,41.59859409998171,42.090552899986506,42.090552899986506,42.08431019994896,43.2247910000151,43.2247910000151,x,0.6310902999248356,None,43.2247910000151,,,,,,,,PM_th,001,2025-03-07_11h44.49.352,MainFlow,2024.2.4,130.5208695737898,2025-03-07 11h45.03.653244 +0700,
1,30,0,word/wordth0301.png,image/False/imgf30.png,12,12,0,x,0.6024830000242218,None,0,12,12,12,43.8690898999339,,,,,,,45.35910909995437,44.861307599931024,44.867397299967706,44.867397299967706,45.35910909995437,45.35910909995437,45.353178499965,46.46977910003625,46.46977910003625,x,0.6024830000242218,None,46.46977910003625,,,,,,,,PM_th,001,2025-03-07_11h44.49.352,MainFlow,2024.2.4,130.5208695737898,2025-03-07 11h45.03.653244 +0700,
1,20,1,word/wordth0201.png,image/True/img20.png,13,13,0,z,0.5720727000152692,None,0,13,13,13,47.079888300038874,,,,,,,48.57014149997849,48.0706557999365,48.07710979995318,48.07710979995318,48.57014149997849,48.57014149997849,48.56357040000148,49.7174662000034,49.7174662000034,z,0.5720727000152692,None,49.7174662000034,,,,,,,,PM_th,001,2025-03-07_11h44.49.352,MainFlow,2024.2.4,130.5208695737898,2025-03-07 11h45.03.653244 +0700,
1,42,0,word/wordth0421.png,image/False/imgf42.png,14,14,0,x,0.49410370003897697,None,0,14,14,14,50.298022000002675,,,,,,,51.7882787999697,51.28843549999874,51.294705000007525,51.294705000007525,51.7882787999697,51.7882787999697,51.78158780001104,52.93262949993368,52.93262949993368,x,0.49410370003897697,None,52.93262949993368,,,,,,,,PM_th,001,2025-03-07_11h44.49.352,MainFlow,2024.2.4,130.5208695737898,2025-03-07 11h45.03.653244 +0700,
1,31,1,word/wordth0311.png,image/True/img31.png,15,15,0,z,0.4424723000265658,None,0,15,15,15,53.43830469995737,,,,,,,54.92879909998737,54.42987929994706,54.43640150001738,54.43640150001738,54.92879909998737,54.92879909998737,54.92223379993811,56.05237179994583,56.05237179994583,z,0.4424723000265658,None,56.05237179994583,,,,,,,,PM_th,001,2025-03-07_11h44.49.352,MainFlow,2024.2.4,130.5208695737898,2025-03-07 11h45.03.653244 +0700,
1,55,1,word/wordth0551.png,image/True/img55.png,16,16,0,z,0.6150817000307143,None,0,16,16,16,56.50263579993043,,,,,,,57.992799300001934,57.49334289995022,57.49969369999599,57.49969369999599,57.992799300001934,57.992799300001934,57.98626979999244,59.13189720001537,59.13189720001537,z,0.6150817000307143,None,59.13189720001537,,,,,,,,PM_th,001,2025-03-07_11h44.49.352,MainFlow,2024.2.4,130.5208695737898,2025-03-07 11h45.03.653244 +0700,
1,36,1,word/wordth0361.png,image/True/img36.png,17,17,0,z,0.59588649997022,None,0,17,17,17,59.75944749999326,,,,,,,61.249323099968024,60.74838310002815,60.7551717000315,60.7551717000315,61.249323099968024,61.249323099968024,61.24218339996878,62.34819809999317,62.34819809999317,z,0.59588649997022,None,62.34819809999317,,,,,,,,PM_th,001,2025-03-07_11h44.49.352,MainFlow,2024.2.4,130.5208695737898,2025-03-07 11h45.03.653244 +0700,
1,9,1,word/wordth0091.png,image/True/img09.png,18,18,0,z,0.5109634000109509,None,0,18,18,18,62.95151749998331,,,,,,,64.44194549997337,63.942536899936385,63.94879930000752,63.94879930000752,64.44194549997337,64.44194549997337,64.43546139996033,65.52111690002494,65.52111690002494,z,0.5109634000109509,None,65.52111690002494,,,,,,,,PM_th,001,2025-03-07_11h44.49.352,MainFlow,2024.2.4,130.5208695737898,2025-03-07 11h45.03.653244 +0700,
1,64,1,word/wordth0641.png,image/True/img64.png,19,19,0,z,0.4530053000198677,None,0,19,19,19,66.04261310002767,,,,,,,67.5322266999865,67.0322461000178,67.03849629999604,67.03849629999604,67.5322266999865,67.5322266999865,67.52570070000365,68.6204230999574,68.6204230999574,z,0.4530053000198677,None,68.6204230999574,,,,,,,,PM_th,001,2025-03-07_11h44.49.352,MainFlow,2024.2.4,130.5208695737898,2025-03-07 11h45.03.653244 +0700,
1,95,1,word/wordth0951.png,image/True/img95.png,20,20,0,z,0.6782165000913665,None,0,20,20,20,69.08492579997983,,,,,,,70.57419660000596,70.07462640001904,70.08077989995945,70.08077989995945,70.57419660000596,70.57419660000596,70.56818039994687,71.70434820000082,71.70434820000082,z,0.6782165000913665,None,71.70434820000082,,,,,,,,PM_th,001,2025-03-07_11h44.49.352,MainFlow,2024.2.4,130.5208695737898,2025-03-07 11h45.03.653244 +0700,
1,41,1,word/wordth0411.png,image/True/img41.png,21,21,0,z,0.6228268999839202,None,0,21,21,21,72.3923149999464,,,,,,,73.88547249999829,73.38471989997197,73.39153609995265,73.39153609995265,73.88547249999829,73.88547249999829,73.87902290001512,75.00637169997208,75.00637169997208,z,0.6228268999839202,None,75.00637169997208,,,,,,,,PM_th,001,2025-03-07_11h44.49.352,MainFlow,2024.2.4,130.5208695737898,2025-03-07 11h45.03.653244 +0700,
1,8,1,word/wordth0081.png,image/True/img08.png,22,22,0,z,0.4503167999209836,None,0,22,22,22,75.63711739995051,,,,,,,77.12740240001585,76.6288055999903,76.63505509996321,76.63505509996321,77.12740240001585,77.12740240001585,77.12117579998448,78.22292460000608,78.22292460000608,z,0.4503167999209836,None,78.22292460000608,,,,,,,,PM_th,001,2025-03-07_11h44.49.352,MainFlow,2024.2.4,130.5208695737898,2025-03-07 11h45.03.653244 +0700,
1,60,1,word/wordth0601.png,image/True/img60.png,23,23,0,z,0.479362899903208,None,0,23,23,23,78.68221440003254,,,,,,,80.17142080003396,79.67150309996214,79.67770520003978,79.67770520003978,80.17142080003396,80.17142080003396,80.16504799993709,81.2797217000043,81.2797217000043,z,0.479362899903208,None,81.2797217000043,,,,,,,,PM_th,001,2025-03-07_11h44.49.352,MainFlow,2024.2.4,130.5208695737898,2025-03-07 11h45.03.653244 +0700,
1,48,0,word/wordth0481.png,image/False/imgf48.png,24,24,0,x,0.5188551000319421,None,0,24,24,24,81.77242049993947,,,,,,,83.26232939993497,82.7625684000086,82.76871199999005,82.76871199999005,83.26232939993497,83.26232939993497,83.25606949999928,84.39313219999894,84.39313219999894,x,0.5188551000319421,None,84.39313219999894,,,,,,,,PM_th,001,2025-03-07_11h44.49.352,MainFlow,2024.2.4,130.5208695737898,2025-03-07 11h45.03.653244 +0700,
1,41,0,word/wordth0411.png,image/False/imgf41.png,25,25,0,x,0.7849743999540806,None,0,25,25,25,84.92085959995165,,,,,,,86.40946190000977,85.90955229999963,85.91599270002916,85.91599270002916,86.40946190000977,86.40946190000977,86.40312329994049,87.49845730001107,87.49845730001107,x,0.7849743999540806,None,87.49845730001107,,,,,,,,PM_th,001,2025-03-07_11h44.49.352,MainFlow,2024.2.4,130.5208695737898,2025-03-07 11h45.03.653244 +0700,
1,54,0,word/wordth0541.png,image/False/imgf54.png,26,26,0,x,0.6368294000858441,None,0,26,26,26,88.29611969995312,,,,,,,89.78625549993012,89.28691619995516,89.29340279998723,89.29340279998723,89.78625549993012,89.78625549993012,89.78016840002965,90.8988330999855,90.8988330999855,x,0.6368294000858441,None,90.8988330999855,,,,,,,,PM_th,001,2025-03-07_11h44.49.352,MainFlow,2024.2.4,130.5208695737898,2025-03-07 11h45.03.653244 +0700,
1,54,1,word/wordth0541.png,image/True/img54.png,27,27,0,z,0.6659617000259459,None,0,27,27,27,91.54416039993521,,,,,,,93.03268109995406,92.53282179997768,92.53895229997579,92.53895229997579,93.03268109995406,93.03268109995406,93.02622559992597,94.17241889995057,94.17241889995057,z,0.6659617000259459,None,94.17241889995057,,,,,,,,PM_th,001,2025-03-07_11h44.49.352,MainFlow,2024.2.4,130.5208695737898,2025-03-07 11h45.03.653244 +0700,
1,63,0,word/wordth0631.png,image/False/imgf63.png,28,28,0,x,1.208999800030142,None,0,28,28,28,94.84698429994751,,,,,,,96.33627470000647,95.83627139998134,95.84279150003567,95.84279150003567,96.33627470000647,96.33627470000647,96.32995259994641,97.4663132999558,97.4663132999558,x,1.208999800030142,None,97.4663132999558,,,,,,,,PM_th,001,2025-03-07_11h44.49.352,MainFlow,2024.2.4,130.5208695737898,2025-03-07 11h45.03.653244 +0700,
1,37,0,word/wordth0371.png,image/False/imgf37.png,29,29,0,x,1.585709200007841,None,0,29,29,29,98.68881940003484,,,,,,,100.17944450001232,99.68026389996521,99.68727450002916,99.68727450002916,100.17944450001232,100.17944450001232,100.1730143999448,101.32624149997719,101.32624149997719,x,1.585709200007841,None,101.32624149997719,,,,,,,,PM_th,001,2025-03-07_11h44.49.352,MainFlow,2024.2.4,130.5208695737898,2025-03-07 11h45.03.653244 +0700,
1,54,0,word/wordth0541.png,image/False/imgf54.png,30,30,0,x,1.607810900080949,None,0,30,30,30,102.92086249997374,,,,,,,104.40993419999722,103.91003719996661,103.91631739994045,103.91631739994045,104.40993419999722,104.40993419999722,104.40347649995238,105.52062760002445,105.52062760002445,x,1.607810900080949,None,105.52062760002445,,,,,,,,PM_th,001,2025-03-07_11h44.49.352,MainFlow,2024.2.4,130.5208695737898,2025-03-07 11h45.03.653244 +0700,
1,48,1,word/wordth0481.png,image/True/img48.png,31,31,0,z,0.5438276000786573,None,0,31,31,31,107.1376428999938,,,,,,,108.62750539998524,108.12745229993016,108.1340465999674,108.1340465999674,108.62750539998524,108.62750539998524,108.62144449993502,109.76172249997035,109.76172249997035,z,0.5438276000786573,None,109.76172249997035,,,,,,,,PM_th,001,2025-03-07_11h44.49.352,MainFlow,2024.2.4,130.5208695737898,2025-03-07 11h45.03.653244 +0700,
1,26,0,word/wordth0261.png,image/False/imgf26.png,32,32,0,x,2.6660207000095397,None,0,32,32,32,110.31689919997007,,,,,,,111.80668999999762,111.3078198999865,111.31373950000852,111.31373950000852,111.80668999999762,111.80668999999762,111.80016710003838,112.93538629997056,112.93538629997056,x,2.6660207000095397,None,112.93538629997056,,,,,,,,PM_th,001,2025-03-07_11h44.49.352,MainFlow,2024.2.4,130.5208695737898,2025-03-07 11h45.03.653244 +0700,
1,59,0,word/wordth0591.png,image/False/imgf59.png,33,33,0,x,0.7981995999580249,None,0,33,33,33,115.61026550002862,,,,,,,117.10024179995526,116.60082529997453,116.6069637000328,116.6069637000328,117.10024179995526,117.10024179995526,117.09390480001457,118.19555459998082,118.19555459998082,x,0.7981995999580249,None,118.19555459998082,,,,,,,,PM_th,001,2025-03-07_11h44.49.352,MainFlow,2024.2.4,130.5208695737898,2025-03-07 11h45.03.653244 +0700,
1,8,1,word/wordth0081.png,image/True/img08.png,34,34,0,z,0.4793815999291837,None,0,34,34,34,119.0028068999527,,,,,,,120.49130470003001,119.99150489992462,119.99777359992731,119.99777359992731,120.49130470003001,120.49130470003001,120.48522969998885,121.59187300002668,121.59187300002668,z,0.4793815999291837,None,121.59187300002668,,,,,,,,PM_th,001,2025-03-07_11h44.49.352,MainFlow,2024.2.4,130.5208695737898,2025-03-07 11h45.03.653244 +0700,
1,66,1,word/wordth0661.png,image/True/img66.png,35,35,0,z,0.5244935000082478,None,0,35,35,35,122.08419199998025,,,,,,,123.57250769995153,123.07260620000307,123.07892539992463,123.07892539992463,123.57250769995153,123.57250769995153,123.56598720001057,124.68941560003441,124.68941560003441,z,0.5244935000082478,None,124.68941560003441,,,,,,,,PM_th,001,2025-03-07_11h44.49.352,MainFlow,2024.2.4,130.5208695737898,2025-03-07 11h45.03.653244 +0700,
1,24,0,word/wordth0241.png,image/False/imgf24.png,36,36,0,x,1.013827900053002,None,0,36,36,36,125.22673609992489,,,,,,,126.71642149996478,126.21652559994254,126.2227040999569,126.2227040999569,126.71642149996478,126.71642149996478,126.71065619995352,127.83203369996045,127.83203369996045,x,1.013827900053002,None,127.83203369996045,,,,,,,,PM_th,001,2025-03-07_11h44.49.352,MainFlow,2024.2.4,130.5208695737898,2025-03-07 11h45.03.653244 +0700,
1,14,1,word/wordth0141.png,image/True/img14.png,37,37,0,z,0.39325730002019554,None,0,37,37,37,128.85641250002664,,,,,,,130.34653199999593,129.8472968999995,129.8541067999322,129.8541067999322,130.34653199999593,130.34653199999593,130.34005320002325,131.47487929998897,131.47487929998897,z,0.39325730002019554,None,131.47487929998897,,,,,,,,PM_th,001,2025-03-07_11h44.49.352,MainFlow,2024.2.4,130.5208695737898,2025-03-07 11h45.03.653244 +0700,
1,20,0,word/wordth0201.png,image/False/imgf20.png,38,38,0,x,0.5985019999789074,None,0,38,38,38,131.87980859994423,,,,,,,133.36828609998338,132.86850740003865,132.87475870002527,132.87475870002527,133.36828609998338,133.36828609998338,133.36194119998254,134.51233079994563,134.51233079994563,x,0.5985019999789074,None,134.51233079994563,,,,,,,,PM_th,001,2025-03-07_11h44.49.352,MainFlow,2024.2.4,130.5208695737898,2025-03-07 11h45.03.653244 +0700,
1,89,0,word/wordth0891.png,image/False/imgf89.png,39,39,0,x,0.6649024999933317,None,0,39,39,39,135.12279860000126,,,,,,,136.61236659996212,136.11314919998404,136.1191956999246,136.1191956999246,136.61236659996212,136.61236659996212,136.60593870002776,137.727570499992,137.727570499992,x,0.6649024999933317,None,137.727570499992,,,,,,,,PM_th,001,2025-03-07_11h44.49.352,MainFlow,2024.2.4,130.5208695737898,2025-03-07 11h45.03.653244 +0700,
1,64,0,word/wordth0641.png,image/False/imgf64.png,40,40,0,x,0.4896343000000343,None,0,40,40,40,138.40512959996704,,,,,,,139.89410759997554,139.3939610000234,139.40014049992897,139.40014049992897,139.89410759997554,139.89410759997554,139.887150799972,140.99053489998914,140.99053489998914,x,0.4896343000000343,None,140.99053489998914,,,,,,,,PM_th,001,2025-03-07_11h44.49.352,MainFlow,2024.2.4,130.5208695737898,2025-03-07 11h45.03.653244 +0700,
1,56,1,word/wordth0561.png,image/True/img56.png,41,41,0,z,1.1306880000047386,None,0,41,41,41,141.49041880003642,,,,,,,142.98053820000496,142.48092470003758,142.48737330001313,142.48737330001313,142.98053820000496,142.98053820000496,142.97403619997203,144.09132230002433,144.09132230002433,z,1.1306880000047386,None,144.09132230002433,,,,,,,,PM_th,001,2025-03-07_11h44.49.352,MainFlow,2024.2.4,130.5208695737898,2025-03-07 11h45.03.653244 +0700,
1,15,1,word/wordth0151.png,image/True/img15.png,42,42,0,z,0.5406531000044197,None,0,42,42,42,145.22936849994585,,,,,,,146.71965280000586,146.2201162999263,146.22625860001426,146.22625860001426,146.71965280000586,146.71965280000586,146.71287499996834,147.85489840002265,147.85489840002265,z,0.5406531000044197,None,147.85489840002265,,,,,,,,PM_th,001,2025-03-07_11h44.49.352,MainFlow,2024.2.4,130.5208695737898,2025-03-07 11h45.03.653244 +0700,
1,88,0,word/wordth0881.png,image/False/imgf88.png,43,43,0,x,0.7952451999299228,None,0,43,43,43,148.408690799959,,,,,,,149.8988093000371,149.39887829998042,149.40560779999942,149.40560779999942,149.8988093000371,149.8988093000371,149.89292350003961,151.02700230001938,151.02700230001938,x,0.7952451999299228,None,151.02700230001938,,,,,,,,PM_th,001,2025-03-07_11h44.49.352,MainFlow,2024.2.4,130.5208695737898,2025-03-07 11h45.03.653244 +0700,
1,94,1,word/wordth0941.png,image/True/img94.png,44,44,0,z,0.39531000005081296,None,0,44,44,44,151.8345510000363,,,,,,,153.32455649995245,152.82478010002524,152.83077480003703,152.83077480003703,153.32455649995245,153.32455649995245,153.31793030002154,154.44454569998197,154.44454569998197,z,0.39531000005081296,None,154.44454569998197,,,,,,,,PM_th,001,2025-03-07_11h44.49.352,MainFlow,2024.2.4,130.5208695737898,2025-03-07 11h45.03.653244 +0700,
1,40,0,word/wordth0401.png,image/False/imgf40.png,45,45,0,x,0.586938300053589,None,0,45,45,45,154.853007699945,,,,,,,156.341873700032,155.8419159000041,155.8484802999301,155.8484802999301,156.341873700032,156.341873700032,156.3355572000146,157.47059399995487,157.47059399995487,x,0.586938300053589,None,157.47059399995487,,,,,,,,PM_th,001,2025-03-07_11h44.49.352,MainFlow,2024.2.4,130.5208695737898,2025-03-07 11h45.03.653244 +0700,
1,41,0,word/wordth0411.png,image/False/imgf41.png,46,46,0,x,0.47423360007815063,None,0,46,46,46,158.06951549998485,,,,,,,159.55958939995617,159.06057979993057,159.0670456000371,159.0670456000371,159.55958939995617,159.55958939995617,159.55324579996523,160.65528690000065,160.65528690000065,x,0.47423360007815063,None,160.65528690000065,,,,,,,,PM_th,001,2025-03-07_11h44.49.352,MainFlow,2024.2.4,130.5208695737898,2025-03-07 11h45.03.653244 +0700,
1,7,1,word/wordth0071.png,image/True/img07.png,47,47,0,z,0.7566691000247374,None,0,47,47,47,161.14248799998313,,,,,,,162.6324653000338,162.1323238000041,162.13895419996697,162.13895419996697,162.6324653000338,162.6324653000338,162.62638369994238,163.7651783999754,163.7651783999754,z,0.7566691000247374,None,163.7651783999754,,,,,,,,PM_th,001,2025-03-07_11h44.49.352,MainFlow,2024.2.4,130.5208695737898,2025-03-07 11h45.03.653244 +0700,
1,60,0,word/wordth0601.png,image/False/imgf60.png,48,48,0,x,0.6204708000877872,None,0,48,48,48,164.53446270001587,,,,,,,166.0240512000164,165.52365400001872,165.530046400032,165.530046400032,166.0240512000164,166.0240512000164,166.01699839998037,167.14463979995344,167.14463979995344,x,0.6204708000877872,None,167.14463979995344,,,,,,,,PM_th,001,2025-03-07_11h44.49.352,MainFlow,2024.2.4,130.5208695737898,2025-03-07 11h45.03.653244 +0700,
1,23,0,word/wordth0231.png,image/False/imgf23.png,49,49,0,x,0.481319599901326,None,0,49,49,49,167.7753953000065,,,,,,,169.26621559995692,168.76714649994392,168.7735498000402,168.7735498000402,169.26621559995692,169.26621559995692,169.2589042999316,170.42137739993632,170.42137739993632,x,0.481319599901326,None,170.42137739993632,,,,,,,,PM_th,001,2025-03-07_11h44.49.352,MainFlow,2024.2.4,130.5208695737898,2025-03-07 11h45.03.653244 +0700,
1,68,0,word/wordth0681.png,image/False/imgf68.png,50,50,0,x,0.5137170000234619,None,0,50,50,50,170.91391250002198,,,,,,,172.40389309998136,171.90386279998347,171.91033380001318,171.91033380001318,172.40389309998136,172.40389309998136,172.39740819996223,173.51610230002552,173.51610230002552,x,0.5137170000234619,None,173.51610230002552,,,,,,,,PM_th,001,2025-03-07_11h44.49.352,MainFlow,2024.2.4,130.5208695737898,2025-03-07 11h45.03.653244 +0700,
1,26,1,word/wordth0261.png,image/True/img26.png,51,51,0,z,0.6971130999736488,None,0,51,51,51,174.04332179995254,,,,,,,175.53612059995066,175.03524659993127,175.04183250002097,175.04183250002097,175.53612059995066,175.53612059995066,175.52965709997807,176.72018890001345,176.72018890001345,z,0.6971130999736488,None,176.72018890001345,,,,,,,,PM_th,001,2025-03-07_11h44.49.352,MainFlow,2024.2.4,130.5208695737898,2025-03-07 11h45.03.653244 +0700,
1,89,0,word/wordth0891.png,image/False/imgf89.png,52,52,0,x,0.5542271999875084,None,0,52,52,52,177.42933920002542,,,,,,,178.91884459997527,178.41933009994682,178.42588250001427,178.42588250001427,178.91884459997527,178.91884459997527,178.91277339996304,180.03074820002075,180.03074820002075,x,0.5542271999875084,None,180.03074820002075,,,,,,,,PM_th,001,2025-03-07_11h44.49.352,MainFlow,2024.2.4,130.5208695737898,2025-03-07 11h45.03.653244 +0700,
1,3,0,word/wordth0031.png,image/False/imgf03.png,53,53,0,x,0.5889879999449477,None,0,53,53,53,180.59233749995474,,,,,,,182.08122619998176,181.58154159993865,181.58770239993464,181.58770239993464,182.08122619998176,182.08122619998176,182.0750282999361,183.1895467999857,183.1895467999857,x,0.5889879999449477,None,183.1895467999857,,,,,,,,PM_th,001,2025-03-07_11h44.49.352,MainFlow,2024.2.4,130.5208695737898,2025-03-07 11h45.03.653244 +0700,
1,55,1,word/wordth0551.png,image/True/img55.png,54,54,0,z,0.5073093000100926,None,0,54,54,54,183.78625719994307,,,,,,,185.27594109997153,184.7762016999768,184.7824764000252,184.7824764000252,185.27594109997153,185.27594109997153,185.2698848999571,186.39884919999167,186.39884919999167,z,0.5073093000100926,None,186.39884919999167,,,,,,,,PM_th,001,2025-03-07_11h44.49.352,MainFlow,2024.2.4,130.5208695737898,2025-03-07 11h45.03.653244 +0700,
1,46,1,word/wordth0461.png,image/True/img46.png,55,55,0,z,0.5220146999927238,None,0,55,55,55,186.91875119996257,,,,,,,188.4072069999529,187.90725889999885,187.9137603000272,187.9137603000272,188.4072069999529,188.4072069999529,188.40101149992552,189.53673749999143,189.53673749999143,z,0.5220146999927238,None,189.53673749999143,,,,,,,,PM_th,001,2025-03-07_11h44.49.352,MainFlow,2024.2.4,130.5208695737898,2025-03-07 11h45.03.653244 +0700,
1,1,1,word/wordth0011.png,image/True/img01.png,56,56,0,z,0.6343263000017032,None,0,56,56,56,190.07238919998053,,,,,,,191.5616096999729,191.06169759994373,191.0681057999609,191.0681057999609,191.5616096999729,191.5616096999729,191.55533519992605,192.68124990002252,192.68124990002252,z,0.6343263000017032,None,192.68124990002252,,,,,,,,PM_th,001,2025-03-07_11h44.49.352,MainFlow,2024.2.4,130.5208695737898,2025-03-07 11h45.03.653244 +0700,
1,3,1,word/wordth0031.png,image/True/img03.png,57,57,0,z,0.5096498999046162,None,0,57,57,57,193.32614609994926,,,,,,,194.81496709992643,194.3151633000234,194.3214968999382,194.3214968999382,194.81496709992643,194.81496709992643,194.80845719994977,195.93856469995808,195.93856469995808,z,0.5096498999046162,None,195.93856469995808,,,,,,,,PM_th,001,2025-03-07_11h44.49.352,MainFlow,2024.2.4,130.5208695737898,2025-03-07 11h45.03.653244 +0700,
1,76,1,word/wordth0761.png,image/True/img76.png,58,58,0,z,0.4568740000249818,None,0,58,58,58,196.45839639997575,,,,,,,197.948420300032,197.44913810002618,197.45528909994755,197.45528909994755,197.948420300032,197.948420300032,197.94240659999195,199.05954569997266,199.05954569997266,z,0.4568740000249818,None,199.05954569997266,,,,,,,,PM_th,001,2025-03-07_11h44.49.352,MainFlow,2024.2.4,130.5208695737898,2025-03-07 11h45.03.653244 +0700,
1,52,0,word/wordth0521.png,image/False/imgf52.png,59,59,0,x,0.9039988999720663,None,0,59,59,59,199.52385500003584,,,,,,,201.01373430003878,200.51401049993,200.52035410003737,200.52035410003737,201.01373430003878,201.01373430003878,201.0073666999815,202.12427909998223,202.12427909998223,x,0.9039988999720663,None,202.12427909998223,,,,,,,,PM_th,001,2025-03-07_11h44.49.352,MainFlow,2024.2.4,130.5208695737898,2025-03-07 11h45.03.653244 +0700,
1,14,0,word/wordth0141.png,image/False/imgf14.png,60,60,0,x,0.4703776999376714,None,0,60,60,60,203.0397241000319,,,,,,,204.52868180000223,204.02899200003594,204.03507979994174,204.03507979994174,204.52868180000223,204.52868180000223,204.5223629999673,205.64040879998356,205.64040879998356,x,0.4703776999376714,None,205.64040879998356,,,,,,,,PM_th,001,2025-03-07_11h44.49.352,MainFlow,2024.2.4,130.5208695737898,2025-03-07 11h45.03.653244 +0700,
1,61,1,word/wordth0611.png,image/True/img61.png,61,61,0,z,0.3762328000739217,None,0,61,61,61,206.11867100000381,,,,,,,207.6091863999609,207.10982779995538,207.11593969992828,207.11593969992828,207.6091863999609,207.6091863999609,207.60269640001934,208.7522941000061,208.7522941000061,z,0.3762328000739217,None,208.7522941000061,,,,,,,,PM_th,001,2025-03-07_11h44.49.352,MainFlow,2024.2.4,130.5208695737898,2025-03-07 11h45.03.653244 +0700,
1,93,0,word/wordth0931.png,image/False/imgf93.png,62,62,0,x,0.5325855000410229,None,0,62,62,62,209.14148849993944,,,,,,,210.63103539997246,210.13212209998164,210.13886269996874,210.13886269996874,210.63103539997246,210.63103539997246,210.62487099994905,211.7540342999855,211.7540342999855,x,0.5325855000410229,None,211.7540342999855,,,,,,,,PM_th,001,2025-03-07_11h44.49.352,MainFlow,2024.2.4,130.5208695737898,2025-03-07 11h45.03.653244 +0700,
1,37,1,word/wordth0371.png,image/True/img37.png,63,63,0,x,0.7334525999613106,None,0,63,63,63,212.29462269996293,,,,,,,213.78340590000153,213.28324779996183,213.29001250001602,213.29001250001602,213.78340590000153,213.78340590000153,213.77737030002754,214.94012849999126,214.94012849999126,x,0.7334525999613106,None,214.94012849999126,,,,,,,,PM_th,001,2025-03-07_11h44.49.352,MainFlow,2024.2.4,130.5208695737898,2025-03-07 11h45.03.653244 +0700,
1,79,0,word/wordth0791.png,image/False/imgf79.png,64,64,0,x,0.7464604999404401,None,0,64,64,64,215.68191499996465,,,,,,,217.171954200021,216.6731548999669,216.67939009994734,216.67939009994734,217.171954200021,217.171954200021,217.16592940001283,218.31918659992516,218.31918659992516,x,0.7464604999404401,None,218.31918659992516,,,,,,,,PM_th,001,2025-03-07_11h44.49.352,MainFlow,2024.2.4,130.5208695737898,2025-03-07 11h45.03.653244 +0700,
1,37,0,word/wordth0371.png,image/False/imgf37.png,65,65,0,x,0.5822464999509975,None,0,65,65,65,219.07352570001967,,,,,,,220.56316739995964,220.06290519994218,220.06923110003117,220.06923110003117,220.56316739995964,220.56316739995964,220.55617969995365,221.7165369000286,221.7165369000286,x,0.5822464999509975,None,221.7165369000286,,,,,,,,PM_th,001,2025-03-07_11h44.49.352,MainFlow,2024.2.4,130.5208695737898,2025-03-07 11h45.03.653244 +0700,
1,3,1,word/wordth0031.png,image/True/img03.png,66,66,0,z,0.49221569998189807,None,0,66,66,66,222.30640639993362,,,,,,,223.79443679994438,223.29495639994275,223.30102300003637,223.30102300003637,223.79443679994438,223.79443679994438,223.78802879992872,224.93859839998186,224.93859839998186,z,0.49221569998189807,None,224.93859839998186,,,,,,,,PM_th,001,2025-03-07_11h44.49.352,MainFlow,2024.2.4,130.5208695737898,2025-03-07 11h45.03.653244 +0700,
1,93,0,word/wordth0931.png,image/False/imgf93.png,67,67,0,x,0.5527071999385953,None,0,67,67,67,225.4439984000055,,,,,,,226.9324401000049,226.4329751000041,226.4390296000056,226.4390296000056,226.9324401000049,226.9324401000049,226.92614029999822,228.04688989999704,228.04688989999704,x,0.5527071999385953,None,228.04688989999704,,,,,,,,PM_th,001,2025-03-07_11h44.49.352,MainFlow,2024.2.4,130.5208695737898,2025-03-07 11h45.03.653244 +0700,
1,30,1,word/wordth0301.png,image/True/img30.png,68,68,0,x,0.8312055000569671,None,0,68,68,68,228.60728480003309,,,,,,,230.09645519999322,229.59669849998318,229.60293239995372,229.60293239995372,230.09645519999322,230.09645519999322,230.08988690003753,231.21499799995217,231.21499799995217,x,0.8312055000569671,None,231.21499799995217,,,,,,,,PM_th,001,2025-03-07_11h44.49.352,MainFlow,2024.2.4,130.5208695737898,2025-03-07 11h45.03.653244 +0700,
1,46,0,word/wordth0461.png,image/False/imgf46.png,69,69,0,x,0.5902133999625221,None,0,69,69,69,232.05524270003662,,,,,,,233.5437910000328,233.0440224999329,233.05032729997765,233.05032729997765,233.5437910000328,233.5437910000328,233.5372394999722,234.69301379995886,234.69301379995886,x,0.5902133999625221,None,234.69301379995886,,,,,,,,PM_th,001,2025-03-07_11h44.49.352,MainFlow,2024.2.4,130.5208695737898,2025-03-07 11h45.03.653244 +0700,
1,27,0,word/wordth0271.png,image/False/imgf27.png,70,70,0,x,0.8838814999908209,None,0,70,70,70,235.29283609997947,,,,,,,236.78605639992747,236.2856503999792,236.29191679996438,236.29191679996438,236.78605639992747,236.78605639992747,236.7796895999927,237.90620099997614,237.90620099997614,x,0.8838814999908209,None,237.90620099997614,,,,,,,,PM_th,001,2025-03-07_11h44.49.352,MainFlow,2024.2.4,130.5208695737898,2025-03-07 11h45.03.653244 +0700,
1,37,1,word/wordth0371.png,image/True/img37.png,71,71,0,z,0.293578700046055,None,0,71,71,71,238.80076090001967,,,,,,,240.28962820000015,239.7899594999617,239.79608979995828,239.79608979995828,240.28962820000015,240.28962820000015,240.2832414000295,241.45469299994875,241.45469299994875,z,0.293578700046055,None,241.45469299994875,,,,,,,,PM_th,001,2025-03-07_11h44.49.352,MainFlow,2024.2.4,130.5208695737898,2025-03-07 11h45.03.653244 +0700,
1,20,1,word/wordth0201.png,image/True/img20.png,72,72,0,z,0.42057539999950677,None,0,72,72,72,241.75959259993397,,,,,,,243.24848660000134,242.74853889993392,242.75486889993772,242.75486889993772,243.24848660000134,243.24848660000134,243.24235549999867,244.41067070001736,244.41067070001736,z,0.42057539999950677,None,244.41067070001736,,,,,,,,PM_th,001,2025-03-07_11h44.49.352,MainFlow,2024.2.4,130.5208695737898,2025-03-07 11h45.03.653244 +0700,
1,17,1,word/wordth0171.png,image/True/img17.png,73,73,0,z,0.33209019992500544,None,0,73,73,73,244.8416627999395,,,,,,,246.3353603000287,245.8349232999608,245.84121540002525,245.84121540002525,246.3353603000287,246.3353603000287,246.3288639000384,247.50104829994962,247.50104829994962,z,0.33209019992500544,None,247.50104829994962,,,,,,,,PM_th,001,2025-03-07_11h44.49.352,MainFlow,2024.2.4,130.5208695737898,2025-03-07 11h45.03.653244 +0700,
1,10,0,word/wordth0101.png,image/False/imgf10.png,74,74,0,x,0.6305513000115752,None,0,74,74,74,247.84729700000025,,,,,,,249.33716350002214,248.83921559993178,248.8456893999828,248.8456893999828,249.33716350002214,249.33716350002214,249.33078610000666,250.5062833999982,250.5062833999982,x,0.6305513000115752,None,250.5062833999982,,,,,,,,PM_th,001,2025-03-07_11h44.49.352,MainFlow,2024.2.4,130.5208695737898,2025-03-07 11h45.03.653244 +0700,
1,68,1,word/wordth0681.png,image/True/img68.png,75,75,0,z,0.6742875999771059,None,0,75,75,75,251.149780799984,,,,,,,252.63961139996536,252.14017729996704,252.14631530002225,252.14631530002225,252.63961139996536,252.63961139996536,252.63280969997868,253.73325139994267,253.73325139994267,z,0.6742875999771059,None,253.73325139994267,,,,,,,,PM_th,001,2025-03-07_11h44.49.352,MainFlow,2024.2.4,130.5208695737898,2025-03-07 11h45.03.653244 +0700,
1,82,0,word/wordth0821.png,image/False/imgf82.png,76,76,0,x,0.8559433999471366,None,0,76,76,76,254.41631040000357,,,,,,,255.90681489999406,255.4073306999635,255.4137012999272,255.4137012999272,255.90681489999406,255.90681489999406,255.89996800001245,257.0541814999888,257.0541814999888,x,0.8559433999471366,None,257.0541814999888,,,,,,,,PM_th,001,2025-03-07_11h44.49.352,MainFlow,2024.2.4,130.5208695737898,2025-03-07 11h45.03.653244 +0700,
1,42,1,word/wordth0421.png,image/True/img42.png,77,77,0,z,0.3814460000721738,None,0,77,77,77,257.919767400017,,,,,,,259.41273590002675,258.9110932999756,258.9179921000032,258.9179921000032,259.41273590002675,259.41273590002675,259.4057457000017,260.546691800002,260.546691800002,z,0.3814460000721738,None,260.546691800002,,,,,,,,PM_th,001,2025-03-07_11h44.49.352,MainFlow,2024.2.4,130.5208695737898,2025-03-07 11h45.03.653244 +0700,
1,59,1,word/wordth0591.png,image/True/img59.png,78,78,0,z,0.3646923000924289,None,0,78,78,78,260.9411901999265,,,,,,,262.43025610002223,261.9308172999881,261.9367699000286,261.9367699000286,262.43025610002223,262.43025610002223,262.42373329994734,263.5364638000028,263.5364638000028,z,0.3646923000924289,None,263.5364638000028,,,,,,,,PM_th,001,2025-03-07_11h44.49.352,MainFlow,2024.2.4,130.5208695737898,2025-03-07 11h45.03.653244 +0700,
1,18,1,word/wordth0181.png,image/True/img18.png,79,79,0,z,0.5637790000764653,None,0,79,79,79,263.91427820001263,,,,,,,265.4043698000023,264.9054428000236,264.91207540000323,264.91207540000323,265.4043698000023,265.4043698000023,265.3977852000389,266.5188542000251,266.5188542000251,z,0.5637790000764653,None,266.5188542000251,,,,,,,,PM_th,001,2025-03-07_11h44.49.352,MainFlow,2024.2.4,130.5208695737898,2025-03-07 11h45.03.653244 +0700,
1,63,1,word/wordth0631.png,image/True/img63.png,80,80,0,z,0.3920186999021098,None,0,80,80,80,267.0930054000346,,,,,,,268.5823014000198,268.0822017999599,268.0885064000031,268.0885064000031,268.5823014000198,268.5823014000198,268.575766999973,269.70340839994606,269.70340839994606,z,0.3920186999021098,None,269.70340839994606,,,,,,,,PM_th,001,2025-03-07_11h44.49.352,MainFlow,2024.2.4,130.5208695737898,2025-03-07 11h45.03.653244 +0700,
1,40,0,word/wordth0401.png,image/False/imgf40.png,81,81,0,z,0.6989585999399424,None,0,81,81,81,270.1047309000278,,,,,,,271.59422780002933,271.09415399993304,271.1005115000298,271.1005115000298,271.59422780002933,271.59422780002933,271.58759380003903,272.7088816999458,272.7088816999458,z,0.6989585999399424,None,272.7088816999458,,,,,,,,PM_th,001,2025-03-07_11h44.49.352,MainFlow,2024.2.4,130.5208695737898,2025-03-07 11h45.03.653244 +0700,
1,55,0,word/wordth0551.png,image/False/imgf55.png,82,82,0,x,0.7533883999567479,None,0,82,82,82,273.4147255999269,,,,,,,274.9032332999632,274.40363670000806,274.40970720001496,274.40970720001496,274.9032332999632,274.9032332999632,274.89682419993915,276.0269740000367,276.0269740000367,x,0.7533883999567479,None,276.0269740000367,,,,,,,,PM_th,001,2025-03-07_11h44.49.352,MainFlow,2024.2.4,130.5208695737898,2025-03-07 11h45.03.653244 +0700,
1,26,1,word/wordth0261.png,image/True/img26.png,83,83,0,z,0.7509582999628037,None,0,83,83,83,276.7899573999457,,,,,,,278.27898159995675,277.7795535000041,277.78548419999424,277.78548419999424,278.27898159995675,278.27898159995675,278.2725195999956,279.42716369999107,279.42716369999107,z,0.7509582999628037,None,279.42716369999107,,,,,,,,PM_th,001,2025-03-07_11h44.49.352,MainFlow,2024.2.4,130.5208695737898,2025-03-07 11h45.03.653244 +0700,
1,28,0,word/wordth0281.png,image/False/imgf28.png,84,84,0,x,0.7434392999857664,None,0,84,84,84,280.187599399942,,,,,,,281.6781415999867,281.1794348999392,281.1857238999801,281.1857238999801,281.6781415999867,281.6781415999867,281.6715400000103,282.7919642999768,282.7919642999768,x,0.7434392999857664,None,282.7919642999768,,,,,,,,PM_th,001,2025-03-07_11h44.49.352,MainFlow,2024.2.4,130.5208695737898,2025-03-07 11h45.03.653244 +0700,
1,8,0,word/wordth0081.png,image/False/imgf08.png,85,85,0,x,0.676958000054583,None,0,85,85,85,283.5470328000374,,,,,,,285.03742960002273,284.5372671999503,284.54466250003316,284.54466250003316,285.03742960002273,285.03742960002273,285.0306389000034,286.1499189999886,286.1499189999886,x,0.676958000054583,None,286.1499189999886,,,,,,,,PM_th,001,2025-03-07_11h44.49.352,MainFlow,2024.2.4,130.5208695737898,2025-03-07 11h45.03.653244 +0700,
1,9,1,word/wordth0091.png,image/True/img09.png,86,86,0,z,0.5075797999743372,None,0,86,86,86,286.8365286999615,,,,,,,288.32958230003715,287.82836439996026,287.83542200003285,287.83542200003285,288.32958230003715,288.32958230003715,288.32395749993157,289.41705269995145,289.41705269995145,z,0.5075797999743372,None,289.41705269995145,,,,,,,,PM_th,001,2025-03-07_11h44.49.352,MainFlow,2024.2.4,130.5208695737898,2025-03-07 11h45.03.653244 +0700,
1,78,1,word/wordth0781.png,image/True/img78.png,87,87,0,z,0.7315790000138804,None,0,87,87,87,289.9371394999325,,,,,,,291.42726719996426,290.928607000038,290.9355295000132,290.9355295000132,291.42726719996426,291.42726719996426,291.4211581000127,292.5510406999383,292.5510406999383,z,0.7315790000138804,None,292.5510406999383,,,,,,,,PM_th,001,2025-03-07_11h44.49.352,MainFlow,2024.2.4,130.5208695737898,2025-03-07 11h45.03.653244 +0700,
1,1,0,word/wordth0011.png,image/False/imgf01.png,88,88,0,x,0.5467966999858618,None,0,88,88,88,293.2927725999616,,,,,,,294.7816727999598,294.2819845000049,294.2879439999815,294.2879439999815,294.7816727999598,294.7816727999598,294.7749152999604,295.89288429997396,295.89288429997396,x,0.5467966999858618,None,295.89288429997396,,,,,,,,PM_th,001,2025-03-07_11h44.49.352,MainFlow,2024.2.4,130.5208695737898,2025-03-07 11h45.03.653244 +0700,
1,71,1,word/wordth0711.png,image/True/img71.png,89,89,0,z,0.6670024000341073,None,0,89,89,89,296.4474863000214,,,,,,,297.93707450001966,297.4369694000343,297.4432729999535,297.4432729999535,297.93707450001966,297.93707450001966,297.93050879996736,299.0708153999876,299.0708153999876,z,0.6670024000341073,None,299.0708153999876,,,,,,,,PM_th,001,2025-03-07_11h44.49.352,MainFlow,2024.2.4,130.5208695737898,2025-03-07 11h45.03.653244 +0700,
1,93,1,word/wordth0931.png,image/True/img93.png,90,90,0,z,0.3608570999931544,None,0,90,90,90,299.75045319995843,,,,,,,301.23970309994183,300.7398060000269,300.7461673000362,300.7461673000362,301.23970309994183,301.23970309994183,301.2333438999485,302.3592417000327,302.3592417000327,z,0.3608570999931544,None,302.3592417000327,,,,,,,,PM_th,001,2025-03-07_11h44.49.352,MainFlow,2024.2.4,130.5208695737898,2025-03-07 11h45.03.653244 +0700,
1,78,0,word/wordth0781.png,image/False/imgf78.png,91,91,0,x,1.295895800110884,None,0,91,91,91,302.73350690002553,,,,,,,304.2222295999527,303.722374200006,303.72866369993426,303.72866369993426,304.2222295999527,304.2222295999527,304.2157566000242,305.3219760999782,305.3219760999782,x,1.295895800110884,None,305.3219760999782,,,,,,,,PM_th,001,2025-03-07_11h44.49.352,MainFlow,2024.2.4,130.5208695737898,2025-03-07 11h45.03.653244 +0700,
1,8,0,word/wordth0081.png,image/False/imgf08.png,92,92,0,x,0.4303584999870509,None,0,92,92,92,306.6267783000367,,,,,,,308.11677650001366,307.6172172999941,307.6232664999552,307.6232664999552,308.11677650001366,308.11677650001366,308.1101890000282,309.2247078999644,309.2247078999644,x,0.4303584999870509,None,309.2247078999644,,,,,,,,PM_th,001,2025-03-07_11h44.49.352,MainFlow,2024.2.4,130.5208695737898,2025-03-07 11h45.03.653244 +0700,
1,9,0,word/wordth0091.png,image/False/imgf09.png,93,93,0,x,0.546389100025408,None,0,93,93,93,309.6618802000303,,,,,,,311.15072729997337,310.6513998999726,310.6572326000314,310.6572326000314,311.15072729997337,311.15072729997337,311.1442334000021,312.2509145999793,312.2509145999793,x,0.546389100025408,None,312.2509145999793,,,,,,,,PM_th,001,2025-03-07_11h44.49.352,MainFlow,2024.2.4,130.5208695737898,2025-03-07 11h45.03.653244 +0700,
1,75,1,word/wordth0751.png,image/True/img75.png,94,94,0,z,0.6111392999300733,None,0,94,94,94,312.8056799999904,,,,,,,314.2958073000191,313.7978630999569,313.8041492999764,313.8041492999764,314.2958073000191,314.2958073000191,314.28937619994394,315.41876649996266,315.41876649996266,z,0.6111392999300733,None,315.41876649996266,,,,,,,,PM_th,001,2025-03-07_11h44.49.352,MainFlow,2024.2.4,130.5208695737898,2025-03-07 11h45.03.653244 +0700,
1,95,0,word/wordth0951.png,image/False/imgf95.png,95,95,0,x,0.5512688000453636,None,0,95,95,95,316.04256810003426,,,,,,,317.5329244999448,317.03236940002535,317.0392138999887,317.0392138999887,317.5329244999448,317.5329244999448,317.5261682999553,318.6813163999468,318.6813163999468,x,0.5512688000453636,None,318.6813163999468,,,,,,,,PM_th,001,2025-03-07_11h44.49.352,MainFlow,2024.2.4,130.5208695737898,2025-03-07 11h45.03.653244 +0700,
1,70,1,word/wordth0701.png,image/True/img70.png,96,96,0,z,0.40040089993271977,None,0,96,96,96,319.23989820003044,,,,,,,320.7299326999346,320.2313395999372,320.2374558999436,320.2374558999436,320.7299326999346,320.7299326999346,320.7235069000162,321.89419599995017,321.89419599995017,z,0.40040089993271977,None,321.89419599995017,,,,,,,,PM_th,001,2025-03-07_11h44.49.352,MainFlow,2024.2.4,130.5208695737898,2025-03-07 11h45.03.653244 +0700,
1,94,0,word/wordth0941.png,image/False/imgf94.png,97,97,0,x,0.5065552999731153,None,0,97,97,97,322.30311460001394,,,,,,,323.79360790003557,323.2947374000214,323.3013602999272,323.3013602999272,323.79360790003557,323.79360790003557,323.7869036999764,324.98187819996383,324.98187819996383,x,0.5065552999731153,None,324.98187819996383,,,,,,,,PM_th,001,2025-03-07_11h44.49.352,MainFlow,2024.2.4,130.5208695737898,2025-03-07 11h45.03.653244 +0700,
1,9,0,word/wordth0091.png,image/False/imgf09.png,98,98,0,x,0.4994320999830961,None,0,98,98,98,325.5018085000338,,,,,,,326.992274899967,326.4921967999544,326.4983922999818,326.4983922999818,326.992274899967,326.992274899967,326.9853814999806,328.11527589999605,328.11527589999605,x,0.4994320999830961,None,328.11527589999605,,,,,,,,PM_th,001,2025-03-07_11h44.49.352,MainFlow,2024.2.4,130.5208695737898,2025-03-07 11h45.03.653244 +0700,
1,18,0,word/wordth0181.png,image/False/imgf18.png,99,99,0,x,0.4362459999974817,None,0,99,99,99,328.62824819993693,,,,,,,330.11757260002196,329.61766879993957,329.62372719997074,329.62372719997074,330.11757260002196,330.11757260002196,330.1113146999851,331.28081339993514,331.28081339993514,x,0.4362459999974817,None,331.28081339993514,,,,,,,,PM_th,001,2025-03-07_11h44.49.352,MainFlow,2024.2.4,130.5208695737898,2025-03-07 11h45.03.653244 +0700,
1,28,1,word/wordth0281.png,image/True/img28.png,100,100,0,z,0.40406139998231083,None,0,100,100,100,331.72464859997854,,,,,,,333.2140375999734,332.7138944999315,332.7204730999656,332.7204730999656,333.2140375999734,333.2140375999734,333.2079435000196,334.39569589996245,334.39569589996245,z,0.40406139998231083,None,334.39569589996245,,,,,,,,PM_th,001,2025-03-07_11h44.49.352,MainFlow,2024.2.4,130.5208695737898,2025-03-07 11h45.03.653244 +0700,
1,23,1,word/wordth0231.png,image/True/img23.png,101,101,0,z,0.30079000000841916,None,0,101,101,101,334.8089445999358,,,,,,,336.29847169993445,335.79808700003196,335.80455470003653,335.80455470003653,336.29847169993445,336.29847169993445,336.29202839999925,337.43219099997077,337.43219099997077,z,0.30079000000841916,None,337.43219099997077,,,,,,,,PM_th,001,2025-03-07_11h44.49.352,MainFlow,2024.2.4,130.5208695737898,2025-03-07 11h45.03.653244 +0700,
1,30,0,word/wordth0301.png,image/False/imgf30.png,102,102,0,x,0.4682340999133885,None,0,102,102,102,337.7438842999982,,,,,,,339.23422580002807,338.73485040001106,338.7409176999936,338.7409176999936,339.23422580002807,339.23422580002807,339.22771599993575,340.35751619993243,340.35751619993243,x,0.4682340999133885,None,340.35751619993243,,,,,,,,PM_th,001,2025-03-07_11h44.49.352,MainFlow,2024.2.4,130.5208695737898,2025-03-07 11h45.03.653244 +0700,
1,11,1,word/wordth0111.png,image/True/img11.png,103,103,0,z,0.7378676999360323,None,0,103,103,103,340.83578810002655,,,,,,,342.3292595000239,341.82928659999743,341.83640100003686,341.83640100003686,342.3292595000239,342.3292595000239,342.323240699945,343.47972760000266,343.47972760000266,z,0.7378676999360323,None,343.47972760000266,,,,,,,,PM_th,001,2025-03-07_11h44.49.352,MainFlow,2024.2.4,130.5208695737898,2025-03-07 11h45.03.653244 +0700,
1,75,0,word/wordth0751.png,image/False/imgf75.png,104,104,0,x,0.6056761000072584,None,0,104,104,104,344.22438209992833,,,,,,,345.71315339999273,345.2134101999691,345.2196345999837,345.2196345999837,345.71315339999273,345.71315339999273,345.70751490001567,346.83408900001086,346.83408900001086,x,0.6056761000072584,None,346.83408900001086,,,,,,,,PM_th,001,2025-03-07_11h44.49.352,MainFlow,2024.2.4,130.5208695737898,2025-03-07 11h45.03.653244 +0700,
1,6,0,word/wordth0061.png,image/False/imgf06.png,105,105,0,x,0.5899191999342293,None,0,105,105,105,347.45119759999216,,,,,,,348.9410171000054,348.4419616999803,348.4484170000069,348.4484170000069,348.9410171000054,348.9410171000054,348.9346360999625,350.0527184000239,350.0527184000239,x,0.5899191999342293,None,350.0527184000239,,,,,,,,PM_th,001,2025-03-07_11h44.49.352,MainFlow,2024.2.4,130.5208695737898,2025-03-07 11h45.03.653244 +0700,
1,27,1,word/wordth0271.png,image/True/img27.png,106,106,0,z,0.5942522999830544,None,0,106,106,106,350.6560170999728,,,,,,,352.1461559999734,351.64637989993207,351.65323229995556,351.65323229995556,352.1461559999734,352.1461559999734,352.13976559997536,353.2705410999479,353.2705410999479,z,0.5942522999830544,None,353.2705410999479,,,,,,,,PM_th,001,2025-03-07_11h44.49.352,MainFlow,2024.2.4,130.5208695737898,2025-03-07 11h45.03.653244 +0700,
1,1,1,word/wordth0011.png,image/True/img01.png,107,107,0,z,0.27758340002037585,None,0,107,107,107,353.87818060000427,,,,,,,355.36795989994425,354.8678798000328,354.8740447999444,354.8740447999444,355.36795989994425,355.36795989994425,355.36144030001014,356.5448537999764,356.5448537999764,z,0.27758340002037585,None,356.5448537999764,,,,,,,,PM_th,001,2025-03-07_11h44.49.352,MainFlow,2024.2.4,130.5208695737898,2025-03-07 11h45.03.653244 +0700,
1,44,0,word/wordth0441.png,image/False/imgf44.png,108,108,0,x,0.46145980001892895,None,0,108,108,108,356.83590089995414,,,,,,,358.32584289996885,357.82802679995075,357.8346843000036,357.8346843000036,358.32584289996885,358.32584289996885,358.31958559993654,359.4687889999477,359.4687889999477,x,0.46145980001892895,None,359.4687889999477,,,,,,,,PM_th,001,2025-03-07_11h44.49.352,MainFlow,2024.2.4,130.5208695737898,2025-03-07 11h45.03.653244 +0700,
1,48,0,word/wordth0481.png,image/False/imgf48.png,109,109,0,x,0.4468701999867335,None,0,109,109,109,359.9405386999715,,,,,,,361.43003349995706,360.9307286000112,360.9365341999801,360.9365341999801,361.43003349995706,361.43003349995706,361.4235146000283,362.5800506999949,362.5800506999949,x,0.4468701999867335,None,362.5800506999949,,,,,,,,PM_th,001,2025-03-07_11h44.49.352,MainFlow,2024.2.4,130.5208695737898,2025-03-07 11h45.03.653244 +0700,
1,60,0,word/wordth0601.png,image/False/imgf60.png,110,110,0,x,0.4081593999871984,None,0,110,110,110,363.03325530001894,,,,,,,364.52383890002966,364.02471160003915,364.03148919995874,364.03148919995874,364.52383890002966,364.52383890002966,364.516966199968,365.6713626999408,365.6713626999408,x,0.4081593999871984,None,365.6713626999408,,,,,,,,PM_th,001,2025-03-07_11h44.49.352,MainFlow,2024.2.4,130.5208695737898,2025-03-07 11h45.03.653244 +0700,
1,96,1,word/wordth0961.png,image/True/img96.png,111,111,0,z,0.36348100006580353,None,0,111,111,111,366.0917937000049,,,,,,,367.5809145999374,367.0814417999936,367.08745460002683,367.08745460002683,367.5809145999374,367.5809145999374,367.57489469996653,368.7288060999708,368.7288060999708,z,0.36348100006580353,None,368.7288060999708,,,,,,,,PM_th,001,2025-03-07_11h44.49.352,MainFlow,2024.2.4,130.5208695737898,2025-03-07 11h45.03.653244 +0700,
1,79,0,word/wordth0791.png,image/False/imgf79.png,112,112,0,x,0.6617195999715477,None,0,112,112,112,369.1007993000094,,,,,,,370.58979569992516,370.0900493999943,370.0961729999399,370.0961729999399,370.58979569992516,370.58979569992516,370.5838170000352,371.74345299997367,371.74345299997367,x,0.6617195999715477,None,371.74345299997367,,,,,,,,PM_th,001,2025-03-07_11h44.49.352,MainFlow,2024.2.4,130.5208695737898,2025-03-07 11h45.03.653244 +0700,
1,7,0,word/wordth0071.png,image/False/imgf07.png,113,113,0,x,0.5252105999970809,None,0,113,113,113,372.4165159999393,,,,,,,373.9058479999658,373.4058781999629,373.4121194999898,373.4121194999898,373.9058479999658,373.9058479999658,373.89978009997867,375.05662679998204,375.05662679998204,x,0.5252105999970809,None,375.05662679998204,,,,,,,,PM_th,001,2025-03-07_11h44.49.352,MainFlow,2024.2.4,130.5208695737898,2025-03-07 11h45.03.653244 +0700,
1,36,0,word/wordth0361.png,image/False/imgf36.png,114,114,0,x,0.6174340000143275,None,0,114,114,114,375.5923571999883,,,,,,,377.08175659994595,376.58185229997616,376.58805120002944,376.58805120002944,377.08175659994595,377.08175659994595,377.07508229999803,378.2082608999917,378.2082608999917,x,0.6174340000143275,None,378.2082608999917,,,,,,,,PM_th,001,2025-03-07_11h44.49.352,MainFlow,2024.2.4,130.5208695737898,2025-03-07 11h45.03.653244 +0700,
1,71,0,word/wordth0711.png,image/False/imgf71.png,115,115,0,x,0.5956798999104649,None,0,115,115,115,378.83718159992713,,,,,,,380.3261664999882,379.82646330003627,379.8324301999528,379.8324301999528,380.3261664999882,380.3261664999882,380.3194480999373,381.52115459996276,381.52115459996276,x,0.5956798999104649,None,381.52115459996276,,,,,,,,PM_th,001,2025-03-07_11h44.49.352,MainFlow,2024.2.4,130.5208695737898,2025-03-07 11h45.03.653244 +0700,
1,20,0,word/wordth0201.png,image/False/imgf20.png,116,116,0,x,0.5190132999559864,None,0,116,116,116,382.1255404999247,,,,,,,383.61438509996515,383.1149517999729,383.1208907000255,383.1208907000255,383.61438509996515,383.61438509996515,383.6079727000324,384.78533260000404,384.78533260000404,x,0.5190132999559864,None,384.78533260000404,,,,,,,,PM_th,001,2025-03-07_11h44.49.352,MainFlow,2024.2.4,130.5208695737898,2025-03-07 11h45.03.653244 +0700,
1,87,1,word/wordth0871.png,image/True/img87.png,117,117,0,z,0.5968827001051977,None,0,117,117,117,385.31611320003867,,,,,,,386.8057960999431,386.307842399925,386.3141164999688,386.3141164999688,386.8057960999431,386.8057960999431,386.8003268999746,387.9803278000327,387.9803278000327,z,0.5968827001051977,None,387.9803278000327,,,,,,,,PM_th,001,2025-03-07_11h44.49.352,MainFlow,2024.2.4,130.5208695737898,2025-03-07 11h45.03.653244 +0700,
1,50,0,word/wordth0501.png,image/False/imgf50.png,118,118,0,x,0.5549418000737205,None,0,118,118,118,388.5905596000375,,,,,,,390.08089300000574,389.5827851999784,389.5891120999586,389.5891120999586,390.08089300000574,390.08089300000574,390.0741683000233,391.2447229999816,391.2447229999816,x,0.5549418000737205,None,391.2447229999816,,,,,,,,PM_th,001,2025-03-07_11h44.49.352,MainFlow,2024.2.4,130.5208695737898,2025-03-07 11h45.03.653244 +0700,
1,18,1,word/wordth0181.png,image/True/img18.png,119,119,0,z,0.44221670005936176,None,0,119,119,119,391.8065113000339,,,,,,,393.29654829995707,392.7966779000126,392.8029188000364,392.8029188000364,393.29654829995707,393.29654829995707,393.29011199995875,394.4092095999513,394.4092095999513,z,0.44221670005936176,None,394.4092095999513,,,,,,,,PM_th,001,2025-03-07_11h44.49.352,MainFlow,2024.2.4,130.5208695737898,2025-03-07 11h45.03.653244 +0700,
1,71,0,word/wordth0711.png,image/False/imgf71.png,120,120,0,x,0.48853470000904053,None,0,120,120,120,394.8598076000344,,,,,,,396.3488428000128,395.8489515000256,395.855321799987,395.855321799987,396.3488428000128,396.3488428000128,396.3424620999722,397.49599610001314,397.49599610001314,x,0.48853470000904053,None,397.49599610001314,,,,,,,,PM_th,001,2025-03-07_11h44.49.352,MainFlow,2024.2.4,130.5208695737898,2025-03-07 11h45.03.653244 +0700,
1,46,1,word/wordth0461.png,image/True/img46.png,121,121,0,z,0.4672092000255361,None,0,121,121,121,397.99363209994044,,,,,,,399.4826216000365,398.98267609998584,398.98907769995276,398.98907769995276,399.4826216000365,399.4826216000365,399.4765325000044,400.6251311999513,400.6251311999513,z,0.4672092000255361,None,400.6251311999513,,,,,,,,PM_th,001,2025-03-07_11h44.49.352,MainFlow,2024.2.4,130.5208695737898,2025-03-07 11h45.03.653244 +0700,
1,10,1,word/wordth0101.png,image/True/img10.png,122,122,0,z,0.29425220005214214,None,0,122,122,122,401.1041629000101,,,,,,,402.59379950002767,402.0936503999401,402.10073309997097,402.10073309997097,402.59379950002767,402.59379950002767,402.5873694999609,403.7258525999496,403.7258525999496,z,0.29425220005214214,None,403.7258525999496,,,,,,,,PM_th,001,2025-03-07_11h44.49.352,MainFlow,2024.2.4,130.5208695737898,2025-03-07 11h45.03.653244 +0700,
1,16,0,word/wordth0161.png,image/False/imgf16.png,123,123,0,x,0.4170313000213355,None,0,123,123,123,404.0301309999777,,,,,,,405.52045680000447,405.02049899997655,405.02751299995,405.02751299995,405.52045680000447,405.52045680000447,405.5136360999895,406.65092059993185,406.65092059993185,x,0.4170313000213355,None,406.65092059993185,,,,,,,,PM_th,001,2025-03-07_11h44.49.352,MainFlow,2024.2.4,130.5208695737898,2025-03-07 11h45.03.653244 +0700,
1,15,0,word/wordth0151.png,image/False/imgf15.png,124,124,0,x,0.45740019995719194,None,0,124,124,124,407.0812379999552,,,,,,,408.57113820000086,408.0716795999324,408.0776493999874,408.0776493999874,408.57113820000086,408.57113820000086,408.5646431000205,409.7086836999515,409.7086836999515,x,0.45740019995719194,None,409.7086836999515,,,,,,,,PM_th,001,2025-03-07_11h44.49.352,MainFlow,2024.2.4,130.5208695737898,2025-03-07 11h45.03.653244 +0700,
1,59,0,word/wordth0591.png,image/False/imgf59.png,125,125,0,x,0.45176129997707903,None,0,125,125,125,410.1782884999411,,,,,,,411.66649570001755,411.1666385999415,411.1731177000329,411.1731177000329,411.66649570001755,411.66649570001755,411.660706799943,412.7818436999805,412.7818436999805,x,0.45176129997707903,None,412.7818436999805,,,,,,,,PM_th,001,2025-03-07_11h44.49.352,MainFlow,2024.2.4,130.5208695737898,2025-03-07 11h45.03.653244 +0700,
1,11,0,word/wordth0111.png,image/False/imgf11.png,126,126,0,x,0.6934984000399709,None,0,126,126,126,413.2430772000225,,,,,,,414.7330438999925,414.2328668999253,414.239281999995,414.239281999995,414.7330438999925,414.7330438999925,414.7262785999337,415.8821051999694,415.8821051999694,x,0.6934984000399709,None,415.8821051999694,,,,,,,,PM_th,001,2025-03-07_11h44.49.352,MainFlow,2024.2.4,130.5208695737898,2025-03-07 11h45.03.653244 +0700,
1,75,1,word/wordth0751.png,image/True/img75.png,127,127,0,z,0.33951790002174675,None,0,127,127,127,416.5858956000302,,,,,,,418.076266799937,417.5753936000401,417.5824614999583,417.5824614999583,418.076266799937,418.076266799937,418.06989059993066,419.23865970002953,419.23865970002953,z,0.33951790002174675,None,419.23865970002953,,,,,,,,PM_th,001,2025-03-07_11h44.49.352,MainFlow,2024.2.4,130.5208695737898,2025-03-07 11h45.03.653244 +0700,
1,33,1,word/wordth0331.png,image/True/img33.png,128,128,0,z,0.5558573000598699,None,0,128,128,128,419.58605249994434,,,,,,,421.0790359999519,420.57819189992733,420.5850050000008,420.5850050000008,421.0790359999519,421.0790359999519,421.07262640004046,422.2004437999567,422.2004437999567,z,0.5558573000598699,None,422.2004437999567,,,,,,,,PM_th,001,2025-03-07_11h44.49.352,MainFlow,2024.2.4,130.5208695737898,2025-03-07 11h45.03.653244 +0700,
1,66,0,word/wordth0661.png,image/False/imgf66.png,129,129,0,x,0.5208622999489307,None,0,129,129,129,422.7687953999266,,,,,,,424.2582936999388,423.75774739996996,423.7652128000045,423.7652128000045,424.2582936999388,424.2582936999388,424.2523270000238,425.37326479994226,425.37326479994226,x,0.5208622999489307,None,425.37326479994226,,,,,,,,PM_th,001,2025-03-07_11h44.49.352,MainFlow,2024.2.4,130.5208695737898,2025-03-07 11h45.03.653244 +0700,
1,38,1,word/wordth0381.png,image/True/img38.png,130,130,0,z,0.6177720999112353,None,0,130,130,130,425.9053849999327,,,,,,,427.394232199993,426.8947332999669,426.90070869994815,426.90070869994815,427.394232199993,427.394232199993,427.3877400000347,428.49423960002605,428.49423960002605,z,0.6177720999112353,None,428.49423960002605,,,,,,,,PM_th,001,2025-03-07_11h44.49.352,MainFlow,2024.2.4,130.5208695737898,2025-03-07 11h45.03.653244 +0700,
1,38,1,word/wordth0381.png,image/True/img38.png,131,131,0,z,0.38767250010278076,None,0,131,131,131,429.1254200999392,,,,,,,430.6142640999751,430.11426429997664,430.12075929995626,430.12075929995626,430.6142640999751,430.6142640999751,430.6079191999743,431.7163537000306,431.7163537000306,z,0.38767250010278076,None,431.7163537000306,,,,,,,,PM_th,001,2025-03-07_11h44.49.352,MainFlow,2024.2.4,130.5208695737898,2025-03-07 11h45.03.653244 +0700,
1,63,1,word/wordth0631.png,image/True/img63.png,132,132,0,z,0.49690220004413277,None,0,132,132,132,432.1116188999731,,,,,,,433.60010179993697,433.09990699996706,433.1065749999834,433.1065749999834,433.60010179993697,433.60010179993697,433.593795599998,434.7150312999729,434.7150312999729,z,0.49690220004413277,None,434.7150312999729,,,,,,,,PM_th,001,2025-03-07_11h44.49.352,MainFlow,2024.2.4,130.5208695737898,2025-03-07 11h45.03.653244 +0700,
1,33,0,word/wordth0331.png,image/False/imgf33.png,133,133,0,x,0.5851614000275731,None,0,133,133,133,435.21958989999257,,,,,,,436.7078356000129,436.2081962999655,436.2143667000346,436.2143667000346,436.7078356000129,436.7078356000129,436.7015708000399,437.82938429992646,437.82938429992646,x,0.5851614000275731,None,437.82938429992646,,,,,,,,PM_th,001,2025-03-07_11h44.49.352,MainFlow,2024.2.4,130.5208695737898,2025-03-07 11h45.03.653244 +0700,
1,52,1,word/wordth0521.png,image/True/img52.png,134,134,0,z,0.41078759997617453,None,0,134,134,134,438.42570429993793,,,,,,,439.9144386999542,439.41402609995566,439.4203564999625,439.4203564999625,439.9144386999542,439.9144386999542,439.90740799997,441.03646420000587,441.03646420000587,z,0.41078759997617453,None,441.03646420000587,,,,,,,,PM_th,001,2025-03-07_11h44.49.352,MainFlow,2024.2.4,130.5208695737898,2025-03-07 11h45.03.653244 +0700,
1,11,0,word/wordth0111.png,image/False/imgf11.png,135,135,0,x,0.48417650000192225,None,0,135,135,135,441.45898170000874,,,,,,,442.94825609994587,442.4485859000124,442.45471810002346,442.45471810002346,442.94825609994587,442.94825609994587,442.9428562000394,444.0902861999348,444.0902861999348,x,0.48417650000192225,None,444.0902861999348,,,,,,,,PM_th,001,2025-03-07_11h44.49.352,MainFlow,2024.2.4,130.5208695737898,2025-03-07 11h45.03.653244 +0700,
1,1,0,word/wordth0011.png,image/False/imgf01.png,136,136,0,x,0.5684145999839529,None,0,136,136,136,444.58360539993737,,,,,,,446.0730756999692,445.5744641999481,445.58154829998966,445.58154829998966,446.0730756999692,446.0730756999692,446.06655929994304,447.2037698000204,447.2037698000204,x,0.5684145999839529,None,447.2037698000204,,,,,,,,PM_th,001,2025-03-07_11h44.49.352,MainFlow,2024.2.4,130.5208695737898,2025-03-07 11h45.03.653244 +0700,
1,96,0,word/wordth0961.png,image/False/imgf96.png,137,137,0,x,0.46302990010008216,None,0,137,137,137,447.7799836000195,,,,,,,449.2700632000342,448.7713412999874,448.7777631999925,448.7777631999925,449.2700632000342,449.2700632000342,449.263734200038,450.4413961999817,450.4413961999817,x,0.46302990010008216,None,450.4413961999817,,,,,,,,PM_th,001,2025-03-07_11h44.49.352,MainFlow,2024.2.4,130.5208695737898,2025-03-07 11h45.03.653244 +0700,
1,57,1,word/wordth0571.png,image/True/img57.png,138,138,0,z,0.4229635000228882,None,0,138,138,138,450.91569289995823,,,,,,,452.40636989998166,451.9067401000066,451.9132474999642,451.9132474999642,452.40636989998166,452.40636989998166,452.39948779996485,453.53464949992485,453.53464949992485,z,0.4229635000228882,None,453.53464949992485,,,,,,,,PM_th,001,2025-03-07_11h44.49.352,MainFlow,2024.2.4,130.5208695737898,2025-03-07 11h45.03.653244 +0700,
1,30,1,word/wordth0301.png,image/True/img30.png,139,139,0,z,0.31232979998458177,None,0,139,139,139,453.9672638999764,,,,,,,455.45703059993684,454.9571034000255,454.96334300003946,454.96334300003946,455.45703059993684,455.45703059993684,455.45031869993545,456.5691236000275,456.5691236000275,z,0.31232979998458177,None,456.5691236000275,,,,,,,,PM_th,001,2025-03-07_11h44.49.352,MainFlow,2024.2.4,130.5208695737898,2025-03-07 11h45.03.653244 +0700,
1,41,1,word/wordth0411.png,image/True/img41.png,140,140,0,z,0.5326534000923857,None,0,140,140,140,456.88847949996125,,,,,,,458.37653020001017,457.87676160002593,457.88296059996355,457.88296059996355,458.37653020001017,458.37653020001017,458.37014479993377,459.5063710999675,459.5063710999675,z,0.5326534000923857,None,459.5063710999675,,,,,,,,PM_th,001,2025-03-07_11h44.49.352,MainFlow,2024.2.4,130.5208695737898,2025-03-07 11h45.03.653244 +0700,
1,50,1,word/wordth0501.png,image/True/img50.png,141,141,0,z,0.4104419000213966,None,0,141,141,141,460.0485464000376,,,,,,,461.538756199996,461.03850249992684,461.04516209999565,461.04516209999565,461.538756199996,461.538756199996,461.53224750002846,462.67690239998046,462.67690239998046,z,0.4104419000213966,None,462.67690239998046,,,,,,,,PM_th,001,2025-03-07_11h44.49.352,MainFlow,2024.2.4,130.5208695737898,2025-03-07 11h45.03.653244 +0700,
1,3,0,word/wordth0031.png,image/False/imgf03.png,142,142,0,x,0.5003294999478385,None,0,142,142,142,463.0965029000072,,,,,,,464.5860743999947,464.0856621999992,464.09222340001725,464.09222340001725,464.5860743999947,464.5860743999947,464.57951239997055,465.7152270999504,465.7152270999504,x,0.5003294999478385,None,465.7152270999504,,,,,,,,PM_th,001,2025-03-07_11h44.49.352,MainFlow,2024.2.4,130.5208695737898,2025-03-07 11h45.03.653244 +0700,
1,78,1,word/wordth0781.png,image/True/img78.png,143,143,0,z,0.2996936999261379,None,0,143,143,143,466.2231078000041,,,,,,,467.71141470002476,467.2118530999869,467.21804379997775,467.21804379997775,467.71141470002476,467.71141470002476,467.70515279995743,468.8326512000058,468.8326512000058,z,0.2996936999261379,None,468.8326512000058,,,,,,,,PM_th,001,2025-03-07_11h44.49.352,MainFlow,2024.2.4,130.5208695737898,2025-03-07 11h45.03.653244 +0700,
1,76,0,word/wordth0761.png,image/False/imgf76.png,144,144,0,x,0.5241924000438303,None,0,144,144,144,469.14390709996223,,,,,,,470.6343300000299,470.1335123999743,470.1409858999541,470.1409858999541,470.6343300000299,470.6343300000299,470.62751669995487,471.7764611999737,471.7764611999737,x,0.5241924000438303,None,471.7764611999737,,,,,,,,PM_th,001,2025-03-07_11h44.49.352,MainFlow,2024.2.4,130.5208695737898,2025-03-07 11h45.03.653244 +0700,
1,6,1,word/wordth0061.png,image/True/img06.png,145,145,0,z,0.5013794000260532,None,0,145,145,145,472.31115319998935,,,,,,,473.79982019995805,473.2999792000046,473.3062571999617,473.3062571999617,473.79982019995805,473.79982019995805,473.7935597000178,474.95228480000515,474.95228480000515,z,0.5013794000260532,None,474.95228480000515,,,,,,,,PM_th,001,2025-03-07_11h44.49.352,MainFlow,2024.2.4,130.5208695737898,2025-03-07 11h45.03.653244 +0700,
1,31,0,word/wordth0311.png,image/False/imgf31.png,146,146,0,x,0.48548030003439635,None,0,146,146,146,475.46589220000897,,,,,,,476.9552328999853,476.4555560000008,476.4615423999494,476.4615423999494,476.9552328999853,476.9552328999853,476.9488414999796,478.0762284999946,478.0762284999946,x,0.48548030003439635,None,478.0762284999946,,,,,,,,PM_th,001,2025-03-07_11h44.49.352,MainFlow,2024.2.4,130.5208695737898,2025-03-07 11h45.03.653244 +0700,
1,22,0,word/wordth0221.png,image/False/imgf22.png,147,147,0,x,0.4689112000633031,None,0,147,147,147,478.5750178999733,,,,,,,480.0642127000028,479.56408119993284,479.5704038999975,479.5704038999975,480.0642127000028,480.0642127000028,480.05757239996456,481.2048649999779,481.2048649999779,x,0.4689112000633031,None,481.2048649999779,,,,,,,,PM_th,001,2025-03-07_11h44.49.352,MainFlow,2024.2.4,130.5208695737898,2025-03-07 11h45.03.653244 +0700,
1,28,0,word/wordth0281.png,image/False/imgf28.png,148,148,0,x,0.4892248000251129,None,0,148,148,148,481.68432999996,,,,,,,483.17413669999223,482.67392319999635,482.6801234999439,482.6801234999439,483.17413669999223,483.17413669999223,483.16753790003713,484.3029850999592,484.3029850999592,x,0.4892248000251129,None,484.3029850999592,,,,,,,,PM_th,001,2025-03-07_11h44.49.352,MainFlow,2024.2.4,130.5208695737898,2025-03-07 11h45.03.653244 +0700,
1,57,0,word/wordth0571.png,image/False/imgf57.png,149,149,0,x,1.0168891999637708,None,0,149,149,149,484.80409260001034,,,,,,,486.2927625000011,485.7933725999901,485.7993089000229,485.7993089000229,486.2927625000011,486.2927625000011,486.28642130002845,487.40841249993537,487.40841249993537,x,1.0168891999637708,None,487.40841249993537,,,,,,,,PM_th,001,2025-03-07_11h44.49.352,MainFlow,2024.2.4,130.5208695737898,2025-03-07 11h45.03.653244 +0700,
1,7,0,word/wordth0071.png,image/False/imgf07.png,150,150,0,x,0.5030864999862388,None,0,150,150,150,488.4331647999352,,,,,,,489.9221010999754,489.42187149997335,489.42857170000207,489.42857170000207,489.9221010999754,489.9221010999754,489.91586910001934,491.04457839997485,491.04457839997485,x,0.5030864999862388,None,491.04457839997485,,,,,,,,PM_th,001,2025-03-07_11h44.49.352,MainFlow,2024.2.4,130.5208695737898,2025-03-07 11h45.03.653244 +0700,
1,56,1,word/wordth0561.png,image/True/img56.png,151,151,0,z,0.3587927999906242,None,0,151,151,151,491.55742420000024,,,,,,,493.0468674999429,492.54682309995405,492.55390109994914,492.55390109994914,493.0468674999429,493.0468674999429,493.04046229994856,494.1610327999806,494.1610327999806,z,0.3587927999906242,None,494.1610327999806,,,,,,,,PM_th,001,2025-03-07_11h44.49.352,MainFlow,2024.2.4,130.5208695737898,2025-03-07 11h45.03.653244 +0700,
1,6,0,word/wordth0061.png,image/False/imgf06.png,152,152,0,x,0.5124162000138313,None,0,152,152,152,494.5273689000169,,,,,,,496.0156299000373,495.5157352000242,495.5225875999313,495.5225875999313,496.0156299000373,496.0156299000373,496.00929700001143,497.11644070001785,497.11644070001785,x,0.5124162000138313,None,497.11644070001785,,,,,,,,PM_th,001,2025-03-07_11h44.49.352,MainFlow,2024.2.4,130.5208695737898,2025-03-07 11h45.03.653244 +0700,
1,36,0,word/wordth0361.png,image/False/imgf36.png,153,153,0,x,0.909679599921219,None,0,153,153,153,497.6365973999491,,,,,,,499.12584250001237,498.6254178000381,498.63179270003457,498.63179270003457,499.12584250001237,499.12584250001237,499.1187431999715,500.2405334999785,500.2405334999785,x,0.909679599921219,None,500.2405334999785,,,,,,,,PM_th,001,2025-03-07_11h44.49.352,MainFlow,2024.2.4,130.5208695737898,2025-03-07 11h45.03.653244 +0700,
1,79,1,word/wordth0791.png,image/True/img79.png,154,154,0,z,0.3353997999802232,None,0,154,154,154,501.1612937999889,,,,,,,502.6496997999493,502.1499409000389,502.155966399936,502.155966399936,502.6496997999493,502.6496997999493,502.642888900009,503.77361279993784,503.77361279993784,z,0.3353997999802232,None,503.77361279993784,,,,,,,,PM_th,001,2025-03-07_11h44.49.352,MainFlow,2024.2.4,130.5208695737898,2025-03-07 11h45.03.653244 +0700,
1,52,0,word/wordth0521.png,image/False/imgf52.png,155,155,0,x,0.5435694999760017,None,0,155,155,155,504.12006180000026,,,,,,,505.60777949995827,505.1079727000324,505.1142691000132,505.1142691000132,505.60777949995827,505.60777949995827,505.60140349995345,506.7280591999879,506.7280591999879,x,0.5435694999760017,None,506.7280591999879,,,,,,,,PM_th,001,2025-03-07_11h44.49.352,MainFlow,2024.2.4,130.5208695737898,2025-03-07 11h45.03.653244 +0700,
1,18,0,word/wordth0181.png,image/False/imgf18.png,156,156,0,x,0.5759793999604881,None,0,156,156,156,507.2820464000106,,,,,,,508.77212049998343,508.27252330002375,508.2788242000388,508.2788242000388,508.77212049998343,508.77212049998343,508.7658647999633,509.90866840002127,509.90866840002127,x,0.5759793999604881,None,509.90866840002127,,,,,,,,PM_th,001,2025-03-07_11h44.49.352,MainFlow,2024.2.4,130.5208695737898,2025-03-07 11h45.03.653244 +0700,
1,23,1,word/wordth0231.png,image/True/img23.png,157,157,0,z,0.42894260003231466,None,0,157,157,157,510.4964057999896,,,,,,,511.9843348999275,511.4844695000211,511.4911755999783,511.4911755999783,511.9843348999275,511.9843348999275,511.97860649996437,513.1026679000352,513.1026679000352,z,0.42894260003231466,None,513.1026679000352,,,,,,,,PM_th,001,2025-03-07_11h44.49.352,MainFlow,2024.2.4,130.5208695737898,2025-03-07 11h45.03.653244 +0700,
1,61,1,word/wordth0611.png,image/True/img61.png,158,158,0,z,0.3338518999516964,None,0,158,158,158,513.5417153999442,,,,,,,515.0315560000017,514.5319973999867,514.5388737999601,514.5388737999601,515.0315560000017,515.0315560000017,515.0254608000396,516.1512465999695,516.1512465999695,z,0.3338518999516964,None,516.1512465999695,,,,,,,,PM_th,001,2025-03-07_11h44.49.352,MainFlow,2024.2.4,130.5208695737898,2025-03-07 11h45.03.653244 +0700,
1,44,1,word/wordth0441.png,image/True/img44.png,159,159,0,z,1.1245096999919042,None,0,159,159,159,516.4973497999599,,,,,,,517.9874192000134,517.487752999994,517.494280599989,517.494280599989,517.9874192000134,517.9874192000134,517.9819747000001,519.0985883999383,519.0985883999383,z,1.1245096999919042,None,519.0985883999383,,,,,,,,PM_th,001,2025-03-07_11h44.49.352,MainFlow,2024.2.4,130.5208695737898,2025-03-07 11h45.03.653244 +0700,
1,10,1,word/wordth0101.png,image/True/img10.png,160,160,0,z,0.5436246000463143,None,0,160,160,160,520.2368556000292,,,,,,,521.7267388999462,521.2274913999718,521.233464699937,521.233464699937,521.7267388999462,521.7267388999462,521.7205789999571,522.8424454999622,522.8424454999622,z,0.5436246000463143,None,522.8424454999622,,,,,,,,PM_th,001,2025-03-07_11h44.49.352,MainFlow,2024.2.4,130.5208695737898,2025-03-07 11h45.03.653244 +0700,
1,31,1,word/wordth0311.png,image/True/img31.png,161,161,0,z,0.3155753999017179,None,0,161,161,161,523.3947162999539,,,,,,,524.8830247999867,524.3835146999918,524.3896200000308,524.3896200000308,524.8830247999867,524.8830247999867,524.877289099968,525.9977960999822,525.9977960999822,z,0.3155753999017179,None,525.9977960999822,,,,,,,,PM_th,001,2025-03-07_11h44.49.352,MainFlow,2024.2.4,130.5208695737898,2025-03-07 11h45.03.653244 +0700,
1,14,0,word/wordth0141.png,image/False/imgf14.png,162,162,0,x,0.47268799995072186,None,0,162,162,162,526.3219771999866,,,,,,,527.8120310000377,527.3113246000139,527.3176997000119,527.3176997000119,527.8120310000377,527.8120310000377,527.8049238999374,528.9347015999956,528.9347015999956,x,0.47268799995072186,None,528.9347015999956,,,,,,,,PM_th,001,2025-03-07_11h44.49.352,MainFlow,2024.2.4,130.5208695737898,2025-03-07 11h45.03.653244 +0700,
1,15,0,word/wordth0151.png,image/False/imgf15.png,163,163,0,x,0.5446054000640288,None,0,163,163,163,529.4201490000123,,,,,,,530.909638699959,530.4089471999323,530.415547600016,530.415547600016,530.909638699959,530.909638699959,530.9027059000218,532.0490419999696,532.0490419999696,x,0.5446054000640288,None,532.0490419999696,,,,,,,,PM_th,001,2025-03-07_11h44.49.352,MainFlow,2024.2.4,130.5208695737898,2025-03-07 11h45.03.653244 +0700,
1,51,1,word/wordth0511.png,image/True/img51.png,164,164,0,z,0.4830108000896871,None,0,164,164,164,532.6059530000202,,,,,,,534.0956630000146,533.5954110999592,533.6020940999733,533.6020940999733,534.0956630000146,534.0956630000146,534.0889994000318,535.224038299988,535.224038299988,z,0.4830108000896871,None,535.224038299988,,,,,,,,PM_th,001,2025-03-07_11h44.49.352,MainFlow,2024.2.4,130.5208695737898,2025-03-07 11h45.03.653244 +0700,
1,82,1,word/wordth0821.png,image/True/img82.png,165,165,0,z,0.8769916000310332,None,0,165,165,165,535.7189294999698,,,,,,,537.2089001999702,536.7092983999755,536.7158887999831,536.7158887999831,537.2089001999702,537.2089001999702,537.2029556999914,538.312526499969,538.312526499969,z,0.8769916000310332,None,538.312526499969,,,,,,,,PM_th,001,2025-03-07_11h44.49.352,MainFlow,2024.2.4,130.5208695737898,2025-03-07 11h45.03.653244 +0700,
1,27,0,word/wordth0271.png,image/False/imgf27.png,166,166,0,x,0.5797687000595033,None,0,166,166,166,539.1993999000406,,,,,,,540.6882235000376,540.1886397999479,540.1945887999609,540.1945887999609,540.6882235000376,540.6882235000376,540.6817216000054,541.8031760000158,541.8031760000158,x,0.5797687000595033,None,541.8031760000158,,,,,,,,PM_th,001,2025-03-07_11h44.49.352,MainFlow,2024.2.4,130.5208695737898,2025-03-07 11h45.03.653244 +0700,
1,78,0,word/wordth0781.png,image/False/imgf78.png,167,167,0,x,0.4782153000123799,None,0,167,167,167,542.3908464999404,,,,,,,543.8793166000396,543.3794896999607,543.3858775999397,543.3858775999397,543.8793166000396,543.8793166000396,543.8727593999356,544.9815358000342,544.9815358000342,x,0.4782153000123799,None,544.9815358000342,,,,,,,,PM_th,001,2025-03-07_11h44.49.352,MainFlow,2024.2.4,130.5208695737898,2025-03-07 11h45.03.653244 +0700,
1,89,1,word/wordth0891.png,image/True/img89.png,168,168,0,z,0.4271199000068009,None,0,168,168,168,545.4673119999934,,,,,,,546.9555696999887,546.4559600999346,546.4618763999315,546.4618763999315,546.9555696999887,546.9555696999887,546.9486719999695,548.0506846000208,548.0506846000208,z,0.4271199000068009,None,548.0506846000208,,,,,,,,PM_th,001,2025-03-07_11h44.49.352,MainFlow,2024.2.4,130.5208695737898,2025-03-07 11h45.03.653244 +0700,
1,76,1,word/wordth0761.png,image/True/img76.png,169,169,0,z,0.4903142999392003,None,0,169,169,169,548.4895627000369,,,,,,,549.9787007999839,549.4790711000096,549.4851945999544,549.4851945999544,549.9787007999839,549.9787007999839,549.9725985999685,551.0948211000068,551.0948211000068,z,0.4903142999392003,None,551.0948211000068,,,,,,,,PM_th,001,2025-03-07_11h44.49.352,MainFlow,2024.2.4,130.5208695737898,2025-03-07 11h45.03.653244 +0700,
1,17,0,word/wordth0171.png,image/False/imgf17.png,170,170,0,x,0.467828500084579,None,0,170,170,170,551.5985104999272,,,,,,,553.0876098999288,552.5872735999292,552.593299399945,552.593299399945,553.0876098999288,553.0876098999288,553.0821031000232,554.2156918999972,554.2156918999972,x,0.467828500084579,None,554.2156918999972,,,,,,,,PM_th,001,2025-03-07_11h44.49.352,MainFlow,2024.2.4,130.5208695737898,2025-03-07 11h45.03.653244 +0700,
1,95,1,word/wordth0951.png,image/True/img95.png,171,171,0,z,0.31021979998331517,None,0,171,171,171,554.6965660999995,,,,,,,556.1867743999464,555.6865533000091,555.6931073999731,555.6931073999731,556.1867743999464,556.1867743999464,556.1800357999746,557.33054669993,557.33054669993,z,0.31021979998331517,None,557.33054669993,,,,,,,,PM_th,001,2025-03-07_11h44.49.352,MainFlow,2024.2.4,130.5208695737898,2025-03-07 11h45.03.653244 +0700,
1,61,0,word/wordth0611.png,image/False/imgf61.png,172,172,0,x,1.232704499969259,None,0,172,172,172,557.6487037999323,,,,,,,559.1373093000147,558.6377454999601,558.6437816999387,558.6437816999387,559.1373093000147,559.1373093000147,559.1311964000342,560.2710781999631,560.2710781999631,x,1.232704499969259,None,560.2710781999631,,,,,,,,PM_th,001,2025-03-07_11h44.49.352,MainFlow,2024.2.4,130.5208695737898,2025-03-07 11h45.03.653244 +0700,
1,82,1,word/wordth0821.png,image/True/img82.png,173,173,0,z,0.5645959000103176,None,0,173,173,173,561.5130946999416,,,,,,,563.001139299944,562.5013397999573,562.507420699927,562.507420699927,563.001139299944,563.001139299944,562.9944900999544,564.0967396999476,564.0967396999476,z,0.5645959000103176,None,564.0967396999476,,,,,,,,PM_th,001,2025-03-07_11h44.49.352,MainFlow,2024.2.4,130.5208695737898,2025-03-07 11h45.03.653244 +0700,
1,14,1,word/wordth0141.png,image/True/img14.png,174,174,0,z,0.31011449999641627,None,0,174,174,174,564.674211799982,,,,,,,566.1619345999788,565.6624170999276,565.6685755000217,565.6685755000217,566.1619345999788,566.1619345999788,566.1555780000053,567.3086557999486,567.3086557999486,z,0.31011449999641627,None,567.3086557999486,,,,,,,,PM_th,001,2025-03-07_11h44.49.352,MainFlow,2024.2.4,130.5208695737898,2025-03-07 11h45.03.653244 +0700,
1,38,0,word/wordth0381.png,image/False/imgf38.png,175,175,0,x,0.3620332001009956,None,0,175,175,175,567.6260824999772,,,,,,,569.1162917999318,568.6174249999458,568.6237428999739,568.6237428999739,569.1162917999318,569.1162917999318,569.1101444000378,570.3088600999909,570.3088600999909,x,0.3620332001009956,None,570.3088600999909,,,,,,,,PM_th,001,2025-03-07_11h44.49.352,MainFlow,2024.2.4,130.5208695737898,2025-03-07 11h45.03.653244 +0700,
1,17,0,word/wordth0171.png,image/False/imgf17.png,176,176,0,x,0.6484008999541402,None,0,176,176,176,570.6801151999971,,,,,,,572.1704999000067,571.6714584999718,571.6780015999684,571.6780015999684,572.1704999000067,572.1704999000067,572.1645008999621,573.3261381000048,573.3261381000048,x,0.6484008999541402,None,573.3261381000048,,,,,,,,PM_th,001,2025-03-07_11h44.49.352,MainFlow,2024.2.4,130.5208695737898,2025-03-07 11h45.03.653244 +0700,
1,42,0,word/wordth0421.png,image/False/imgf42.png,177,177,0,x,0.6215564999729395,None,0,177,177,177,573.9854059999343,,,,,,,575.4755911999382,574.9759097000351,574.9824738999596,574.9824738999596,575.4755911999382,575.4755911999382,575.4691137999762,576.645134099992,576.645134099992,x,0.6215564999729395,None,576.645134099992,,,,,,,,PM_th,001,2025-03-07_11h44.49.352,MainFlow,2024.2.4,130.5208695737898,2025-03-07 11h45.03.653244 +0700,
1,24,1,word/wordth0241.png,image/True/img24.png,178,178,0,z,0.6097746000159532,None,0,178,178,178,577.2739399999846,,,,,,,578.7639206999447,578.2639863999793,578.270392299979,578.270392299979,578.7639206999447,578.7639206999447,578.7574658000376,579.8898515999317,579.8898515999317,z,0.6097746000159532,None,579.8898515999317,,,,,,,,PM_th,001,2025-03-07_11h44.49.352,MainFlow,2024.2.4,130.5208695737898,2025-03-07 11h45.03.653244 +0700,
1,51,1,word/wordth0511.png,image/True/img51.png,179,179,0,z,0.4551260999869555,None,0,179,179,179,580.5120112999575,,,,,,,582.0023087000009,581.5027536000125,581.5095117000164,581.5095117000164,582.0023087000009,582.0023087000009,581.9956025999272,583.1472476000199,583.1472476000199,z,0.4551260999869555,None,583.1472476000199,,,,,,,,PM_th,001,2025-03-07_11h44.49.352,MainFlow,2024.2.4,130.5208695737898,2025-03-07 11h45.03.653244 +0700,
1,24,0,word/wordth0241.png,image/False/imgf24.png,180,180,0,x,0.5091587000060827,None,0,180,180,180,583.6114858000074,,,,,,,585.1013465999858,584.6010016000364,584.6071620000293,584.6071620000293,585.1013465999858,585.1013465999858,585.0942400000058,586.2214793999447,586.2214793999447,x,0.5091587000060827,None,586.2214793999447,,,,,,,,PM_th,001,2025-03-07_11h44.49.352,MainFlow,2024.2.4,130.5208695737898,2025-03-07 11h45.03.653244 +0700,
1,23,0,word/wordth0231.png,image/False/imgf23.png,181,181,0,x,0.7664797999896109,None,0,181,181,181,586.7412365999771,,,,,,,588.2304274999769,587.7308639000403,587.7368660999928,587.7368660999928,588.2304274999769,588.2304274999769,588.2243730999762,589.4064174999949,589.4064174999949,x,0.7664797999896109,None,589.4064174999949,,,,,,,,PM_th,001,2025-03-07_11h44.49.352,MainFlow,2024.2.4,130.5208695737898,2025-03-07 11h45.03.653244 +0700,
1,6,1,word/wordth0061.png,image/True/img06.png,182,182,0,z,0.4820225000148639,None,0,182,182,182,590.1835650999565,,,,,,,591.6728832999943,591.1735398999881,591.1794825999532,591.1794825999532,591.6728832999943,591.6728832999943,591.6669678000035,592.7944056999404,592.7944056999404,z,0.4820225000148639,None,592.7944056999404,,,,,,,,PM_th,001,2025-03-07_11h44.49.352,MainFlow,2024.2.4,130.5208695737898,2025-03-07 11h45.03.653244 +0700,
1,93,1,word/wordth0931.png,image/True/img93.png,183,183,0,z,0.5549690000480041,None,0,183,183,183,593.2862790999934,,,,,,,594.7757085999474,594.2759112999775,594.2821924999589,594.2821924999589,594.7757085999474,594.7757085999474,594.7693388999905,595.8887687999522,595.8887687999522,z,0.5549690000480041,None,595.8887687999522,,,,,,,,PM_th,001,2025-03-07_11h44.49.352,MainFlow,2024.2.4,130.5208695737898,2025-03-07 11h45.03.653244 +0700,
1,38,0,word/wordth0381.png,image/False/imgf38.png,184,184,0,x,0.4696901000570506,None,0,184,184,184,596.4578585999552,,,,,,,597.9471028000116,597.4473337000236,597.453385300003,597.453385300003,597.9471028000116,597.9471028000116,597.9404358000029,599.1014914000407,599.1014914000407,x,0.4696901000570506,None,599.1014914000407,,,,,,,,PM_th,001,2025-03-07_11h44.49.352,MainFlow,2024.2.4,130.5208695737898,2025-03-07 11h45.03.653244 +0700,
1,57,1,word/wordth0571.png,image/True/img57.png,185,185,0,z,0.39912329998333007,None,0,185,185,185,599.580271899933,,,,,,,601.0704822000116,600.5696895000292,600.576512199943,600.576512199943,601.0704822000116,601.0704822000116,601.063574800035,602.1953484999249,602.1953484999249,z,0.39912329998333007,None,602.1953484999249,,,,,,,,PM_th,001,2025-03-07_11h44.49.352,MainFlow,2024.2.4,130.5208695737898,2025-03-07 11h45.03.653244 +0700,
1,40,1,word/wordth0401.png,image/True/img40.png,186,186,0,z,0.5813656999962404,None,0,186,186,186,602.6032709999708,,,,,,,604.0932865999639,603.5930587999756,603.5993692999473,603.5993692999473,604.0932865999639,604.0932865999639,604.086822399986,605.2455055000028,605.2455055000028,z,0.5813656999962404,None,605.2455055000028,,,,,,,,PM_th,001,2025-03-07_11h44.49.352,MainFlow,2024.2.4,130.5208695737898,2025-03-07 11h45.03.653244 +0700,
1,50,0,word/wordth0501.png,image/False/imgf50.png,187,187,0,x,0.944016300025396,None,0,187,187,187,605.8360160000157,,,,,,,607.3247828999301,606.8251328000333,606.8312475000275,606.8312475000275,607.3247828999301,607.3247828999301,607.31826119998,608.4509783999529,608.4509783999529,x,0.944016300025396,None,608.4509783999529,,,,,,,,PM_th,001,2025-03-07_11h44.49.352,MainFlow,2024.2.4,130.5208695737898,2025-03-07 11h45.03.653244 +0700,
1,66,0,word/wordth0661.png,image/False/imgf66.png,188,188,0,x,0.48504610010422766,None,0,188,188,188,609.4066464999923,,,,,,,610.8957713999553,610.3961230999557,610.4020451999968,610.4020451999968,610.8957713999553,610.8957713999553,610.8892168999882,612.0220327000134,612.0220327000134,x,0.48504610010422766,None,612.0220327000134,,,,,,,,PM_th,001,2025-03-07_11h44.49.352,MainFlow,2024.2.4,130.5208695737898,2025-03-07 11h45.03.653244 +0700,
1,44,0,word/wordth0441.png,image/False/imgf44.png,189,189,0,x,0.49917049997020513,None,0,189,189,189,612.5194573999615,,,,,,,614.013319700025,613.5133576999651,613.5199371000053,613.5199371000053,614.013319700025,614.013319700025,614.0071707000025,615.171175000025,615.171175000025,x,0.49917049997020513,None,615.171175000025,,,,,,,,PM_th,001,2025-03-07_11h44.49.352,MainFlow,2024.2.4,130.5208695737898,2025-03-07 11h45.03.653244 +0700,
1,75,0,word/wordth0751.png,image/False/imgf75.png,190,190,0,x,0.5636906999861822,None,0,190,190,190,615.6828410000307,,,,,,,617.1716722999699,616.6722037999425,616.678181199939,616.678181199939,617.1716722999699,617.1716722999699,617.1651979000308,618.3020080999704,618.3020080999704,x,0.5636906999861822,None,618.3020080999704,,,,,,,,PM_th,001,2025-03-07_11h44.49.352,MainFlow,2024.2.4,130.5208695737898,2025-03-07 11h45.03.653244 +0700,
1,31,0,word/wordth0311.png,image/False/imgf31.png,191,191,0,x,0.486723400070332,None,0,191,191,191,618.8785448999843,,,,,,,620.3686427000212,619.8689519999316,619.8752796000335,619.8752796000335,620.3686427000212,620.3686427000212,620.36238029995,621.4696509999922,621.4696509999922,x,0.486723400070332,None,621.4696509999922,,,,,,,,PM_th,001,2025-03-07_11h44.49.352,MainFlow,2024.2.4,130.5208695737898,2025-03-07 11h45.03.653244 +0700,
1,87,1,word/wordth0871.png,image/True/img87.png,192,192,0,z,0.6613883000100031,None,0,192,192,192,621.9690183999483,,,,,,,623.4577102999901,622.9583427000325,622.9642849999946,622.9642849999946,623.4577102999901,623.4577102999901,623.4512604000047,624.6002400999423,624.6002400999423,z,0.6613883000100031,None,624.6002400999423,,,,,,,,PM_th,001,2025-03-07_11h44.49.352,MainFlow,2024.2.4,130.5208695737898,2025-03-07 11h45.03.653244 +0700,
1,33,1,word/wordth0331.png,image/True/img33.png,193,193,0,z,0.3945512999780476,None,0,193,193,193,625.2734273000387,,,,,,,626.762555000023,626.2625757999485,626.2686944999732,626.2686944999732,626.762555000023,626.762555000023,626.7560337999603,627.9088140999665,627.9088140999665,z,0.3945512999780476,None,627.9088140999665,,,,,,,,PM_th,001,2025-03-07_11h44.49.352,MainFlow,2024.2.4,130.5208695737898,2025-03-07 11h45.03.653244 +0700,
1,70,0,word/wordth0701.png,image/False/imgf70.png,194,194,0,x,0.5746513999765739,None,0,194,194,194,628.3165815999964,,,,,,,629.8067039999878,629.3078562000301,629.3140280999942,629.3140280999942,629.8067039999878,629.8067039999878,629.8004641999723,630.9292847999604,630.9292847999604,x,0.5746513999765739,None,630.9292847999604,,,,,,,,PM_th,001,2025-03-07_11h44.49.352,MainFlow,2024.2.4,130.5208695737898,2025-03-07 11h45.03.653244 +0700,
1,27,1,word/wordth0271.png,image/True/img27.png,195,195,0,z,0.7119500000262633,None,0,195,195,195,631.5119543999899,,,,,,,633.001910299994,632.5023379999911,632.5085054000374,632.5085054000374,633.001910299994,633.001910299994,632.9952241999563,634.1306279000128,634.1306279000128,z,0.7119500000262633,None,634.1306279000128,,,,,,,,PM_th,001,2025-03-07_11h44.49.352,MainFlow,2024.2.4,130.5208695737898,2025-03-07 11h45.03.653244 +0700,
1,88,1,word/wordth0881.png,image/True/img88.png,196,196,0,z,0.6156591000035405,None,0,196,196,196,634.854399099946,,,,,,,636.3437238000333,635.8440879000118,635.8501439000247,635.8501439000247,636.3437238000333,636.3437238000333,636.3376282999525,637.4943695999682,637.4943695999682,z,0.6156591000035405,None,637.4943695999682,,,,,,,,PM_th,001,2025-03-07_11h44.49.352,MainFlow,2024.2.4,130.5208695737898,2025-03-07 11h45.03.653244 +0700,
1,87,0,word/wordth0871.png,image/False/imgf87.png,197,197,0,x,0.5943019000114873,None,0,197,197,197,638.1206781000365,,,,,,,639.6106470000232,639.1117292999988,639.1181291999528,639.1181291999528,639.6106470000232,639.6106470000232,639.6041687999386,640.7974951999495,640.7974951999495,x,0.5943019000114873,None,640.7974951999495,,,,,,,,PM_th,001,2025-03-07_11h44.49.352,MainFlow,2024.2.4,130.5208695737898,2025-03-07 11h45.03.653244 +0700,
1,11,1,word/wordth0111.png,image/True/img11.png,198,198,0,z,0.7583820999134332,None,0,198,198,198,641.4007109999657,,,,,,,642.8904509999556,642.3904029999394,642.3967435000231,642.3967435000231,642.8904509999556,642.8904509999556,642.8839569999836,644.0513443000382,644.0513443000382,z,0.7583820999134332,None,644.0513443000382,,,,,,,,PM_th,001,2025-03-07_11h44.49.352,MainFlow,2024.2.4,130.5208695737898,2025-03-07 11h45.03.653244 +0700,
1,61,0,word/wordth0611.png,image/False/imgf61.png,199,199,0,x,0.7120059999870136,None,0,199,199,199,644.8167009999743,,,,,,,646.3069988000207,645.8068106999854,645.8138799000299,645.8138799000299,646.3069988000207,646.3069988000207,646.300594600034,647.4560029000277,647.4560029000277,x,0.7120059999870136,None,647.4560029000277,,,,,,,,PM_th,001,2025-03-07_11h44.49.352,MainFlow,2024.2.4,130.5208695737898,2025-03-07 11h45.03.653244 +0700,
1,15,1,word/wordth0151.png,image/True/img15.png,200,200,0,z,0.37184060004074126,None,0,200,200,200,648.1752440999262,,,,,,,649.664397399989,649.1641111000208,649.1705633000238,649.1705633000238,649.664397399989,649.664397399989,649.6578877000138,650.8134369000327,650.8134369000327,z,0.37184060004074126,None,650.8134369000327,,,,,,,,PM_th,001,2025-03-07_11h44.49.352,MainFlow,2024.2.4,130.5208695737898,2025-03-07 11h45.03.653244 +0700,
1,16,0,word/wordth0161.png,image/False/imgf16.png,201,201,0,x,0.4685330999782309,None,0,201,201,201,651.1976728999289,,,,,,,652.6867756999563,652.1873594999779,652.1932041000109,652.1932041000109,652.6867756999563,652.6867756999563,652.6810229999246,653.8248756999383,653.8248756999383,x,0.4685330999782309,None,653.8248756999383,,,,,,,,PM_th,001,2025-03-07_11h44.49.352,MainFlow,2024.2.4,130.5208695737898,2025-03-07 11h45.03.653244 +0700,
1,63,0,word/wordth0631.png,image/False/imgf63.png,202,202,0,x,0.427010599989444,None,0,202,202,202,654.3029041999253,,,,,,,655.7887406999944,655.2892042000312,655.2951314999955,655.2951314999955,655.7887406999944,655.7887406999944,655.7827276999597,656.9291455999482,656.9291455999482,x,0.427010599989444,None,656.9291455999482,,,,,,,,PM_th,001,2025-03-07_11h44.49.352,MainFlow,2024.2.4,130.5208695737898,2025-03-07 11h45.03.653244 +0700,
1,28,1,word/wordth0281.png,image/True/img28.png,203,203,0,z,0.5660705999471247,None,0,203,203,203,657.3673926999327,,,,,,,658.8565571999643,658.3567696999526,658.3632780000335,658.3632780000335,658.8565571999643,658.8565571999643,658.8506091999589,659.9914739000378,659.9914739000378,z,0.5660705999471247,None,659.9914739000378,,,,,,,,PM_th,001,2025-03-07_11h44.49.352,MainFlow,2024.2.4,130.5208695737898,2025-03-07 11h45.03.653244 +0700,
1,89,1,word/wordth0891.png,image/True/img89.png,204,204,0,z,0.5071401000022888,None,0,204,204,204,660.5668150000274,,,,,,,662.0556359000038,661.5559594000224,661.5621490000049,661.5621490000049,662.0556359000038,662.0556359000038,662.0495633999817,663.1438547000289,663.1438547000289,z,0.5071401000022888,None,663.1438547000289,,,,,,,,PM_th,001,2025-03-07_11h44.49.352,MainFlow,2024.2.4,130.5208695737898,2025-03-07 11h45.03.653244 +0700,
1,76,0,word/wordth0761.png,image/False/imgf76.png,205,205,0,x,0.5201364000095055,None,0,205,205,205,663.664222399937,,,,,,,665.1526593000162,664.6529454999836,664.6590261999518,664.6590261999518,665.1526593000162,665.1526593000162,665.1469358999748,666.2934648999944,666.2934648999944,x,0.5201364000095055,None,666.2934648999944,,,,,,,,PM_th,001,2025-03-07_11h44.49.352,MainFlow,2024.2.4,130.5208695737898,2025-03-07 11h45.03.653244 +0700,
1,51,0,word/wordth0511.png,image/False/imgf51.png,206,206,0,x,0.442628699936904,None,0,206,206,206,666.8216147000203,,,,,,,668.309542599949,667.8099056000356,667.8160811000271,667.8160811000271,668.309542599949,668.309542599949,668.3031593000051,669.4086853000335,669.4086853000335,x,0.442628699936904,None,669.4086853000335,,,,,,,,PM_th,001,2025-03-07_11h44.49.352,MainFlow,2024.2.4,130.5208695737898,2025-03-07 11h45.03.653244 +0700,
1,26,0,word/wordth0261.png,image/False/imgf26.png,207,207,0,x,0.501583700068295,None,0,207,207,207,669.8592900999356,,,,,,,671.3474032999948,670.8475917000324,670.8536653999472,670.8536653999472,671.3474032999948,671.3474032999948,671.3406586999772,672.4724748999579,672.4724748999579,x,0.501583700068295,None,672.4724748999579,,,,,,,,PM_th,001,2025-03-07_11h44.49.352,MainFlow,2024.2.4,130.5208695737898,2025-03-07 11h45.03.653244 +0700,
1,16,1,word/wordth0161.png,image/True/img16.png,208,208,0,z,0.9668859000084922,None,0,208,208,208,672.9840412000194,,,,,,,674.4751844999846,673.975701999967,673.9816968999803,673.9816968999803,674.4751844999846,674.4751844999846,674.4687275999459,675.6044602999464,675.6044602999464,z,0.9668859000084922,None,675.6044602999464,,,,,,,,PM_th,001,2025-03-07_11h44.49.352,MainFlow,2024.2.4,130.5208695737898,2025-03-07 11h45.03.653244 +0700,
1,64,1,word/wordth0641.png,image/True/img64.png,209,209,0,z,0.2785719999810681,None,0,209,209,209,676.5853399999905,,,,,,,678.0754177999916,677.5756893999642,677.5818832999794,677.5818832999794,678.0754177999916,678.0754177999916,678.0683449000353,679.1608504999895,679.1608504999895,z,0.2785719999810681,None,679.1608504999895,,,,,,,,PM_th,001,2025-03-07_11h44.49.352,MainFlow,2024.2.4,130.5208695737898,2025-03-07 11h45.03.653244 +0700,
1,7,1,word/wordth0071.png,image/True/img07.png,210,210,0,z,1.3231009999290109,None,0,210,210,210,679.452566599939,,,,,,,680.9418250999879,680.4416341999313,680.4482833000366,680.4482833000366,680.9418250999879,680.9418250999879,680.9352855000179,682.0544009000296,682.0544009000296,z,1.3231009999290109,None,682.0544009000296,,,,,,,,PM_th,001,2025-03-07_11h44.49.352,MainFlow,2024.2.4,130.5208695737898,2025-03-07 11h45.03.653244 +0700,
1,10,0,word/wordth0101.png,image/False/imgf10.png,211,211,0,x,0.45934859989210963,None,0,211,211,211,683.3870078999316,,,,,,,684.8762378999963,684.3761105999583,684.3831758999731,684.3831758999731,684.8762378999963,684.8762378999963,684.8699913999299,685.9846415999345,685.9846415999345,x,0.45934859989210963,None,685.9846415999345,,,,,,,,PM_th,001,2025-03-07_11h44.49.352,MainFlow,2024.2.4,130.5208695737898,2025-03-07 11h45.03.653244 +0700,
1,22,1,word/wordth0221.png,image/True/img22.png,212,212,0,z,0.3868131000781432,None,0,212,212,212,686.4564533999655,,,,,,,687.9470155999297,687.4471521000378,687.4536672999384,687.4536672999384,687.9470155999297,687.9470155999297,687.940303200041,689.0854014999932,689.0854014999932,z,0.3868131000781432,None,689.0854014999932,,,,,,,,PM_th,001,2025-03-07_11h44.49.352,MainFlow,2024.2.4,130.5208695737898,2025-03-07 11h45.03.653244 +0700,
1,40,1,word/wordth0401.png,image/True/img40.png,213,213,0,z,0.2741463000420481,None,0,213,213,213,689.4834852999775,,,,,,,690.9715318999952,690.4717358000344,690.4780717999674,690.4780717999674,690.9715318999952,690.9715318999952,690.9651545999805,692.1214174999623,692.1214174999623,z,0.2741463000420481,None,692.1214174999623,,,,,,,,PM_th,001,2025-03-07_11h44.49.352,MainFlow,2024.2.4,130.5208695737898,2025-03-07 11h45.03.653244 +0700,
1,57,0,word/wordth0571.png,image/False/imgf57.png,214,214,0,x,0.6721568000502884,None,0,214,214,214,692.4085289000068,,,,,,,693.8965209999587,693.3967765999259,693.4030223999871,693.4030223999871,693.8965209999587,693.8965209999587,693.8900943000335,695.0154915000312,695.0154915000312,x,0.6721568000502884,None,695.0154915000312,,,,,,,,PM_th,001,2025-03-07_11h44.49.352,MainFlow,2024.2.4,130.5208695737898,2025-03-07 11h45.03.653244 +0700,
1,50,1,word/wordth0501.png,image/True/img50.png,215,215,0,z,0.5376888999016955,None,0,215,215,215,695.6955150000285,,,,,,,697.1852089000167,696.6844414999941,696.6909768999321,696.6909768999321,697.1852089000167,697.1852089000167,697.1779938000254,698.3029896999942,698.3029896999942,z,0.5376888999016955,None,698.3029896999942,,,,,,,,PM_th,001,2025-03-07_11h44.49.352,MainFlow,2024.2.4,130.5208695737898,2025-03-07 11h45.03.653244 +0700,
1,64,0,word/wordth0641.png,image/False/imgf64.png,216,216,0,x,0.5833082000026479,None,0,216,216,216,698.8517748999875,,,,,,,700.3401245999848,699.8403761000372,699.8465757999802,699.8465757999802,700.3401245999848,700.3401245999848,700.3340473999269,701.4240199000342,701.4240199000342,x,0.5833082000026479,None,701.4240199000342,,,,,,,,PM_th,001,2025-03-07_11h44.49.352,MainFlow,2024.2.4,130.5208695737898,2025-03-07 11h45.03.653244 +0700,
1,42,1,word/wordth0421.png,image/True/img42.png,217,217,0,z,0.32842250005342066,None,0,217,217,217,702.0162669999991,,,,,,,703.5060867000138,703.0062056999886,703.0123353999807,703.0123353999807,703.5060867000138,703.5060867000138,703.4995047999546,704.6223563000094,704.6223563000094,z,0.32842250005342066,None,704.6223563000094,,,,,,,,PM_th,001,2025-03-07_11h44.49.352,MainFlow,2024.2.4,130.5208695737898,2025-03-07 11h45.03.653244 +0700,
1,56,0,word/wordth0561.png,image/False/imgf56.png,218,218,0,x,0.35319589998107404,None,0,218,218,218,704.9588177000405,,,,,,,706.4486891999841,705.9501549999695,705.9570204999764,705.9570204999764,706.4486891999841,706.4486891999841,706.4427605000092,707.6000796000008,707.6000796000008,x,0.35319589998107404,None,707.6000796000008,,,,,,,,PM_th,001,2025-03-07_11h44.49.352,MainFlow,2024.2.4,130.5208695737898,2025-03-07 11h45.03.653244 +0700,
1,22,1,word/wordth0221.png,image/True/img22.png,219,219,0,z,0.27290420001372695,None,0,219,219,219,707.961817799951,,,,,,,709.4501032000408,708.950313600013,708.9564981999574,708.9564981999574,709.4501032000408,709.4501032000408,709.443634300027,710.5883409000235,710.5883409000235,z,0.27290420001372695,None,710.5883409000235,,,,,,,,PM_th,001,2025-03-07_11h44.49.352,MainFlow,2024.2.4,130.5208695737898,2025-03-07 11h45.03.653244 +0700,
1,82,0,word/wordth0821.png,image/False/imgf82.png,220,220,0,x,0.3914694000268355,None,0,220,220,220,710.8690695000114,,,,,,,712.356768699945,711.8573560999939,711.8633745999541,711.8633745999541,712.356768699945,712.356768699945,712.3503591000335,713.4727885000175,713.4727885000175,x,0.3914694000268355,None,713.4727885000175,,,,,,,,PM_th,001,2025-03-07_11h44.49.352,MainFlow,2024.2.4,130.5208695737898,2025-03-07 11h45.03.653244 +0700,
1,54,1,word/wordth0541.png,image/True/img54.png,221,221,0,z,0.3104532000143081,None,0,221,221,221,713.8720349000068,,,,,,,715.3616779999575,714.8610145000275,714.8678340000333,714.8678340000333,715.3616779999575,715.3616779999575,715.3550915999804,716.4965644000331,716.4965644000331,z,0.3104532000143081,None,716.4965644000331,,,,,,,,PM_th,001,2025-03-07_11h44.49.352,MainFlow,2024.2.4,130.5208695737898,2025-03-07 11h45.03.653244 +0700,
1,55,0,word/wordth0551.png,image/False/imgf55.png,222,222,0,x,0.6381147000938654,None,0,222,222,222,716.8184479000047,,,,,,,718.3070091999834,717.8073479000013,717.8134011999937,717.8134011999937,718.3070091999834,718.3070091999834,718.3005091999657,719.4274849999929,719.4274849999929,x,0.6381147000938654,None,719.4274849999929,,,,,,,,PM_th,001,2025-03-07_11h44.49.352,MainFlow,2024.2.4,130.5208695737898,2025-03-07 11h45.03.653244 +0700,
1,48,1,word/wordth0481.png,image/True/img48.png,223,223,0,z,0.2744743999792263,None,0,223,223,223,720.078951500007,,,,,,,721.5672102000099,721.0675978999352,721.0737272000406,721.0737272000406,721.5672102000099,721.5672102000099,721.5612018000102,722.6937283999287,722.6937283999287,z,0.2744743999792263,None,722.6937283999287,,,,,,,,PM_th,001,2025-03-07_11h44.49.352,MainFlow,2024.2.4,130.5208695737898,2025-03-07 11h45.03.653244 +0700,
1,44,1,word/wordth0441.png,image/True/img44.png,224,224,0,z,0.44033190002664924,None,0,224,224,224,722.9753030999564,,,,,,,724.4649434000021,723.964719499927,723.9714738000184,723.9714738000184,724.4649434000021,724.4649434000021,724.458617300028,725.5700027999701,725.5700027999701,z,0.44033190002664924,None,725.5700027999701,,,,,,,,PM_th,001,2025-03-07_11h44.49.352,MainFlow,2024.2.4,130.5208695737898,2025-03-07 11h45.03.653244 +0700,
