lang,wordid,truestate,worddir,imgdir,thisN,thisTrialN,thisRepN,key_resp.keys,key_resp.rt,key_resp.duration,trials.thisRepN,trials.thisTrialN,trials.thisN,trials.thisIndex,thisRow.t,notes,tutorial.started,tutorial.stopped,key_instruct.keys,key_instruct.rt,key_instruct.duration,plusblank.started,wordshow.started,image.started,plsuer.started,wordshow.stopped,imageword.started,key_resp.started,trials.key_resp.keys,trials.key_resp.rt,trials.key_resp.duration,image.stopped,plsuer.stopped,plusblank.stopped,ending.started,text_3.started,ending_key.started,ending.stopped,ending_key.keys,ending_key.rt,ending_key.duration,participant,session,date,expName,psychopyVersion,frameRate,expStart,
,,,,,,,,,,,,,,,,,0.005778500002634246,5.27730590000283,space,5.2436721999984,None,,,,,,,,,,,,,,,,,,,,,PN_th,001,2025-03-14_19h37.53.528,MainFlow,2024.2.4,144.08495249242713,2025-03-14 19h38.00.695711 +0700,
1,51,0,word/wordth0511.png,image/False/imgf51.png,0,0,0,x,1.4185180000058608,None,0,0,0,0,5.322345000000496,,,,,,,6.789943299998413,6.291091099999903,6.303338900004746,6.303338900004746,6.783026199998858,7.971813700001803,7.971813700001803,x,1.4185180000058608,None,,,,,,,,,,,PN_th,001,2025-03-14_19h37.53.528,MainFlow,2024.2.4,144.08495249242713,2025-03-14 19h38.00.695711 +0700,
1,66,1,word/wordth0661.png,image/True/img66.png,1,1,0,z,0.817715600001975,None,0,1,1,1,9.402802700002212,,,,,,,10.891245800004981,10.391684700000042,10.396854300000996,10.396854300000996,10.884529300004942,11.989577899999858,11.989577899999858,z,0.817715600001975,None,10.891245800004981,10.891245800004981,11.989577899999858,,,,,,,,PN_th,001,2025-03-14_19h37.53.528,MainFlow,2024.2.4,144.08495249242713,2025-03-14 19h38.00.695711 +0700,
1,60,1,word/wordth0601.png,image/True/img60.png,2,2,0,z,0.4515901999984635,None,0,2,2,2,12.815932500001509,,,,,,,14.304355600004783,13.80570770000486,13.8099813000008,13.8099813000008,14.297672200002125,15.395742699998664,15.395742699998664,z,0.4515901999984635,None,14.304355600004783,14.304355600004783,15.395742699998664,,,,,,,,PN_th,001,2025-03-14_19h37.53.528,MainFlow,2024.2.4,144.08495249242713,2025-03-14 19h38.00.695711 +0700,
1,46,0,word/wordth0461.png,image/False/imgf46.png,3,3,0,x,2.0149671000035596,None,0,3,3,3,15.85450480000145,,,,,,,17.34907150000072,16.84463279999909,16.85551790000318,16.85551790000318,17.342388199998823,18.461321900002076,18.461321900002076,x,2.0149671000035596,None,17.34907150000072,17.34907150000072,18.461321900002076,,,,,,,,PN_th,001,2025-03-14_19h37.53.528,MainFlow,2024.2.4,144.08495249242713,2025-03-14 19h38.00.695711 +0700,
1,24,1,word/wordth0241.png,image/True/img24.png,4,4,0,z,1.0110815000007278,None,0,4,4,4,20.484110999997938,,,,,,,21.978671100005158,21.474425400003383,21.48513780000212,21.48513780000212,21.972011500001827,23.049206399999093,23.049206399999093,z,1.0110815000007278,None,21.978671100005158,21.978671100005158,23.049206399999093,,,,,,,,PN_th,001,2025-03-14_19h37.53.528,MainFlow,2024.2.4,144.08495249242713,2025-03-14 19h38.00.695711 +0700,
1,68,1,word/wordth0681.png,image/True/img68.png,5,5,0,z,0.5291988000026322,None,0,5,5,5,24.07104110000364,,,,,,,25.565587099998083,25.061771799999406,25.072053800002323,25.072053800002323,25.558899700001348,26.636122399999294,26.636122399999294,z,0.5291988000026322,None,25.565587099998083,25.565587099998083,26.636122399999294,,,,,,,,PN_th,001,2025-03-14_19h37.53.528,MainFlow,2024.2.4,144.08495249242713,2025-03-14 19h38.00.695711 +0700,
1,22,0,word/wordth0221.png,image/False/imgf22.png,6,6,0,x,0.834093399993435,None,0,6,6,6,27.178292900003726,,,,,,,28.665887900002417,28.167119300000195,28.17154339999979,28.17154339999979,28.65919940000458,29.77119440000388,29.77119440000388,x,0.834093399993435,None,28.665887900002417,28.665887900002417,29.77119440000388,,,,,,,,PN_th,001,2025-03-14_19h37.53.528,MainFlow,2024.2.4,144.08495249242713,2025-03-14 19h38.00.695711 +0700,
1,36,1,word/wordth0361.png,image/True/img36.png,7,7,0,z,0.6830165000064881,None,0,7,7,7,30.6122944000017,,,,,,,32.106711300002644,31.602322400001867,31.61330209999869,31.61330209999869,32.100134200001776,33.191273600001296,33.191273600001296,z,0.6830165000064881,None,32.106711300002644,32.106711300002644,33.191273600001296,,,,,,,,PN_th,001,2025-03-14_19h37.53.528,MainFlow,2024.2.4,144.08495249242713,2025-03-14 19h38.00.695711 +0700,
1,68,0,word/wordth0681.png,image/False/imgf68.png,8,8,0,x,0.7989594000027864,None,0,8,8,8,33.88556229999813,,,,,,,35.37399060000462,34.874163799999224,34.88030219999928,34.88030219999928,35.36731770000188,36.451337200000125,36.451337200000125,x,0.7989594000027864,None,35.37399060000462,35.37399060000462,36.451337200000125,,,,,,,,PN_th,001,2025-03-14_19h37.53.528,MainFlow,2024.2.4,144.08495249242713,2025-03-14 19h38.00.695711 +0700,
1,16,1,word/wordth0161.png,image/True/img16.png,9,9,0,z,1.0447902000014437,None,0,9,9,9,37.26394290000462,,,,,,,38.7592994000006,38.255713400001696,38.26576080000086,38.26576080000086,38.752602900000056,39.87850170000456,39.87850170000456,z,1.0447902000014437,None,38.7592994000006,38.7592994000006,39.87850170000456,,,,,,,,PN_th,001,2025-03-14_19h37.53.528,MainFlow,2024.2.4,144.08495249242713,2025-03-14 19h38.00.695711 +0700,
1,94,1,word/wordth0941.png,image/True/img94.png,10,10,0,z,0.4513331999987713,None,0,10,10,10,40.93426210000325,,,,,,,42.42962550000084,41.92564670000138,41.93608170000516,41.93608170000516,42.422945700003766,43.52798310000071,43.52798310000071,z,0.4513331999987713,None,42.42962550000084,42.42962550000084,43.52798310000071,,,,,,,,PN_th,001,2025-03-14_19h37.53.528,MainFlow,2024.2.4,144.08495249242713,2025-03-14 19h38.00.695711 +0700,
1,95,0,word/wordth0951.png,image/False/imgf95.png,11,11,0,x,0.7287611000065226,None,0,11,11,11,43.98675530000037,,,,,,,45.48129560000234,44.97767610000301,44.98776370000269,44.98776370000269,45.474583100003656,46.5865707999983,46.5865707999983,x,0.7287611000065226,None,45.48129560000234,45.48129560000234,46.5865707999983,,,,,,,,PN_th,001,2025-03-14_19h37.53.528,MainFlow,2024.2.4,144.08495249242713,2025-03-14 19h38.00.695711 +0700,
1,30,0,word/wordth0301.png,image/False/imgf30.png,12,12,0,x,0.5939071999964654,None,0,12,12,12,47.322591700001794,,,,,,,48.811007500000414,48.31224749999819,48.31663280000066,48.31663280000066,48.80429179999919,49.902385300003516,49.902385300003516,x,0.5939071999964654,None,48.811007500000414,48.811007500000414,49.902385300003516,,,,,,,,PN_th,001,2025-03-14_19h37.53.528,MainFlow,2024.2.4,144.08495249242713,2025-03-14 19h38.00.695711 +0700,
1,20,1,word/wordth0201.png,image/True/img20.png,13,13,0,z,0.7093514000007417,None,0,13,13,13,50.507148400000005,,,,,,,52.001681499998085,51.497449399998004,51.508146100000886,51.508146100000886,51.99501379999856,53.10696480000479,53.10696480000479,z,0.7093514000007417,None,52.001681499998085,52.001681499998085,53.10696480000479,,,,,,,,PN_th,001,2025-03-14_19h37.53.528,MainFlow,2024.2.4,144.08495249242713,2025-03-14 19h38.00.695711 +0700,
1,42,0,word/wordth0421.png,image/False/imgf42.png,14,14,0,x,0.5993501999982982,None,0,14,14,14,53.82906979999825,,,,,,,55.317457600001944,54.819706599999336,54.82311180000397,54.82311180000397,55.3107547000036,56.4219413000028,56.4219413000028,x,0.5993501999982982,None,55.317457600001944,55.317457600001944,56.4219413000028,,,,,,,,PN_th,001,2025-03-14_19h37.53.528,MainFlow,2024.2.4,144.08495249242713,2025-03-14 19h38.00.695711 +0700,
1,31,1,word/wordth0311.png,image/True/img31.png,15,15,0,z,0.4400018000014825,None,0,15,15,15,57.03434399999969,,,,,,,58.52204709999933,58.02305450000131,58.02770520000195,58.02770520000195,58.51538040000014,59.613336499998695,59.613336499998695,z,0.4400018000014825,None,58.52204709999933,58.52204709999933,59.613336499998695,,,,,,,,PN_th,001,2025-03-14_19h37.53.528,MainFlow,2024.2.4,144.08495249242713,2025-03-14 19h38.00.695711 +0700,
1,55,1,word/wordth0551.png,image/True/img55.png,16,16,0,z,0.7081250000046566,None,0,16,16,16,60.06528429999889,,,,,,,61.552881100004015,61.053089799999725,61.05921479999961,61.05921479999961,61.54616199999873,62.658166000001074,62.658166000001074,z,0.7081250000046566,None,61.552881100004015,61.552881100004015,62.658166000001074,,,,,,,,PN_th,001,2025-03-14_19h37.53.528,MainFlow,2024.2.4,144.08495249242713,2025-03-14 19h38.00.695711 +0700,
1,36,1,word/wordth0361.png,image/True/img36.png,17,17,0,z,0.5242643000019598,None,0,17,17,17,63.374143200002436,,,,,,,64.86172420000366,64.36196259999997,64.36804359999951,64.36804359999951,64.85503379999864,65.9460412000044,65.9460412000044,z,0.5242643000019598,None,64.86172420000366,64.86172420000366,65.9460412000044,,,,,,,,PN_th,001,2025-03-14_19h37.53.528,MainFlow,2024.2.4,144.08495249242713,2025-03-14 19h38.00.695711 +0700,
1,9,1,word/wordth0091.png,image/True/img09.png,18,18,0,z,0.5507800000050338,None,0,18,18,18,66.48129119999794,,,,,,,67.97596480000357,67.4715165000016,67.48240919999807,67.48240919999807,67.9692767000015,69.03951110000344,69.03951110000344,z,0.5507800000050338,None,67.97596480000357,67.97596480000357,69.03951110000344,,,,,,,,PN_th,001,2025-03-14_19h37.53.528,MainFlow,2024.2.4,144.08495249242713,2025-03-14 19h38.00.695711 +0700,
1,64,1,word/wordth0641.png,image/True/img64.png,19,19,0,z,0.8246845000030589,None,0,19,19,19,69.60257700000511,,,,,,,71.09713059999922,70.59220630000345,70.6035847000021,70.6035847000021,71.0904559000046,72.17460270000447,72.17460270000447,z,0.8246845000030589,None,71.09713059999922,71.09713059999922,72.17460270000447,,,,,,,,PN_th,001,2025-03-14_19h37.53.528,MainFlow,2024.2.4,144.08495249242713,2025-03-14 19h38.00.695711 +0700,
1,95,1,word/wordth0951.png,image/True/img95.png,20,20,0,z,0.6308531000031508,None,0,20,20,20,73.00792580000416,,,,,,,74.49635990000388,73.99654459999874,74.0026702000032,74.0026702000032,74.48966690000088,75.60844160000124,75.60844160000124,z,0.6308531000031508,None,74.49635990000388,74.49635990000388,75.60844160000124,,,,,,,,PN_th,001,2025-03-14_19h37.53.528,MainFlow,2024.2.4,144.08495249242713,2025-03-14 19h38.00.695711 +0700,
1,41,1,word/wordth0411.png,image/True/img41.png,21,21,0,z,0.48835870000038994,None,0,21,21,21,76.24809839999944,,,,,,,77.74262820000149,77.23817450000206,77.24910230000387,77.24910230000387,77.73593980000442,78.84793519999948,78.84793519999948,z,0.48835870000038994,None,77.74262820000149,77.74262820000149,78.84793519999948,,,,,,,,PN_th,001,2025-03-14_19h37.53.528,MainFlow,2024.2.4,144.08495249242713,2025-03-14 19h38.00.695711 +0700,
1,8,1,word/wordth0081.png,image/True/img08.png,22,22,0,z,0.4640097999945283,None,0,22,22,22,79.34841400000005,,,,,,,80.83599289999984,80.33632439999928,80.34236890000466,80.34236890000466,80.82930430000124,81.92029170000023,81.92029170000023,z,0.4640097999945283,None,80.83599289999984,80.83599289999984,81.92029170000023,,,,,,,,PN_th,001,2025-03-14_19h37.53.528,MainFlow,2024.2.4,144.08495249242713,2025-03-14 19h38.00.695711 +0700,
1,60,1,word/wordth0601.png,image/True/img60.png,23,23,0,z,0.2880155999955605,None,0,23,23,23,82.39312320000317,,,,,,,83.88070500000322,83.38095500000054,83.3870251000044,83.3870251000044,83.87400730000081,84.96429050000006,84.96429050000006,z,0.2880155999955605,None,83.88070500000322,83.88070500000322,84.96429050000006,,,,,,,,PN_th,001,2025-03-14_19h37.53.528,MainFlow,2024.2.4,144.08495249242713,2025-03-14 19h38.00.695711 +0700,
1,48,0,word/wordth0481.png,image/False/imgf48.png,24,24,0,x,0.5334325000003446,None,0,24,24,24,85.26403009999922,,,,,,,86.75164130000485,86.25267190000159,86.25724460000492,86.25724460000492,86.74494070000219,87.86386330000096,87.86386330000096,x,0.5334325000003446,None,86.75164130000485,86.75164130000485,87.86386330000096,,,,,,,,PN_th,001,2025-03-14_19h37.53.528,MainFlow,2024.2.4,144.08495249242713,2025-03-14 19h38.00.695711 +0700,
1,41,0,word/wordth0411.png,image/False/imgf41.png,25,25,0,x,0.6659614000018337,None,0,25,25,25,88.40602850000141,,,,,,,89.89365900000121,89.39407539999956,89.39928099999815,89.39928099999815,89.88693259999854,90.96333160000358,90.96333160000358,x,0.6659614000018337,None,89.89365900000121,89.89365900000121,90.96333160000358,,,,,,,,PN_th,001,2025-03-14_19h37.53.528,MainFlow,2024.2.4,144.08495249242713,2025-03-14 19h38.00.695711 +0700,
1,54,0,word/wordth0541.png,image/False/imgf54.png,26,26,0,x,0.5497067000032985,None,0,26,26,26,91.63843510000152,,,,,,,93.12590759999875,92.62613609999971,92.63235480000003,92.63235480000003,93.11933169999975,94.21658190000016,94.21658190000016,x,0.5497067000032985,None,93.12590759999875,93.12590759999875,94.21658190000016,,,,,,,,PN_th,001,2025-03-14_19h37.53.528,MainFlow,2024.2.4,144.08495249242713,2025-03-14 19h38.00.695711 +0700,
1,54,1,word/wordth0541.png,image/True/img54.png,27,27,0,z,0.26495820000127424,None,0,27,27,27,94.77351540000382,,,,,,,96.26111390000005,95.76129159999982,95.76743369999895,95.76743369999895,96.25445010000112,97.3733388000037,97.3733388000037,z,0.26495820000127424,None,96.26111390000005,96.26111390000005,97.3733388000037,,,,,,,,PN_th,001,2025-03-14_19h37.53.528,MainFlow,2024.2.4,144.08495249242713,2025-03-14 19h38.00.695711 +0700,
1,63,0,word/wordth0631.png,image/False/imgf63.png,28,28,0,x,11.561549099998956,None,0,28,28,28,97.65137749999849,,,,,,,99.14592220000486,98.64112980000209,98.65238680000039,98.65238680000039,99.13923340000474,100.25078510000458,100.25078510000458,x,11.561549099998956,None,99.14592220000486,99.14592220000486,100.25078510000458,,,,,,,,PN_th,001,2025-03-14_19h37.53.528,MainFlow,2024.2.4,144.08495249242713,2025-03-14 19h38.00.695711 +0700,
1,37,0,word/wordth0371.png,image/False/imgf37.png,29,29,0,x,0.6821522999962326,None,0,29,29,29,111.82524470000499,,,,,,,113.31980399999884,112.81503640000301,112.82624880000367,112.82624880000367,113.31310510000185,114.43814070000371,114.43814070000371,x,0.6821522999962326,None,113.31980399999884,113.31980399999884,114.43814070000371,,,,,,,,PN_th,001,2025-03-14_19h37.53.528,MainFlow,2024.2.4,144.08495249242713,2025-03-14 19h38.00.695711 +0700,
1,54,0,word/wordth0541.png,image/False/imgf54.png,30,30,0,x,0.6393143999957829,None,0,30,30,30,115.12713090000034,,,,,,,116.6147204000008,116.11486400000285,116.12103370000114,116.12103370000114,116.60803229999874,117.7059866999989,117.7059866999989,x,0.6393143999957829,None,116.6147204000008,116.6147204000008,117.7059866999989,,,,,,,,PN_th,001,2025-03-14_19h37.53.528,MainFlow,2024.2.4,144.08495249242713,2025-03-14 19h38.00.695711 +0700,
1,48,1,word/wordth0481.png,image/True/img48.png,31,31,0,z,2.3609341999981552,None,0,31,31,31,118.35870879999857,,,,,,,119.84716040000058,119.34735440000077,119.35345600000437,119.35345600000437,119.84045680000418,120.9523829000027,120.9523829000027,z,2.3609341999981552,None,119.84716040000058,119.84716040000058,120.9523829000027,,,,,,,,PN_th,001,2025-03-14_19h37.53.528,MainFlow,2024.2.4,144.08495249242713,2025-03-14 19h38.00.695711 +0700,
1,26,0,word/wordth0261.png,image/False/imgf26.png,32,32,0,x,6.01766889999999,None,0,32,32,32,123.32282280000072,,,,,,,124.81739950000338,124.31333960000484,124.3238313000038,124.3238313000038,124.81066580000333,125.92961720000312,125.92961720000312,x,6.01766889999999,None,124.81739950000338,124.81739950000338,125.92961720000312,,,,,,,,PN_th,001,2025-03-14_19h37.53.528,MainFlow,2024.2.4,144.08495249242713,2025-03-14 19h38.00.695711 +0700,
1,59,0,word/wordth0591.png,image/False/imgf59.png,33,33,0,x,1.2337870000046678,None,0,33,33,33,131.9564296000026,,,,,,,133.44402830000035,132.94518410000455,132.9496569000039,132.9496569000039,133.43734979999863,134.52150419999816,134.52150419999816,x,1.2337870000046678,None,133.44402830000035,133.44402830000035,134.52150419999816,,,,,,,,PN_th,001,2025-03-14_19h37.53.528,MainFlow,2024.2.4,144.08495249242713,2025-03-14 19h38.00.695711 +0700,
1,8,1,word/wordth0081.png,image/True/img08.png,34,34,0,z,0.4895249999972293,None,0,34,34,34,135.76578919999884,,,,,,,137.25338470000133,136.75380820000282,136.75940750000154,136.75940750000154,137.24671210000088,138.33076200000505,138.33076200000505,z,0.4895249999972293,None,137.25338470000133,137.25338470000133,138.33076200000505,,,,,,,,PN_th,001,2025-03-14_19h37.53.528,MainFlow,2024.2.4,144.08495249242713,2025-03-14 19h38.00.695711 +0700,
1,66,1,word/wordth0661.png,image/True/img66.png,35,35,0,z,0.3390134000001126,None,0,35,35,35,138.83135290000064,,,,,,,140.31892860000517,139.8190601000024,139.82525629999873,139.82525629999873,140.3122444000037,141.41727869999886,141.41727869999886,z,0.3390134000001126,None,140.31892860000517,140.31892860000517,141.41727869999886,,,,,,,,PN_th,001,2025-03-14_19h37.53.528,MainFlow,2024.2.4,144.08495249242713,2025-03-14 19h38.00.695711 +0700,
1,24,0,word/wordth0241.png,image/False/imgf24.png,36,36,0,x,1.3564777999999933,None,0,36,36,36,141.7648360000021,,,,,,,143.25242170000274,142.75236610000138,142.7589014000041,142.7589014000041,143.24573059999966,144.34381360000407,144.34381360000407,x,1.3564777999999933,None,143.25242170000274,143.25242170000274,144.34381360000407,,,,,,,,PN_th,001,2025-03-14_19h37.53.528,MainFlow,2024.2.4,144.08495249242713,2025-03-14 19h38.00.695711 +0700,
1,14,1,word/wordth0141.png,image/True/img14.png,37,37,0,z,0.3549974999987171,None,0,37,37,37,145.71239960000094,,,,,,,147.20079790000455,146.70177700000204,146.70644110000285,146.70644110000285,147.194127499999,148.29830049999873,148.29830049999873,z,0.3549974999987171,None,147.20079790000455,147.20079790000455,148.29830049999873,,,,,,,,PN_th,001,2025-03-14_19h37.53.528,MainFlow,2024.2.4,144.08495249242713,2025-03-14 19h38.00.695711 +0700,
1,20,0,word/wordth0201.png,image/False/imgf20.png,38,38,0,x,0.4680154000016046,None,0,38,38,38,148.66059130000212,,,,,,,150.14818870000454,149.64856339999824,149.65421190000052,149.65421190000052,150.1414975000007,151.28128110000398,151.28128110000398,x,0.4680154000016046,None,150.14818870000454,150.14818870000454,151.28128110000398,,,,,,,,PN_th,001,2025-03-14_19h37.53.528,MainFlow,2024.2.4,144.08495249242713,2025-03-14 19h38.00.695711 +0700,
1,89,0,word/wordth0891.png,image/False/imgf89.png,39,39,0,x,0.6228478000048199,None,0,39,39,39,151.7609034000052,,,,,,,153.24851740000304,152.74955559999944,152.75414209999872,152.75414209999872,153.24181360000512,154.33944540000084,154.33944540000084,x,0.6228478000048199,None,153.24851740000304,153.24851740000304,154.33944540000084,,,,,,,,PN_th,001,2025-03-14_19h37.53.528,MainFlow,2024.2.4,144.08495249242713,2025-03-14 19h38.00.695711 +0700,
1,64,0,word/wordth0641.png,image/False/imgf64.png,40,40,0,x,0.5518653000035556,None,0,40,40,40,154.97246380000433,,,,,,,156.46005080000032,155.9602823000023,155.96636650000437,155.96636650000437,156.45339940000122,157.53042319999804,157.53042319999804,x,0.5518653000035556,None,156.46005080000032,156.46005080000032,157.53042319999804,,,,,,,,PN_th,001,2025-03-14_19h37.53.528,MainFlow,2024.2.4,144.08495249242713,2025-03-14 19h38.00.695711 +0700,
1,56,1,word/wordth0561.png,image/True/img56.png,41,41,0,z,0.7238006999978097,None,0,41,41,41,158.09360890000244,,,,,,,159.58817020000424,159.08342619999894,159.09463890000188,159.09463890000188,159.58148660000006,160.6795495000042,160.6795495000042,z,0.7238006999978097,None,159.58817020000424,159.58817020000424,160.6795495000042,,,,,,,,PN_th,001,2025-03-14_19h37.53.528,MainFlow,2024.2.4,144.08495249242713,2025-03-14 19h38.00.695711 +0700,
1,15,1,word/wordth0151.png,image/True/img15.png,42,42,0,z,0.6451770999992732,None,0,42,42,42,161.4163813999985,,,,,,,162.9109024999998,162.4060488000032,162.4174026000037,162.4174026000037,162.9042469000051,164.03011890000198,164.03011890000198,z,0.6451770999992732,None,162.9109024999998,162.9109024999998,164.03011890000198,,,,,,,,PN_th,001,2025-03-14_19h37.53.528,MainFlow,2024.2.4,144.08495249242713,2025-03-14 19h38.00.695711 +0700,
1,88,0,word/wordth0881.png,image/False/imgf88.png,43,43,0,x,1.5108461999989231,None,0,43,43,43,164.68269780000264,,,,,,,166.17804510000133,165.67336100000102,165.68451240000286,165.68451240000286,166.17137430000002,167.27645190000476,167.27645190000476,x,1.5108461999989231,None,166.17804510000133,166.17804510000133,167.27645190000476,,,,,,,,PN_th,001,2025-03-14_19h37.53.528,MainFlow,2024.2.4,144.08495249242713,2025-03-14 19h38.00.695711 +0700,
1,94,1,word/wordth0941.png,image/True/img94.png,44,44,0,z,0.35459930000070017,None,0,44,44,44,168.79791890000342,,,,,,,170.28632939999807,169.78667940000014,169.79268030000094,169.79268030000094,170.27962990000378,171.37772840000252,171.37772840000252,z,0.35459930000070017,None,170.28632939999807,170.28632939999807,171.37772840000252,,,,,,,,PN_th,001,2025-03-14_19h37.53.528,MainFlow,2024.2.4,144.08495249242713,2025-03-14 19h38.00.695711 +0700,
1,40,0,word/wordth0401.png,image/False/imgf40.png,45,45,0,x,0.5452520999970147,None,0,45,45,45,171.73918550000235,,,,,,,173.23370100000466,172.728818100004,172.740183599999,172.740183599999,173.22702109999955,174.33903809999902,174.33903809999902,x,0.5452520999970147,None,173.23370100000466,173.23370100000466,174.33903809999902,,,,,,,,PN_th,001,2025-03-14_19h37.53.528,MainFlow,2024.2.4,144.08495249242713,2025-03-14 19h38.00.695711 +0700,
1,41,0,word/wordth0411.png,image/False/imgf41.png,46,46,0,x,0.504064600005222,None,0,46,46,46,174.89498399999866,,,,,,,176.38268719999905,175.88278100000025,175.8890057000026,175.8890057000026,176.37598340000113,177.45322360000137,177.45322360000137,x,0.504064600005222,None,176.38268719999905,176.38268719999905,177.45322360000137,,,,,,,,PN_th,001,2025-03-14_19h37.53.528,MainFlow,2024.2.4,144.08495249242713,2025-03-14 19h38.00.695711 +0700,
1,7,1,word/wordth0071.png,image/True/img07.png,47,47,0,z,0.7649005999992369,None,0,47,47,47,177.9676236000014,,,,,,,179.4552249000044,178.95588110000244,178.96172579999984,178.96172579999984,179.44851010000275,180.5603951000012,180.5603951000012,z,0.7649005999992369,None,179.4552249000044,179.4552249000044,180.5603951000012,,,,,,,,PN_th,001,2025-03-14_19h37.53.528,MainFlow,2024.2.4,144.08495249242713,2025-03-14 19h38.00.695711 +0700,
1,60,0,word/wordth0601.png,image/False/imgf60.png,48,48,0,x,0.8014548999999533,None,0,48,48,48,181.3381989000045,,,,,,,182.82658720000472,182.32700810000097,182.33296559999872,182.33296559999872,182.81990339999902,183.9248327000023,183.9248327000023,x,0.8014548999999533,None,182.82658720000472,182.82658720000472,183.9248327000023,,,,,,,,PN_th,001,2025-03-14_19h37.53.528,MainFlow,2024.2.4,144.08495249242713,2025-03-14 19h38.00.695711 +0700,
1,23,0,word/wordth0231.png,image/False/imgf23.png,49,49,0,x,0.40643579999596113,None,0,49,49,49,184.73742689999926,,,,,,,186.22579499999847,185.72675860000163,185.7314664000005,185.7314664000005,186.21916250000504,187.3518561000019,187.3518561000019,x,0.40643579999596113,None,186.22579499999847,186.22579499999847,187.3518561000019,,,,,,,,PN_th,001,2025-03-14_19h37.53.528,MainFlow,2024.2.4,144.08495249242713,2025-03-14 19h38.00.695711 +0700,
1,68,0,word/wordth0681.png,image/False/imgf68.png,50,50,0,x,0.5441645000028075,None,0,50,50,50,187.76905600000464,,,,,,,189.25664540000434,188.75679669999954,188.76296490000095,188.76296490000095,189.24981939999998,190.33412430000317,190.33412430000317,x,0.5441645000028075,None,189.25664540000434,189.25664540000434,190.33412430000317,,,,,,,,PN_th,001,2025-03-14_19h37.53.528,MainFlow,2024.2.4,144.08495249242713,2025-03-14 19h38.00.695711 +0700,
1,26,1,word/wordth0261.png,image/True/img26.png,51,51,0,z,1.9820966000042972,None,0,51,51,51,190.89022690000274,,,,,,,192.37782130000414,191.87796440000238,191.88427650000085,191.88427650000085,192.3711192999981,193.4892123000027,193.4892123000027,z,1.9820966000042972,None,192.37782130000414,192.37782130000414,193.4892123000027,,,,,,,,PN_th,001,2025-03-14_19h37.53.528,MainFlow,2024.2.4,144.08495249242713,2025-03-14 19h38.00.695711 +0700,
1,89,0,word/wordth0891.png,image/False/imgf89.png,52,52,0,x,0.4872211999972933,None,0,52,52,52,195.47813000000315,,,,,,,196.97257230000105,196.47401940000418,196.47831040000165,196.47831040000165,196.96597360000305,198.06406889999926,198.06406889999926,x,0.4872211999972933,None,196.97257230000105,196.97257230000105,198.06406889999926,,,,,,,,PN_th,001,2025-03-14_19h37.53.528,MainFlow,2024.2.4,144.08495249242713,2025-03-14 19h38.00.695711 +0700,
1,3,0,word/wordth0031.png,image/False/imgf03.png,53,53,0,x,0.6247618000052171,None,0,53,53,53,198.5645267,,,,,,,200.05213999999978,199.552852300003,199.5577626000013,199.5577626000013,200.04545309999958,201.14352810000128,201.14352810000128,x,0.6247618000052171,None,200.05213999999978,200.05213999999978,201.14352810000128,,,,,,,,PN_th,001,2025-03-14_19h37.53.528,MainFlow,2024.2.4,144.08495249242713,2025-03-14 19h38.00.695711 +0700,
1,55,1,word/wordth0551.png,image/True/img55.png,54,54,0,z,1.1334428999980446,None,0,54,54,54,201.77608920000057,,,,,,,203.2706193999984,202.7699008999989,202.77707770000416,202.77707770000416,203.26391980000335,204.38285320000432,204.38285320000432,z,1.1334428999980446,None,203.2706193999984,203.2706193999984,204.38285320000432,,,,,,,,PN_th,001,2025-03-14_19h37.53.528,MainFlow,2024.2.4,144.08495249242713,2025-03-14 19h38.00.695711 +0700,
1,46,1,word/wordth0461.png,image/True/img46.png,55,55,0,z,0.6287102999995113,None,0,55,55,55,205.5290051999982,,,,,,,207.01741420000326,206.51762869999948,206.5237363999986,206.5237363999986,207.01075120000314,208.1365958000024,208.1365958000024,z,0.6287102999995113,None,207.01741420000326,207.01741420000326,208.1365958000024,,,,,,,,PN_th,001,2025-03-14_19h37.53.528,MainFlow,2024.2.4,144.08495249242713,2025-03-14 19h38.00.695711 +0700,
1,1,1,word/wordth0011.png,image/True/img01.png,56,56,0,z,1.0463993000012124,None,0,56,56,56,208.77612190000218,,,,,,,210.27063500000077,209.7663124000028,209.77711000000272,209.77711000000272,210.26395530000445,211.38289790000272,211.38289790000272,z,1.0463993000012124,None,210.27063500000077,210.27063500000077,211.38289790000272,,,,,,,,PN_th,001,2025-03-14_19h37.53.528,MainFlow,2024.2.4,144.08495249242713,2025-03-14 19h38.00.695711 +0700,
1,3,1,word/wordth0031.png,image/True/img03.png,57,57,0,z,0.4859387000033166,None,0,57,57,57,212.4386616999982,,,,,,,213.9270800000013,213.4267678000033,213.43354550000367,213.43354550000367,213.92042819999915,215.03235829999903,215.03235829999903,z,0.4859387000033166,None,213.9270800000013,213.9270800000013,215.03235829999903,,,,,,,,PN_th,001,2025-03-14_19h37.53.528,MainFlow,2024.2.4,144.08495249242713,2025-03-14 19h38.00.695711 +0700,
1,76,1,word/wordth0761.png,image/True/img76.png,58,58,0,z,0.6635127000045031,None,0,58,58,58,215.52590020000207,,,,,,,217.02044610000303,216.5164500000028,216.5268961000038,216.5268961000038,217.01374970000325,218.11877860000095,218.11877860000095,z,0.6635127000045031,None,217.02044610000303,217.02044610000303,218.11877860000095,,,,,,,,PN_th,001,2025-03-14_19h37.53.528,MainFlow,2024.2.4,144.08495249242713,2025-03-14 19h38.00.695711 +0700,
1,52,0,word/wordth0521.png,image/False/imgf52.png,59,59,0,x,0.4751149000003352,None,0,59,59,59,218.79306880000513,,,,,,,220.28758209999796,219.78322209999897,219.79407470000297,219.79407470000297,220.2809023000009,221.37118850000115,221.37118850000115,x,0.4751149000003352,None,220.28758209999796,220.28758209999796,221.37118850000115,,,,,,,,PN_th,001,2025-03-14_19h37.53.528,MainFlow,2024.2.4,144.08495249242713,2025-03-14 19h38.00.695711 +0700,
1,14,0,word/wordth0141.png,image/False/imgf14.png,60,60,0,x,0.46677149999595713,None,0,60,60,60,221.85861200000363,,,,,,,223.34622640000453,222.8465428999989,222.85222839999915,222.85222839999915,223.3394946000044,224.44452360000287,224.44452360000287,x,0.46677149999595713,None,223.34622640000453,223.34622640000453,224.44452360000287,,,,,,,,PN_th,001,2025-03-14_19h37.53.528,MainFlow,2024.2.4,144.08495249242713,2025-03-14 19h38.00.695711 +0700,
1,61,1,word/wordth0611.png,image/True/img61.png,61,61,0,z,1.1142493000006652,None,0,61,61,61,224.92415759999858,,,,,,,226.4117492000005,225.9128536999997,225.91738769999938,225.91738769999938,226.40506730000197,227.5170408000049,227.5170408000049,z,1.1142493000006652,None,226.4117492000005,226.4117492000005,227.5170408000049,,,,,,,,PN_th,001,2025-03-14_19h37.53.528,MainFlow,2024.2.4,144.08495249242713,2025-03-14 19h38.00.695711 +0700,
1,93,0,word/wordth0931.png,image/False/imgf93.png,62,62,0,x,0.7450985000032233,None,0,62,62,62,228.64232800000173,,,,,,,230.13078120000137,229.6315975000034,229.63637290000042,229.63637290000042,230.12404220000462,231.21519300000364,231.21519300000364,x,0.7450985000032233,None,230.13078120000137,230.13078120000137,231.21519300000364,,,,,,,,PN_th,001,2025-03-14_19h37.53.528,MainFlow,2024.2.4,144.08495249242713,2025-03-14 19h38.00.695711 +0700,
1,37,1,word/wordth0371.png,image/True/img37.png,63,63,0,z,0.3906414000011864,None,0,63,63,63,231.97286619999795,,,,,,,233.47435560000304,232.9714402000027,232.98083440000482,232.98083440000482,233.4673444,234.5936533999993,234.5936533999993,z,0.3906414000011864,None,,,,,,,,,,,PN_th,001,2025-03-14_19h37.53.528,MainFlow,2024.2.4,144.08495249242713,2025-03-14 19h38.00.695711 +0700,
1,79,0,word/wordth0791.png,image/False/imgf79.png,64,64,0,x,0.5807610999981989,None,0,64,64,64,234.99674239999877,,,,,,,236.48430270000244,235.98526449999918,235.9899407999983,235.9899407999983,236.47759460000088,237.59653640000033,237.59653640000033,x,0.5807610999981989,None,236.48430270000244,236.48430270000244,237.59653640000033,,,,,,,,PN_th,001,2025-03-14_19h37.53.528,MainFlow,2024.2.4,144.08495249242713,2025-03-14 19h38.00.695711 +0700,
1,37,0,word/wordth0371.png,image/False/imgf37.png,65,65,0,x,0.5672501999943051,None,0,65,65,65,238.18740709999838,,,,,,,239.6749794999996,239.17500650000147,239.18132409999816,239.18132409999816,239.66829220000363,240.79404780000186,240.79404780000186,x,0.5672501999943051,None,239.6749794999996,239.6749794999996,240.79404780000186,,,,,,,,PN_th,001,2025-03-14_19h37.53.528,MainFlow,2024.2.4,144.08495249242713,2025-03-14 19h38.00.695711 +0700,
1,3,1,word/wordth0031.png,image/True/img03.png,66,66,0,z,0.4283867000049213,None,0,66,66,66,241.37112580000394,,,,,,,242.85870850000356,242.35879930000374,242.36503610000364,242.36503610000364,242.85204360000353,243.95692280000367,243.95692280000367,z,0.4283867000049213,None,242.85870850000356,242.85870850000356,243.95692280000367,,,,,,,,PN_th,001,2025-03-14_19h37.53.528,MainFlow,2024.2.4,144.08495249242713,2025-03-14 19h38.00.695711 +0700,
1,93,0,word/wordth0931.png,image/False/imgf93.png,67,67,0,x,0.3992928000006941,None,0,67,67,67,244.39496620000136,,,,,,,245.88257280000107,245.38281280000228,245.38889570000174,245.38889570000174,245.875858600004,246.9669980000035,246.9669980000035,x,0.3992928000006941,None,245.88257280000107,245.88257280000107,246.9669980000035,,,,,,,,PN_th,001,2025-03-14_19h37.53.528,MainFlow,2024.2.4,144.08495249242713,2025-03-14 19h38.00.695711 +0700,
1,30,1,word/wordth0301.png,image/True/img30.png,68,68,0,z,0.7112301000015577,None,0,68,68,68,247.37712050000118,,,,,,,248.87862360000145,248.37488960000337,248.38507209999807,248.38507209999807,248.8717112000013,249.9630582000027,249.9630582000027,z,0.7112301000015577,None,,,,,,,,,,,PN_th,001,2025-03-14_19h37.53.528,MainFlow,2024.2.4,144.08495249242713,2025-03-14 19h38.00.695711 +0700,
1,46,0,word/wordth0461.png,image/False/imgf46.png,69,69,0,x,1.1425289999970119,None,0,69,69,69,250.68515399999887,,,,,,,252.17356690000452,251.67379459999938,251.67992159999994,251.67992159999994,252.16688010000507,253.29276350000146,253.29276350000146,x,1.1425289999970119,None,252.17356690000452,252.17356690000452,253.29276350000146,,,,,,,,PN_th,001,2025-03-14_19h37.53.528,MainFlow,2024.2.4,144.08495249242713,2025-03-14 19h38.00.695711 +0700,
1,27,0,word/wordth0271.png,image/False/imgf27.png,70,70,0,x,1.0017885999986902,None,0,70,70,70,254.44584000000032,,,,,,,255.93426439999894,255.43441080000048,255.4405673000001,255.4405673000001,255.92757780000102,257.025501600001,257.025501600001,x,1.0017885999986902,None,255.93426439999894,255.93426439999894,257.025501600001,,,,,,,,PN_th,001,2025-03-14_19h37.53.528,MainFlow,2024.2.4,144.08495249242713,2025-03-14 19h38.00.695711 +0700,
1,37,1,word/wordth0371.png,image/True/img37.png,71,71,0,z,0.4929967999996734,None,0,71,71,71,258.03970870000194,,,,,,,259.52814090000174,259.02821889999905,259.0344421000045,259.0344421000045,259.52144319999934,260.64729929999885,260.64729929999885,z,0.4929967999996734,None,259.52814090000174,259.52814090000174,260.64729929999885,,,,,,,,PN_th,001,2025-03-14_19h37.53.528,MainFlow,2024.2.4,144.08495249242713,2025-03-14 19h38.00.695711 +0700,
1,20,1,word/wordth0201.png,image/True/img20.png,72,72,0,z,0.47165880000102334,None,0,72,72,72,261.1476335000043,,,,,,,262.6353635999985,262.13561850000406,262.14169940000284,262.14169940000284,262.6286609000017,263.74068740000075,263.74068740000075,z,0.47165880000102334,None,262.6353635999985,262.6353635999985,263.74068740000075,,,,,,,,PN_th,001,2025-03-14_19h37.53.528,MainFlow,2024.2.4,144.08495249242713,2025-03-14 19h38.00.695711 +0700,
1,17,1,word/wordth0171.png,image/True/img17.png,73,73,0,z,0.42420250000577653,None,0,73,73,73,264.2202325000035,,,,,,,265.7148310000048,265.2101974000034,265.2212961000041,265.2212961000041,265.708143200005,266.81314009999915,266.81314009999915,z,0.42420250000577653,None,265.7148310000048,265.7148310000048,266.81314009999915,,,,,,,,PN_th,001,2025-03-14_19h37.53.528,MainFlow,2024.2.4,144.08495249242713,2025-03-14 19h38.00.695711 +0700,
1,10,0,word/wordth0101.png,image/False/imgf10.png,74,74,0,x,0.4482572000051732,None,0,74,74,74,267.24416770000244,,,,,,,268.73871150000195,268.2339099000019,268.2451682000028,268.2451682000028,268.7320011999982,269.8370408999981,269.8370408999981,x,0.4482572000051732,None,268.73871150000195,268.73871150000195,269.8370408999981,,,,,,,,PN_th,001,2025-03-14_19h37.53.528,MainFlow,2024.2.4,144.08495249242713,2025-03-14 19h38.00.695711 +0700,
1,68,1,word/wordth0681.png,image/True/img68.png,75,75,0,z,0.6313498000017717,None,0,75,75,75,270.2957972000004,,,,,,,271.7834006000048,271.28359849999833,271.28977699999814,271.28977699999814,271.7767249000026,272.85393979999935,272.85393979999935,z,0.6313498000017717,None,271.7834006000048,271.7834006000048,272.85393979999935,,,,,,,,PN_th,001,2025-03-14_19h37.53.528,MainFlow,2024.2.4,144.08495249242713,2025-03-14 19h38.00.695711 +0700,
1,82,0,word/wordth0821.png,image/False/imgf82.png,76,76,0,x,0.6879719999997178,None,0,76,76,76,273.49344830000337,,,,,,,274.98103300000366,274.4816705999983,274.48666519999824,274.48666519999824,274.9743751999995,276.0863232000047,276.0863232000047,x,0.6879719999997178,None,274.98103300000366,274.98103300000366,276.0863232000047,,,,,,,,PN_th,001,2025-03-14_19h37.53.528,MainFlow,2024.2.4,144.08495249242713,2025-03-14 19h38.00.695711 +0700,
1,42,1,word/wordth0421.png,image/True/img42.png,77,77,0,z,0.647992999998678,None,0,77,77,77,276.78144659999816,,,,,,,278.27600710000115,277.771344599998,277.7824622000044,277.7824622000044,278.2692879000024,279.37430830000085,279.37430830000085,z,0.647992999998678,None,278.27600710000115,278.27600710000115,279.37430830000085,,,,,,,,PN_th,001,2025-03-14_19h37.53.528,MainFlow,2024.2.4,144.08495249242713,2025-03-14 19h38.00.695711 +0700,
1,59,1,word/wordth0591.png,image/True/img59.png,78,78,0,z,0.40753330000006827,None,0,78,78,78,280.0346922000026,,,,,,,281.52229430000443,281.0226000000039,281.02860380000493,281.02860380000493,281.51558459999796,282.5997628000041,282.5997628000041,z,0.40753330000006827,None,281.52229430000443,281.52229430000443,282.5997628000041,,,,,,,,PN_th,001,2025-03-14_19h37.53.528,MainFlow,2024.2.4,144.08495249242713,2025-03-14 19h38.00.695711 +0700,
1,18,1,word/wordth0181.png,image/True/img18.png,79,79,0,z,0.9314950999978464,None,0,79,79,79,283.0168253000011,,,,,,,284.5113771000033,284.00718320000306,284.01785499999824,284.01785499999824,284.50469370000064,285.5958090999993,285.5958090999993,z,0.9314950999978464,None,284.5113771000033,284.5113771000033,285.5958090999993,,,,,,,,PN_th,001,2025-03-14_19h37.53.528,MainFlow,2024.2.4,144.08495249242713,2025-03-14 19h38.00.695711 +0700,
1,63,1,word/wordth0631.png,image/True/img63.png,80,80,0,z,0.7530234000005294,None,0,80,80,80,286.54036420000193,,,,,,,288.02878630000487,287.5292924000023,287.53440960000444,287.53440960000444,288.02233369999885,289.12627330000396,289.12627330000396,z,0.7530234000005294,None,288.02878630000487,288.02878630000487,289.12627330000396,,,,,,,,PN_th,001,2025-03-14_19h37.53.528,MainFlow,2024.2.4,144.08495249242713,2025-03-14 19h38.00.695711 +0700,
1,40,0,word/wordth0401.png,image/False/imgf40.png,81,81,0,x,0.89059900000575,None,0,81,81,81,289.89172849999886,,,,,,,291.37931820000085,290.8793414000029,290.88583500000095,290.88583500000095,291.37261930000386,292.477693300003,292.477693300003,x,0.89059900000575,None,291.37931820000085,291.37931820000085,292.477693300003,,,,,,,,PN_th,001,2025-03-14_19h37.53.528,MainFlow,2024.2.4,144.08495249242713,2025-03-14 19h38.00.695711 +0700,
1,55,0,word/wordth0551.png,image/False/imgf55.png,82,82,0,x,2.2330454000039026,None,0,82,82,82,293.3813297000015,,,,,,,294.8689557000034,294.3690473000024,294.37524549999944,294.37524549999944,294.86225130000093,295.9673005000004,295.9673005000004,x,2.2330454000039026,None,294.8689557000034,294.8689557000034,295.9673005000004,,,,,,,,PN_th,001,2025-03-14_19h37.53.528,MainFlow,2024.2.4,144.08495249242713,2025-03-14 19h38.00.695711 +0700,
1,26,1,word/wordth0261.png,image/True/img26.png,83,83,0,z,0.8059728000007453,None,0,83,83,83,298.2124160000021,,,,,,,299.7001381000009,299.2001956000022,299.20655270000134,299.20655270000134,299.69344139999885,300.81932300000335,300.81932300000335,z,0.8059728000007453,None,299.7001381000009,299.7001381000009,300.81932300000335,,,,,,,,PN_th,001,2025-03-14_19h37.53.528,MainFlow,2024.2.4,144.08495249242713,2025-03-14 19h38.00.695711 +0700,
1,28,0,word/wordth0281.png,image/False/imgf28.png,84,84,0,x,1.7218463000026532,None,0,84,84,84,301.638764000003,,,,,,,303.1341098000048,302.6292484000005,302.64057020000473,302.64057020000473,303.1274438000037,304.23246720000316,304.23246720000316,x,1.7218463000026532,None,303.1341098000048,303.1341098000048,304.23246720000316,,,,,,,,PN_th,001,2025-03-14_19h37.53.528,MainFlow,2024.2.4,144.08495249242713,2025-03-14 19h38.00.695711 +0700,
1,8,0,word/wordth0081.png,image/False/imgf08.png,85,85,0,x,0.49107760000333656,None,0,85,85,85,305.9625029000017,,,,,,,307.45094030000473,306.95131820000097,306.9569518999997,306.9569518999997,307.4442197000026,308.53521719999844,308.53521719999844,x,0.49107760000333656,None,307.45094030000473,307.45094030000473,308.53521719999844,,,,,,,,PN_th,001,2025-03-14_19h37.53.528,MainFlow,2024.2.4,144.08495249242713,2025-03-14 19h38.00.695711 +0700,
1,9,1,word/wordth0091.png,image/True/img09.png,86,86,0,z,0.5512888999946881,None,0,86,86,86,309.03585130000283,,,,,,,310.523434499999,310.0229748999991,310.0290710000045,310.0290710000045,310.51674040000216,311.58700490000047,311.58700490000047,z,0.5512888999946881,None,310.523434499999,310.523434499999,311.58700490000047,,,,,,,,PN_th,001,2025-03-14_19h37.53.528,MainFlow,2024.2.4,144.08495249242713,2025-03-14 19h38.00.695711 +0700,
1,78,1,word/wordth0781.png,image/True/img78.png,87,87,0,z,0.8214023999971687,None,0,87,87,87,312.1500610000003,,,,,,,313.64460959999997,313.1401616000003,313.151108500002,313.151108500002,313.6378951000006,314.7498932000017,314.7498932000017,z,0.8214023999971687,None,313.64460959999997,313.64460959999997,314.7498932000017,,,,,,,,PN_th,001,2025-03-14_19h37.53.528,MainFlow,2024.2.4,144.08495249242713,2025-03-14 19h38.00.695711 +0700,
1,1,0,word/wordth0011.png,image/False/imgf01.png,88,88,0,x,0.47119659999589203,None,0,88,88,88,315.5840357000052,,,,,,,317.0716203999982,316.57183230000373,316.57795050000277,316.57795050000277,317.06492580000486,318.1561001000009,318.1561001000009,x,0.47119659999589203,None,317.0716203999982,317.0716203999982,318.1561001000009,,,,,,,,PN_th,001,2025-03-14_19h37.53.528,MainFlow,2024.2.4,144.08495249242713,2025-03-14 19h38.00.695711 +0700,
1,71,1,word/wordth0711.png,image/True/img71.png,89,89,0,z,0.5127740000025369,None,0,89,89,89,318.63569909999933,,,,,,,320.1302463000029,319.62547740000446,319.6367007000008,319.6367007000008,320.1236127000011,321.23552210000344,321.23552210000344,z,0.5127740000025369,None,320.1302463000029,320.1302463000029,321.23552210000344,,,,,,,,PN_th,001,2025-03-14_19h37.53.528,MainFlow,2024.2.4,144.08495249242713,2025-03-14 19h38.00.695711 +0700,
1,93,1,word/wordth0931.png,image/True/img93.png,90,90,0,z,0.724451100002625,None,0,90,90,90,321.75686710000446,,,,,,,323.24444400000357,322.74455390000367,322.7507618000018,322.7507618000018,323.23776020000514,324.33584110000083,324.33584110000083,z,0.724451100002625,None,323.24444400000357,323.24444400000357,324.33584110000083,,,,,,,,PN_th,001,2025-03-14_19h37.53.528,MainFlow,2024.2.4,144.08495249242713,2025-03-14 19h38.00.695711 +0700,
1,78,0,word/wordth0781.png,image/False/imgf78.png,91,91,0,x,0.6086962999979733,None,0,91,91,91,325.07266430000163,,,,,,,326.56722869999794,326.06533760000457,326.07365500000014,326.07365500000014,326.56052289999934,327.6516421999986,327.6516421999986,x,0.6086962999979733,None,326.56722869999794,326.56722869999794,327.6516421999986,,,,,,,,PN_th,001,2025-03-14_19h37.53.528,MainFlow,2024.2.4,144.08495249242713,2025-03-14 19h38.00.695711 +0700,
1,8,0,word/wordth0081.png,image/False/imgf08.png,92,92,0,x,0.6109787999957916,None,0,92,92,92,328.27029259999836,,,,,,,329.7578945999994,329.2582259999981,329.26423620000423,329.26423620000423,329.7511979999981,330.8423272,330.8423272,x,0.6109787999957916,None,329.7578945999994,329.7578945999994,330.8423272,,,,,,,,PN_th,001,2025-03-14_19h37.53.528,MainFlow,2024.2.4,144.08495249242713,2025-03-14 19h38.00.695711 +0700,
1,9,0,word/wordth0091.png,image/False/imgf09.png,93,93,0,x,0.5561301999987336,None,0,93,93,93,331.46099010000034,,,,,,,332.94857870000124,332.4489270000049,332.4545977000016,332.4545977000016,332.94188700000086,334.02522500000487,334.02522500000487,x,0.5561301999987336,None,332.94857870000124,332.94857870000124,334.02522500000487,,,,,,,,PN_th,001,2025-03-14_19h37.53.528,MainFlow,2024.2.4,144.08495249242713,2025-03-14 19h38.00.695711 +0700,
1,75,1,word/wordth0751.png,image/True/img75.png,94,94,0,z,10.47436110000126,None,0,94,94,94,334.58912430000055,,,,,,,336.08364710000023,335.57906170000206,335.5901276000004,335.5901276000004,336.0769622000007,337.1889368999982,337.1889368999982,z,10.47436110000126,None,336.08364710000023,336.08364710000023,337.1889368999982,,,,,,,,PN_th,001,2025-03-14_19h37.53.528,MainFlow,2024.2.4,144.08495249242713,2025-03-14 19h38.00.695711 +0700,
1,95,0,word/wordth0951.png,image/False/imgf95.png,95,95,0,x,0.4908170999988215,None,0,95,95,95,347.67159990000073,,,,,,,349.15920259999984,348.6593814000007,348.66569549999986,348.66569549999986,349.1524922000026,350.2644758000024,350.2644758000024,x,0.4908170999988215,None,349.15920259999984,349.15920259999984,350.2644758000024,,,,,,,,PN_th,001,2025-03-14_19h37.53.528,MainFlow,2024.2.4,144.08495249242713,2025-03-14 19h38.00.695711 +0700,
1,70,1,word/wordth0701.png,image/True/img70.png,96,96,0,z,0.8166595000002417,None,0,96,96,96,350.76496050000424,,,,,,,352.25950379999995,351.75513109999883,351.7659638000041,351.7659638000041,352.2528990999999,353.3716387000022,353.3716387000022,z,0.8166595000002417,None,352.25950379999995,352.25950379999995,353.3716387000022,,,,,,,,PN_th,001,2025-03-14_19h37.53.528,MainFlow,2024.2.4,144.08495249242713,2025-03-14 19h38.00.695711 +0700,
1,94,0,word/wordth0941.png,image/False/imgf94.png,97,97,0,x,0.6556246000036481,None,0,97,97,97,354.19892000000254,,,,,,,355.686544199998,355.1869463000039,355.19254419999925,355.19254419999925,355.67982779999875,356.812671700005,356.812671700005,x,0.6556246000036481,None,355.686544199998,355.686544199998,356.812671700005,,,,,,,,PN_th,001,2025-03-14_19h37.53.528,MainFlow,2024.2.4,144.08495249242713,2025-03-14 19h38.00.695711 +0700,
1,9,0,word/wordth0091.png,image/False/imgf09.png,98,98,0,x,0.4402352000033716,None,0,98,98,98,357.47916680000344,,,,,,,358.9674681000033,358.4679125000039,358.4739750000008,358.4739750000008,358.9609238999983,360.04507040000317,360.04507040000317,x,0.4402352000033716,None,358.9674681000033,358.9674681000033,360.04507040000317,,,,,,,,PN_th,001,2025-03-14_19h37.53.528,MainFlow,2024.2.4,144.08495249242713,2025-03-14 19h38.00.695711 +0700,
1,18,0,word/wordth0181.png,image/False/imgf18.png,99,99,0,x,0.9855798999997205,None,0,99,99,99,360.4968927000009,,,,,,,361.98448030000145,361.4846472999998,361.49080420000246,361.49080420000246,361.9777752000009,363.0757142000002,363.0757142000002,x,0.9855798999997205,None,361.98448030000145,361.98448030000145,363.0757142000002,,,,,,,,PN_th,001,2025-03-14_19h37.53.528,MainFlow,2024.2.4,144.08495249242713,2025-03-14 19h38.00.695711 +0700,
1,28,1,word/wordth0281.png,image/True/img28.png,100,100,0,z,0.5696454999997513,None,0,100,100,100,364.06906909999816,,,,,,,365.55751990000135,365.05762620000314,365.0638020000042,365.0638020000042,365.5507800999985,366.6766514999981,366.6766514999981,z,0.5696454999997513,None,365.55751990000135,365.55751990000135,366.6766514999981,,,,,,,,PN_th,001,2025-03-14_19h37.53.528,MainFlow,2024.2.4,144.08495249242713,2025-03-14 19h38.00.695711 +0700,
1,23,1,word/wordth0231.png,image/True/img23.png,101,101,0,z,0.3757767999995849,None,0,101,101,101,367.2536448000028,,,,,,,368.74120889999904,368.2413813000021,368.24768320000294,368.24768320000294,368.7345032000012,369.8465146000017,369.8465146000017,z,0.3757767999995849,None,368.74120889999904,368.74120889999904,369.8465146000017,,,,,,,,PN_th,001,2025-03-14_19h37.53.528,MainFlow,2024.2.4,144.08495249242713,2025-03-14 19h38.00.695711 +0700,
1,30,0,word/wordth0301.png,image/False/imgf30.png,102,102,0,x,0.5995573000036529,None,0,102,102,102,370.2357912000007,,,,,,,371.7233714000031,371.22378949999984,371.2293890000001,371.2293890000001,371.7166565000007,372.81473460000416,372.81473460000416,x,0.5995573000036529,None,371.7233714000031,371.7233714000031,372.81473460000416,,,,,,,,PN_th,001,2025-03-14_19h37.53.528,MainFlow,2024.2.4,144.08495249242713,2025-03-14 19h38.00.695711 +0700,
1,11,1,word/wordth0111.png,image/True/img11.png,103,103,0,z,0.7180344999942463,None,0,103,103,103,373.42644719999953,,,,,,,374.9140353000039,374.4143236000018,374.4204095000023,374.4204095000023,374.9073847000036,376.03325179999956,376.03325179999956,z,0.7180344999942463,None,374.9140353000039,374.9140353000039,376.03325179999956,,,,,,,,PN_th,001,2025-03-14_19h37.53.528,MainFlow,2024.2.4,144.08495249242713,2025-03-14 19h38.00.695711 +0700,
1,75,0,word/wordth0751.png,image/False/imgf75.png,104,104,0,x,1.3300420000014128,None,0,104,104,104,376.7630790000039,,,,,,,378.2506837000037,377.75083789999917,377.7571902999989,377.7571902999989,378.24397930000123,379.3412509000045,379.3412509000045,x,1.3300420000014128,None,378.2506837000037,378.2506837000037,379.3412509000045,,,,,,,,PN_th,001,2025-03-14_19h37.53.528,MainFlow,2024.2.4,144.08495249242713,2025-03-14 19h38.00.695711 +0700,
1,6,0,word/wordth0061.png,image/False/imgf06.png,105,105,0,x,0.6016581000003498,None,0,105,105,105,380.68287509999936,,,,,,,382.17824620000465,381.6741099999999,381.68469330000516,381.68469330000516,382.1715378000008,383.26267070000176,383.26267070000176,x,0.6016581000003498,None,382.17824620000465,382.17824620000465,383.26267070000176,,,,,,,,PN_th,001,2025-03-14_19h37.53.528,MainFlow,2024.2.4,144.08495249242713,2025-03-14 19h38.00.695711 +0700,
1,27,1,word/wordth0271.png,image/True/img27.png,106,106,0,z,0.6677840999982436,None,0,106,106,106,383.8743778999997,,,,,,,385.36196210000344,384.862154800001,384.8682903000008,384.8682903000008,385.3552716000049,386.4525075999991,386.4525075999991,z,0.6677840999982436,None,385.36196210000344,385.36196210000344,386.4525075999991,,,,,,,,PN_th,001,2025-03-14_19h37.53.528,MainFlow,2024.2.4,144.08495249242713,2025-03-14 19h38.00.695711 +0700,
1,1,1,word/wordth0011.png,image/True/img01.png,107,107,0,z,0.498667400002887,None,0,107,107,107,387.13374450000265,,,,,,,388.622159999999,388.1223170000012,388.1284792000006,388.1284792000006,388.615481599998,389.7266297000024,389.7266297000024,z,0.498667400002887,None,388.622159999999,388.622159999999,389.7266297000024,,,,,,,,PN_th,001,2025-03-14_19h37.53.528,MainFlow,2024.2.4,144.08495249242713,2025-03-14 19h38.00.695711 +0700,
1,44,0,word/wordth0441.png,image/False/imgf44.png,108,108,0,x,1.848710000005667,None,0,108,108,108,390.23487380000006,,,,,,,391.7294380000021,391.2250509000005,391.2358994000024,391.2358994000024,391.7227419000046,392.84860350000235,392.84860350000235,x,1.848710000005667,None,391.7294380000021,391.7294380000021,392.84860350000235,,,,,,,,PN_th,001,2025-03-14_19h37.53.528,MainFlow,2024.2.4,144.08495249242713,2025-03-14 19h38.00.695711 +0700,
1,48,0,word/wordth0481.png,image/False/imgf48.png,109,109,0,x,0.5546936000027927,None,0,109,109,109,394.7044842000032,,,,,,,396.19223810000403,395.69242490000033,395.6985300000015,395.6985300000015,396.18551560000196,397.30361780000385,397.30361780000385,x,0.5546936000027927,None,396.19223810000403,396.19223810000403,397.30361780000385,,,,,,,,PN_th,001,2025-03-14_19h37.53.528,MainFlow,2024.2.4,144.08495249242713,2025-03-14 19h38.00.695711 +0700,
1,60,0,word/wordth0601.png,image/False/imgf60.png,110,110,0,x,0.5168195000005653,None,0,110,110,110,397.867087300001,,,,,,,399.35497990000295,398.8553685000006,398.86141090000456,398.86141090000456,399.3484422000038,400.45346860000427,400.45346860000427,x,0.5168195000005653,None,399.35497990000295,399.35497990000295,400.45346860000427,,,,,,,,PN_th,001,2025-03-14_19h37.53.528,MainFlow,2024.2.4,144.08495249242713,2025-03-14 19h38.00.695711 +0700,
1,96,1,word/wordth0961.png,image/True/img96.png,111,111,0,z,1.420689600003243,None,0,111,111,111,400.98171710000315,,,,,,,402.46931340000447,401.9703176000039,401.97493419999955,401.97493419999955,402.46248139999807,403.57459930000186,403.57459930000186,z,1.420689600003243,None,402.46931340000447,402.46931340000447,403.57459930000186,,,,,,,,PN_th,001,2025-03-14_19h37.53.528,MainFlow,2024.2.4,144.08495249242713,2025-03-14 19h38.00.695711 +0700,
1,79,0,word/wordth0791.png,image/False/imgf79.png,112,112,0,x,0.45187939999595983,None,0,112,112,112,405.0057409000001,,,,,,,406.4941624999992,405.9944625999997,406.00047690000065,406.00047690000065,406.4874598000024,407.5994428999984,407.5994428999984,x,0.45187939999595983,None,406.4941624999992,406.4941624999992,407.5994428999984,,,,,,,,PN_th,001,2025-03-14_19h37.53.528,MainFlow,2024.2.4,144.08495249242713,2025-03-14 19h38.00.695711 +0700,
1,7,0,word/wordth0071.png,image/False/imgf07.png,113,113,0,x,0.5111437999948976,None,0,113,113,113,408.0582246999984,,,,,,,409.54582749999827,409.04579139999987,409.05213280000316,409.05213280000316,409.5391052999985,410.64415310000186,410.64415310000186,x,0.5111437999948976,None,409.54582749999827,409.54582749999827,410.64415310000186,,,,,,,,PN_th,001,2025-03-14_19h37.53.528,MainFlow,2024.2.4,144.08495249242713,2025-03-14 19h38.00.695711 +0700,
1,36,0,word/wordth0361.png,image/False/imgf36.png,114,114,0,x,0.6368717000004835,None,0,114,114,114,411.1654683000015,,,,,,,412.6530765999996,412.15331629999855,412.15938540000207,412.15938540000207,412.64637539999967,413.7514205000043,413.7514205000043,x,0.6368717000004835,None,412.6530765999996,412.6530765999996,413.7514205000043,,,,,,,,PN_th,001,2025-03-14_19h37.53.528,MainFlow,2024.2.4,144.08495249242713,2025-03-14 19h38.00.695711 +0700,
1,71,0,word/wordth0711.png,image/False/imgf71.png,115,115,0,x,0.48765109999658307,None,0,115,115,115,414.3970468000043,,,,,,,415.8854625000022,415.38657480000256,415.3910999,415.3910999,415.8787719000029,417.00464510000165,417.00464510000165,x,0.48765109999658307,None,415.8854625000022,415.8854625000022,417.00464510000165,,,,,,,,PN_th,001,2025-03-14_19h37.53.528,MainFlow,2024.2.4,144.08495249242713,2025-03-14 19h38.00.695711 +0700,
1,20,0,word/wordth0201.png,image/False/imgf20.png,116,116,0,x,0.5342049000028055,None,0,116,116,116,417.5051304000008,,,,,,,418.9927447000009,418.492977599999,418.49905189999845,418.49905189999845,418.98602720000054,420.1110888000039,420.1110888000039,x,0.5342049000028055,None,418.9927447000009,418.9927447000009,420.1110888000039,,,,,,,,PN_th,001,2025-03-14_19h37.53.528,MainFlow,2024.2.4,144.08495249242713,2025-03-14 19h38.00.695711 +0700,
1,87,1,word/wordth0871.png,image/True/img87.png,117,117,0,z,0.423137300000235,None,0,117,117,117,420.65410520000296,,,,,,,422.14169330000004,421.64278139999806,421.647363600001,421.647363600001,422.13498500000424,423.24615469999844,423.24615469999844,z,0.423137300000235,None,422.14169330000004,422.14169330000004,423.24615469999844,,,,,,,,PN_th,001,2025-03-14_19h37.53.528,MainFlow,2024.2.4,144.08495249242713,2025-03-14 19h38.00.695711 +0700,
1,50,0,word/wordth0501.png,image/False/imgf50.png,118,118,0,x,0.4603475000039907,None,0,118,118,118,423.67796320000343,,,,,,,425.1655613000039,424.6657941000012,424.6718802000032,424.6718802000032,425.1588669000048,426.25694379999914,426.25694379999914,x,0.4603475000039907,None,425.1655613000039,425.1655613000039,426.25694379999914,,,,,,,,PN_th,001,2025-03-14_19h37.53.528,MainFlow,2024.2.4,144.08495249242713,2025-03-14 19h38.00.695711 +0700,
1,18,1,word/wordth0181.png,image/True/img18.png,119,119,0,z,0.521663699997589,None,0,119,119,119,426.7295019000012,,,,,,,428.2172189999983,427.7173794000046,427.7235331999982,427.7235331999982,428.2105412000019,429.30862660000275,429.30862660000275,z,0.521663699997589,None,428.2172189999983,428.2172189999983,429.30862660000275,,,,,,,,PN_th,001,2025-03-14_19h37.53.528,MainFlow,2024.2.4,144.08495249242713,2025-03-14 19h38.00.695711 +0700,
1,71,0,word/wordth0711.png,image/False/imgf71.png,120,120,0,x,0.4356790000019828,None,0,120,120,120,429.8438318000044,,,,,,,431.33141220000107,430.83174470000085,430.8374550000008,430.8374550000008,431.324746899998,432.45062090000283,432.45062090000283,x,0.4356790000019828,None,431.33141220000107,431.33141220000107,432.45062090000283,,,,,,,,PN_th,001,2025-03-14_19h37.53.528,MainFlow,2024.2.4,144.08495249242713,2025-03-14 19h38.00.695711 +0700,
1,46,1,word/wordth0461.png,image/True/img46.png,121,121,0,z,0.4003770999988774,None,0,121,121,121,432.8954885999992,,,,,,,434.38309850000223,433.88316530000156,433.8895277999982,433.8895277999982,434.3762671000004,435.4949315000049,435.4949315000049,z,0.4003770999988774,None,434.38309850000223,434.38309850000223,435.4949315000049,,,,,,,,PN_th,001,2025-03-14_19h37.53.528,MainFlow,2024.2.4,144.08495249242713,2025-03-14 19h38.00.695711 +0700,
1,10,1,word/wordth0101.png,image/True/img10.png,122,122,0,z,2.1388861000014003,None,0,122,122,122,435.9054419000022,,,,,,,437.3930414999995,436.8930651999981,436.899347999999,436.899347999999,437.3863545999993,438.4844108000034,438.4844108000034,z,2.1388861000014003,None,437.3930414999995,437.3930414999995,438.4844108000034,,,,,,,,PN_th,001,2025-03-14_19h37.53.528,MainFlow,2024.2.4,144.08495249242713,2025-03-14 19h38.00.695711 +0700,
1,16,0,word/wordth0161.png,image/False/imgf16.png,123,123,0,x,0.6951130000015837,None,0,123,123,123,440.63237300000037,,,,,,,442.1199873000005,441.6201519000024,441.6262873000014,441.6262873000014,442.1133039999986,443.2251821000027,443.2251821000027,x,0.6951130000015837,None,442.1199873000005,442.1199873000005,443.2251821000027,,,,,,,,PN_th,001,2025-03-14_19h37.53.528,MainFlow,2024.2.4,144.08495249242713,2025-03-14 19h38.00.695711 +0700,
1,15,0,word/wordth0151.png,image/False/imgf15.png,124,124,0,x,0.5030200999972294,None,0,124,124,124,443.9273203000048,,,,,,,445.4149174000049,444.91503830000147,444.9212247000032,444.9212247000032,445.40811589999794,446.5132700000031,446.5132700000031,x,0.5030200999972294,None,445.4149174000049,445.4149174000049,446.5132700000031,,,,,,,,PN_th,001,2025-03-14_19h37.53.528,MainFlow,2024.2.4,144.08495249242713,2025-03-14 19h38.00.695711 +0700,
1,59,0,word/wordth0591.png,image/False/imgf59.png,125,125,0,x,0.31940010000107577,None,0,125,125,125,447.0275185999999,,,,,,,448.51524910000444,448.01558070000465,448.0215931999992,448.0215931999992,448.5084190999987,449.5849288000027,449.5849288000027,x,0.31940010000107577,None,448.51524910000444,448.51524910000444,449.5849288000027,,,,,,,,PN_th,001,2025-03-14_19h37.53.528,MainFlow,2024.2.4,144.08495249242713,2025-03-14 19h38.00.695711 +0700,
1,11,0,word/wordth0111.png,image/False/imgf11.png,126,126,0,x,0.7140318000019761,None,0,126,126,126,449.91247139999905,,,,,,,451.40009940000164,450.9003306000013,450.9063859000016,450.9063859000016,451.39337669999804,452.51925779999874,452.51925779999874,x,0.7140318000019761,None,451.40009940000164,451.40009940000164,452.51925779999874,,,,,,,,PN_th,001,2025-03-14_19h37.53.528,MainFlow,2024.2.4,144.08495249242713,2025-03-14 19h38.00.695711 +0700,
1,75,1,word/wordth0751.png,image/True/img75.png,127,127,0,z,0.7580646999995224,None,0,127,127,127,453.2413480000032,,,,,,,454.7297531000004,454.22996350000176,454.2360856000014,454.2360856000014,454.7230681000001,455.82726560000447,455.82726560000447,z,0.7580646999995224,None,454.7297531000004,454.7297531000004,455.82726560000447,,,,,,,,PN_th,001,2025-03-14_19h37.53.528,MainFlow,2024.2.4,144.08495249242713,2025-03-14 19h38.00.695711 +0700,
1,33,1,word/wordth0331.png,image/True/img33.png,128,128,0,z,0.5617169000033755,None,0,128,128,128,456.59886910000205,,,,,,,458.0872929000034,457.5881234000044,457.5929127999989,457.5929127999989,458.0806112999999,459.1925734000033,459.1925734000033,z,0.5617169000033755,None,458.0872929000034,458.0872929000034,459.1925734000033,,,,,,,,PN_th,001,2025-03-14_19h37.53.528,MainFlow,2024.2.4,144.08495249242713,2025-03-14 19h38.00.695711 +0700,
1,66,0,word/wordth0661.png,image/False/imgf66.png,129,129,0,x,0.4859180999992532,None,0,129,129,129,459.76256390000344,,,,,,,461.25017189999926,460.7501123000038,460.7566166000033,460.7566166000033,461.2434652000011,462.34837820000394,462.34837820000394,x,0.4859180999992532,None,461.25017189999926,461.25017189999926,462.34837820000394,,,,,,,,PN_th,001,2025-03-14_19h37.53.528,MainFlow,2024.2.4,144.08495249242713,2025-03-14 19h38.00.695711 +0700,
1,38,1,word/wordth0381.png,image/True/img38.png,130,130,0,z,0.9030961999960709,None,0,130,130,130,462.84203569999954,,,,,,,464.33657289999974,463.8325560000012,463.8430345000015,463.8430345000015,464.329868599998,465.420197200001,465.420197200001,z,0.9030961999960709,None,464.33657289999974,464.33657289999974,465.420197200001,,,,,,,,PN_th,001,2025-03-14_19h37.53.528,MainFlow,2024.2.4,144.08495249242713,2025-03-14 19h38.00.695711 +0700,
1,38,1,word/wordth0381.png,image/True/img38.png,131,131,0,z,0.2597836999993888,None,0,131,131,131,466.3308032999994,,,,,,,467.81921400000283,467.31960860000254,467.32558090000384,467.32558090000384,467.8124706000017,468.90350559999933,468.90350559999933,z,0.2597836999993888,None,467.81921400000283,467.81921400000283,468.90350559999933,,,,,,,,PN_th,001,2025-03-14_19h37.53.528,MainFlow,2024.2.4,144.08495249242713,2025-03-14 19h38.00.695711 +0700,
1,63,1,word/wordth0631.png,image/True/img63.png,132,132,0,z,0.42663290000200504,None,0,132,132,132,469.174740800001,,,,,,,470.66232790000504,470.16236980000394,470.16883919999964,470.16883919999964,470.65562850000424,471.7606659000012,471.7606659000012,z,0.42663290000200504,None,470.66232790000504,470.66232790000504,471.7606659000012,,,,,,,,PN_th,001,2025-03-14_19h37.53.528,MainFlow,2024.2.4,144.08495249242713,2025-03-14 19h38.00.695711 +0700,
1,33,0,word/wordth0331.png,image/False/imgf33.png,133,133,0,x,0.6448794999960228,None,0,133,133,133,472.19858560000284,,,,,,,473.68619670000044,473.1863020000019,473.1924940000026,473.1924940000026,473.67949470000167,474.7914338999981,474.7914338999981,x,0.6448794999960228,None,473.68619670000044,473.68619670000044,474.7914338999981,,,,,,,,PN_th,001,2025-03-14_19h37.53.528,MainFlow,2024.2.4,144.08495249242713,2025-03-14 19h38.00.695711 +0700,
1,52,1,word/wordth0521.png,image/True/img52.png,134,134,0,z,1.3355712999982643,None,0,134,134,134,475.4448906000034,,,,,,,476.93248020000465,476.4325697000022,476.4389206000051,476.4389206000051,476.9257787000024,478.04472669999814,478.04472669999814,z,1.3355712999982643,None,476.93248020000465,476.93248020000465,478.04472669999814,,,,,,,,PN_th,001,2025-03-14_19h37.53.528,MainFlow,2024.2.4,144.08495249242713,2025-03-14 19h38.00.695711 +0700,
1,11,0,word/wordth0111.png,image/False/imgf11.png,135,135,0,x,0.5482013000000734,None,0,135,135,135,479.39243890000216,,,,,,,480.88086140000087,480.38114289999794,480.38717619999807,480.38717619999807,480.8741727000015,481.9930844999981,481.9930844999981,x,0.5482013000000734,None,480.88086140000087,480.88086140000087,481.9930844999981,,,,,,,,PN_th,001,2025-03-14_19h37.53.528,MainFlow,2024.2.4,144.08495249242713,2025-03-14 19h38.00.695711 +0700,
1,1,0,word/wordth0011.png,image/False/imgf01.png,136,136,0,x,0.7571222999977181,None,0,136,136,136,482.54917840000417,,,,,,,484.0367918000047,483.53692740000406,483.543101700001,483.543101700001,484.03006570000434,485.1281708000024,485.1281708000024,x,0.7571222999977181,None,484.0367918000047,484.0367918000047,485.1281708000024,,,,,,,,PN_th,001,2025-03-14_19h37.53.528,MainFlow,2024.2.4,144.08495249242713,2025-03-14 19h38.00.695711 +0700,
1,96,0,word/wordth0961.png,image/False/imgf96.png,137,137,0,x,0.6966258000029484,None,0,137,137,137,485.8989279000016,,,,,,,487.38734990000376,486.8874924000047,486.8936526000034,486.8936526000034,487.3806509999995,488.4856746000005,488.4856746000005,x,0.6966258000029484,None,487.38734990000376,487.38734990000376,488.4856746000005,,,,,,,,PN_th,001,2025-03-14_19h37.53.528,MainFlow,2024.2.4,144.08495249242713,2025-03-14 19h38.00.695711 +0700,
1,57,1,word/wordth0571.png,image/True/img57.png,138,138,0,z,0.658719300001394,None,0,138,138,138,489.19466900000407,,,,,,,490.6892388999986,490.18426410000393,490.1956926999992,490.1956926999992,490.6825448000018,491.78757410000253,491.78757410000253,z,0.658719300001394,None,490.6892388999986,490.6892388999986,491.78757410000253,,,,,,,,PN_th,001,2025-03-14_19h37.53.528,MainFlow,2024.2.4,144.08495249242713,2025-03-14 19h38.00.695711 +0700,
1,30,1,word/wordth0301.png,image/True/img30.png,139,139,0,z,0.5734062000046833,None,0,139,139,139,492.4548836000031,,,,,,,493.94249140000466,493.4428861000051,493.4488322000034,493.4488322000034,493.935808000002,495.03388319999794,495.03388319999794,z,0.5734062000046833,None,493.94249140000466,493.94249140000466,495.03388319999794,,,,,,,,PN_th,001,2025-03-14_19h37.53.528,MainFlow,2024.2.4,144.08495249242713,2025-03-14 19h38.00.695711 +0700,
1,41,1,word/wordth0411.png,image/True/img41.png,140,140,0,z,0.500704099998984,None,0,140,140,140,495.61779319999914,,,,,,,497.10536839999986,496.605481700004,496.6118495000046,496.6118495000046,497.0986558000004,498.21067369999946,498.21067369999946,z,0.500704099998984,None,497.10536839999986,497.10536839999986,498.21067369999946,,,,,,,,PN_th,001,2025-03-14_19h37.53.528,MainFlow,2024.2.4,144.08495249242713,2025-03-14 19h38.00.695711 +0700,
1,50,1,word/wordth0501.png,image/True/img50.png,141,141,0,z,0.36846499999955995,None,0,141,141,141,498.72504019999906,,,,,,,500.2126359000031,499.7130118999994,499.7190033000006,499.7190033000006,500.20593270000245,501.31084170000395,501.31084170000395,z,0.36846499999955995,None,500.2126359000031,500.2126359000031,501.31084170000395,,,,,,,,PN_th,001,2025-03-14_19h37.53.528,MainFlow,2024.2.4,144.08495249242713,2025-03-14 19h38.00.695711 +0700,
1,3,0,word/wordth0031.png,image/False/imgf03.png,142,142,0,x,0.44702269999834243,None,0,142,142,142,501.68631740000274,,,,,,,503.1739349999989,502.6739202000026,502.6804445000016,502.6804445000016,503.1671911000012,504.2653217000043,504.2653217000043,x,0.44702269999834243,None,503.1739349999989,503.1739349999989,504.2653217000043,,,,,,,,PN_th,001,2025-03-14_19h37.53.528,MainFlow,2024.2.4,144.08495249242713,2025-03-14 19h38.00.695711 +0700,
1,78,1,word/wordth0781.png,image/True/img78.png,143,143,0,z,0.3852393999986816,None,0,143,143,143,504.72409170000174,,,,,,,506.21167530000093,505.7118430000046,505.7179916000023,505.7179916000023,506.2049890999988,507.3030549000032,507.3030549000032,z,0.3852393999986816,None,506.21167530000093,506.21167530000093,507.3030549000032,,,,,,,,PN_th,001,2025-03-14_19h37.53.528,MainFlow,2024.2.4,144.08495249242713,2025-03-14 19h38.00.695711 +0700,
1,76,0,word/wordth0761.png,image/False/imgf76.png,144,144,0,x,0.5502033000011579,None,0,144,144,144,507.69928739999887,,,,,,,509.1868783000027,508.68714020000334,508.69290660000115,508.69290660000115,509.18015820000437,510.2991108999995,510.2991108999995,x,0.5502033000011579,None,509.1868783000027,509.1868783000027,510.2991108999995,,,,,,,,PN_th,001,2025-03-14_19h37.53.528,MainFlow,2024.2.4,144.08495249242713,2025-03-14 19h38.00.695711 +0700,
1,6,1,word/wordth0061.png,image/True/img06.png,145,145,0,z,0.6472645000030752,None,0,145,145,145,510.8621301000021,,,,,,,512.3497179000042,511.84970990000147,511.85625789999904,511.85625789999904,512.3430932999981,513.4340453000041,513.4340453000041,z,0.6472645000030752,None,512.3497179000042,512.3497179000042,513.4340453000041,,,,,,,,PN_th,001,2025-03-14_19h37.53.528,MainFlow,2024.2.4,144.08495249242713,2025-03-14 19h38.00.695711 +0700,
1,31,0,word/wordth0311.png,image/False/imgf31.png,146,146,0,x,0.724647000002733,None,0,146,146,146,514.0945359000034,,,,,,,515.582141800005,515.0822920999999,515.0886527000039,515.0886527000039,515.5754578000051,516.6526436999993,516.6526436999993,x,0.724647000002733,None,515.582141800005,515.582141800005,516.6526436999993,,,,,,,,PN_th,001,2025-03-14_19h37.53.528,MainFlow,2024.2.4,144.08495249242713,2025-03-14 19h38.00.695711 +0700,
1,22,0,word/wordth0221.png,image/False/imgf22.png,147,147,0,x,0.492971600004239,None,0,147,147,147,517.389430700001,,,,,,,518.877118000004,518.377223800002,518.3834046000047,518.3834046000047,518.870356899999,519.9893420000008,519.9893420000008,x,0.492971600004239,None,518.877118000004,518.877118000004,519.9893420000008,,,,,,,,PN_th,001,2025-03-14_19h37.53.528,MainFlow,2024.2.4,144.08495249242713,2025-03-14 19h38.00.695711 +0700,
1,28,0,word/wordth0281.png,image/False/imgf28.png,148,148,0,x,0.5023536999942735,None,0,148,148,148,520.4898174000045,,,,,,,521.9774030000044,521.4775678000005,521.4837179000024,521.4837179000024,521.9706958000024,523.0679406999989,523.0679406999989,x,0.5023536999942735,None,521.9774030000044,521.9774030000044,523.0679406999989,,,,,,,,PN_th,001,2025-03-14_19h37.53.528,MainFlow,2024.2.4,144.08495249242713,2025-03-14 19h38.00.695711 +0700,
1,57,0,word/wordth0571.png,image/False/imgf57.png,149,149,0,x,0.6192471999966074,None,0,149,149,149,523.583154400003,,,,,,,525.0707621000038,524.5708879000013,524.5772542999985,524.5772542999985,525.064054100003,526.1760439999998,526.1760439999998,x,0.6192471999966074,None,525.0707621000038,525.0707621000038,526.1760439999998,,,,,,,,PN_th,001,2025-03-14_19h37.53.528,MainFlow,2024.2.4,144.08495249242713,2025-03-14 19h38.00.695711 +0700,
1,7,0,word/wordth0071.png,image/False/imgf07.png,150,150,0,x,0.5207706000001053,None,0,150,150,150,526.8086154000048,,,,,,,528.2962527999989,527.7962045000022,527.8026441000038,527.8026441000038,528.2896150000015,529.3945347000044,529.3945347000044,x,0.5207706000001053,None,528.2962527999989,528.2962527999989,529.3945347000044,,,,,,,,PN_th,001,2025-03-14_19h37.53.528,MainFlow,2024.2.4,144.08495249242713,2025-03-14 19h38.00.695711 +0700,
1,56,1,word/wordth0561.png,image/True/img56.png,151,151,0,z,0.5335998999944422,None,0,151,151,151,529.9228251000022,,,,,,,531.4104321999985,530.9107150999989,530.9167258000016,530.9167258000016,531.4037521999999,532.501689100005,532.501689100005,z,0.5335998999944422,None,531.4104321999985,531.4104321999985,532.501689100005,,,,,,,,PN_th,001,2025-03-14_19h37.53.528,MainFlow,2024.2.4,144.08495249242713,2025-03-14 19h38.00.695711 +0700,
1,6,0,word/wordth0061.png,image/False/imgf06.png,152,152,0,x,0.5722909000032814,None,0,152,152,152,533.0440073999998,,,,,,,534.5315952000019,534.0307434999995,534.0372228000051,534.0372228000051,534.5249106999981,535.6160224999985,535.6160224999985,x,0.5722909000032814,None,534.5315952000019,534.5315952000019,535.6160224999985,,,,,,,,PN_th,001,2025-03-14_19h37.53.528,MainFlow,2024.2.4,144.08495249242713,2025-03-14 19h38.00.695711 +0700,
1,36,0,word/wordth0361.png,image/False/imgf36.png,153,153,0,x,0.5853987999944366,None,0,153,153,153,536.1998082999999,,,,,,,537.687517899998,537.1877132000009,537.1938382000008,537.1938382000008,537.6808285000006,538.778910699999,538.778910699999,x,0.5853987999944366,None,537.687517899998,537.687517899998,538.778910699999,,,,,,,,PN_th,001,2025-03-14_19h37.53.528,MainFlow,2024.2.4,144.08495249242713,2025-03-14 19h38.00.695711 +0700,
1,79,1,word/wordth0791.png,image/True/img79.png,154,154,0,z,0.9110049000009894,None,0,154,154,154,539.3766991000011,,,,,,,540.8713454000026,540.366492000001,540.3777182000049,540.3777182000049,540.8645504000015,541.9903073000023,541.9903073000023,z,0.9110049000009894,None,540.8713454000026,540.8713454000026,541.9903073000023,,,,,,,,PN_th,001,2025-03-14_19h37.53.528,MainFlow,2024.2.4,144.08495249242713,2025-03-14 19h38.00.695711 +0700,
1,52,0,word/wordth0521.png,image/False/imgf52.png,155,155,0,x,0.5663091999958851,None,0,155,155,155,542.914123100003,,,,,,,544.4025450000045,543.9026968000035,543.9088983000038,543.9088983000038,544.3958446000033,545.4869785999981,545.4869785999981,x,0.5663091999958851,None,544.4025450000045,544.4025450000045,545.4869785999981,,,,,,,,PN_th,001,2025-03-14_19h37.53.528,MainFlow,2024.2.4,144.08495249242713,2025-03-14 19h38.00.695711 +0700,
1,18,0,word/wordth0181.png,image/False/imgf18.png,156,156,0,x,0.5172699000031571,None,0,156,156,156,546.063939300002,,,,,,,547.5515186999983,547.051658700002,547.0578328999982,547.0578328999982,547.5448225,548.6490153999985,548.6490153999985,x,0.5172699000031571,None,547.5515186999983,547.5515186999983,548.6490153999985,,,,,,,,PN_th,001,2025-03-14_19h37.53.528,MainFlow,2024.2.4,144.08495249242713,2025-03-14 19h38.00.695711 +0700,
1,23,1,word/wordth0231.png,image/True/img23.png,157,157,0,z,0.6503721999979462,None,0,157,157,157,549.1773197000002,,,,,,,550.6657357000004,550.1651658000046,550.172196200001,550.172196200001,550.6590524999992,551.7639240999997,551.7639240999997,z,0.6503721999979462,None,550.6657357000004,550.6657357000004,551.7639240999997,,,,,,,,PN_th,001,2025-03-14_19h37.53.528,MainFlow,2024.2.4,144.08495249242713,2025-03-14 19h38.00.695711 +0700,
1,61,1,word/wordth0611.png,image/True/img61.png,158,158,0,z,0.7399240000013378,None,0,158,158,158,552.4244513000012,,,,,,,553.9120276000031,553.4124819999997,553.418124900003,553.418124900003,553.9053569000025,555.0103665999995,555.0103665999995,z,0.7399240000013378,None,553.9120276000031,553.9120276000031,555.0103665999995,,,,,,,,PN_th,001,2025-03-14_19h37.53.528,MainFlow,2024.2.4,144.08495249242713,2025-03-14 19h38.00.695711 +0700,
1,44,1,word/wordth0441.png,image/True/img44.png,159,159,0,z,0.7643792000017129,None,0,159,159,159,555.7602761000016,,,,,,,557.2486929000006,556.7490951,556.7543236999991,556.7543236999991,557.242003600004,558.3469140000016,558.3469140000016,z,0.7643792000017129,None,557.2486929000006,557.2486929000006,558.3469140000016,,,,,,,,PN_th,001,2025-03-14_19h37.53.528,MainFlow,2024.2.4,144.08495249242713,2025-03-14 19h38.00.695711 +0700,
1,10,1,word/wordth0101.png,image/True/img10.png,160,160,0,z,0.4776914000030956,None,0,160,160,160,559.1186295000007,,,,,,,560.6062039000026,560.1063292000035,560.1127005000017,560.1127005000017,560.5995557999995,561.697602500004,561.697602500004,z,0.4776914000030956,None,560.6062039000026,560.6062039000026,561.697602500004,,,,,,,,PN_th,001,2025-03-14_19h37.53.528,MainFlow,2024.2.4,144.08495249242713,2025-03-14 19h38.00.695711 +0700,
1,31,1,word/wordth0311.png,image/True/img31.png,161,161,0,z,0.5811357999991742,None,0,161,161,161,562.1841691000009,,,,,,,563.6717627000035,563.1719499000028,563.1781093000027,563.1781093000027,563.6650800999996,564.763151799998,564.763151799998,z,0.5811357999991742,None,563.6717627000035,563.6717627000035,564.763151799998,,,,,,,,PN_th,001,2025-03-14_19h37.53.528,MainFlow,2024.2.4,144.08495249242713,2025-03-14 19h38.00.695711 +0700,
1,14,0,word/wordth0141.png,image/False/imgf14.png,162,162,0,x,0.6843674999981886,None,0,162,162,162,565.3531749000031,,,,,,,566.8416027999992,566.3417559000009,566.3479112999994,566.3479112999994,566.8349041000038,567.9399177000014,567.9399177000014,x,0.6843674999981886,None,566.8416027999992,566.8416027999992,567.9399177000014,,,,,,,,PN_th,001,2025-03-14_19h37.53.528,MainFlow,2024.2.4,144.08495249242713,2025-03-14 19h38.00.695711 +0700,
1,15,0,word/wordth0151.png,image/False/imgf15.png,163,163,0,x,0.49231040000449866,None,0,163,163,163,568.6350926000014,,,,,,,570.1226411000025,569.6229279000036,569.6289687000026,569.6289687000026,570.1159589000017,571.2209763999999,571.2209763999999,x,0.49231040000449866,None,570.1226411000025,570.1226411000025,571.2209763999999,,,,,,,,PN_th,001,2025-03-14_19h37.53.528,MainFlow,2024.2.4,144.08495249242713,2025-03-14 19h38.00.695711 +0700,
1,51,1,word/wordth0511.png,image/True/img51.png,164,164,0,z,0.5669405000007828,None,0,164,164,164,571.7214581000007,,,,,,,573.2090917000023,572.7092869000044,572.7153728000048,572.7153728000048,573.2023539000002,574.3143525999985,574.3143525999985,z,0.5669405000007828,None,573.2090917000023,573.2090917000023,574.3143525999985,,,,,,,,PN_th,001,2025-03-14_19h37.53.528,MainFlow,2024.2.4,144.08495249242713,2025-03-14 19h38.00.695711 +0700,
1,82,1,word/wordth0821.png,image/True/img82.png,165,165,0,z,0.5518751000054181,None,0,165,165,165,574.8912733000034,,,,,,,576.3788669999994,575.8788579000029,575.8853730000046,575.8853730000046,576.3721761999986,577.449420099998,577.449420099998,z,0.5518751000054181,None,576.3788669999994,576.3788669999994,577.449420099998,,,,,,,,PN_th,001,2025-03-14_19h37.53.528,MainFlow,2024.2.4,144.08495249242713,2025-03-14 19h38.00.695711 +0700,
1,27,0,word/wordth0271.png,image/False/imgf27.png,166,166,0,x,0.5996971000058693,None,0,166,166,166,578.0124608000042,,,,,,,579.5000651000009,579.0003361999989,579.0064042000013,579.0064042000013,579.4933540999991,580.5905987000006,580.5905987000006,x,0.5996971000058693,None,579.5000651000009,579.5000651000009,580.5905987000006,,,,,,,,PN_th,001,2025-03-14_19h37.53.528,MainFlow,2024.2.4,144.08495249242713,2025-03-14 19h38.00.695711 +0700,
1,78,0,word/wordth0781.png,image/False/imgf78.png,167,167,0,x,0.8462360999983503,None,0,167,167,167,581.203024800001,,,,,,,582.6907369000037,582.1909379999997,582.1970841000002,582.1970841000002,582.6840354000014,583.7680640000035,583.7680640000035,x,0.8462360999983503,None,582.6907369000037,582.6907369000037,583.7680640000035,,,,,,,,PN_th,001,2025-03-14_19h37.53.528,MainFlow,2024.2.4,144.08495249242713,2025-03-14 19h38.00.695711 +0700,
1,89,1,word/wordth0891.png,image/True/img89.png,168,168,0,z,0.44403349999629427,None,0,168,168,168,584.6224040000016,,,,,,,586.1108249000026,585.6112324999995,585.616857699999,585.616857699999,586.1041311000008,587.1952518000035,587.1952518000035,z,0.44403349999629427,None,586.1108249000026,586.1108249000026,587.1952518000035,,,,,,,,PN_th,001,2025-03-14_19h37.53.528,MainFlow,2024.2.4,144.08495249242713,2025-03-14 19h38.00.695711 +0700,
1,76,1,word/wordth0761.png,image/True/img76.png,169,169,0,z,0.606308700000227,None,0,169,169,169,587.646954200005,,,,,,,589.1346810000032,588.6350319999983,588.6410372000028,588.6410372000028,589.1279638999986,590.2329997999987,590.2329997999987,z,0.606308700000227,None,589.1346810000032,589.1346810000032,590.2329997999987,,,,,,,,PN_th,001,2025-03-14_19h37.53.528,MainFlow,2024.2.4,144.08495249242713,2025-03-14 19h38.00.695711 +0700,
1,17,0,word/wordth0171.png,image/False/imgf17.png,170,170,0,x,0.4989084999979241,None,0,170,170,170,590.8516897000009,,,,,,,592.3392664999992,591.8394934000025,591.8455637000006,591.8455637000006,592.3325416000007,593.444390100005,593.444390100005,x,0.4989084999979241,None,592.3392664999992,592.3392664999992,593.444390100005,,,,,,,,PN_th,001,2025-03-14_19h37.53.528,MainFlow,2024.2.4,144.08495249242713,2025-03-14 19h38.00.695711 +0700,
1,95,1,word/wordth0951.png,image/True/img95.png,171,171,0,z,1.313558900001226,None,0,171,171,171,593.9511444000018,,,,,,,595.4395710000026,594.9389760000049,594.9451973000032,594.9451973000032,595.432922400003,596.5587449000013,596.5587449000013,z,1.313558900001226,None,595.4395710000026,595.4395710000026,596.5587449000013,,,,,,,,PN_th,001,2025-03-14_19h37.53.528,MainFlow,2024.2.4,144.08495249242713,2025-03-14 19h38.00.695711 +0700,
1,61,0,word/wordth0611.png,image/False/imgf61.png,172,172,0,x,1.4987951000002795,None,0,172,172,172,597.885632999998,,,,,,,599.3740279000049,598.8745513000031,598.880063800003,598.880063800003,599.367396200003,600.4784949000023,600.4784949000023,x,1.4987951000002795,None,599.3740279000049,599.3740279000049,600.4784949000023,,,,,,,,PN_th,001,2025-03-14_19h37.53.528,MainFlow,2024.2.4,144.08495249242713,2025-03-14 19h38.00.695711 +0700,
1,82,1,word/wordth0821.png,image/True/img82.png,173,173,0,z,0.511445799995272,None,0,173,173,173,601.9869309999995,,,,,,,603.4753555999996,602.9753821999984,602.9816702000026,602.9816702000026,603.4686633000019,604.5458813000005,604.5458813000005,z,0.511445799995272,None,603.4753555999996,603.4753555999996,604.5458813000005,,,,,,,,PN_th,001,2025-03-14_19h37.53.528,MainFlow,2024.2.4,144.08495249242713,2025-03-14 19h38.00.695711 +0700,
1,14,1,word/wordth0141.png,image/True/img14.png,174,174,0,z,0.6931798000005074,None,0,174,174,174,605.0672325999985,,,,,,,606.5548249999993,606.0549195999993,606.0612371000025,606.0612371000025,606.5481054999982,607.660114899998,607.660114899998,z,0.6931798000005074,None,606.5548249999993,606.5548249999993,607.660114899998,,,,,,,,PN_th,001,2025-03-14_19h37.53.528,MainFlow,2024.2.4,144.08495249242713,2025-03-14 19h38.00.695711 +0700,
1,38,0,word/wordth0381.png,image/False/imgf38.png,175,175,0,x,0.8423978999999235,None,0,175,175,175,608.362174300004,,,,,,,609.8497722000029,609.3502178999988,609.3554033000037,609.3554033000037,609.8430967000022,610.975903999999,610.975903999999,x,0.8423978999999235,None,609.8497722000029,609.8497722000029,610.975903999999,,,,,,,,PN_th,001,2025-03-14_19h37.53.528,MainFlow,2024.2.4,144.08495249242713,2025-03-14 19h38.00.695711 +0700,
1,17,0,word/wordth0171.png,image/False/imgf17.png,176,176,0,x,0.5385093000004417,None,0,176,176,176,611.830080300002,,,,,,,613.3181038000039,612.8187113000022,612.8248132000008,612.8248132000008,613.3116426000051,614.423790300003,614.423790300003,x,0.5385093000004417,None,613.3181038000039,613.3181038000039,614.423790300003,,,,,,,,PN_th,001,2025-03-14_19h37.53.528,MainFlow,2024.2.4,144.08495249242713,2025-03-14 19h38.00.695711 +0700,
1,42,0,word/wordth0421.png,image/False/imgf42.png,177,177,0,x,0.44771030000265455,None,0,177,177,177,614.9729183000018,,,,,,,616.4674854000041,615.9678611999989,615.9734989999997,615.9734989999997,616.4607891000051,617.5795795000013,617.5795795000013,x,0.44771030000265455,None,616.4674854000041,616.4674854000041,617.5795795000013,,,,,,,,PN_th,001,2025-03-14_19h37.53.528,MainFlow,2024.2.4,144.08495249242713,2025-03-14 19h38.00.695711 +0700,
1,24,1,word/wordth0241.png,image/True/img24.png,178,178,0,z,0.5186858000015491,None,0,178,178,178,618.0384839000035,,,,,,,619.5260790000029,619.0261535000027,619.0323753000048,619.0323753000048,619.5193673000031,620.5966088999994,620.5966088999994,z,0.5186858000015491,None,619.5260790000029,619.5260790000029,620.5966088999994,,,,,,,,PN_th,001,2025-03-14_19h37.53.528,MainFlow,2024.2.4,144.08495249242713,2025-03-14 19h38.00.695711 +0700,
1,51,1,word/wordth0511.png,image/True/img51.png,179,179,0,z,0.36655409999366384,None,0,179,179,179,621.1249094000013,,,,,,,622.6125025000001,622.1127091000017,622.1188264000011,622.1188264000011,622.6058105000047,623.7247373999999,623.7247373999999,z,0.36655409999366384,None,622.6125025000001,622.6125025000001,623.7247373999999,,,,,,,,PN_th,001,2025-03-14_19h37.53.528,MainFlow,2024.2.4,144.08495249242713,2025-03-14 19h38.00.695711 +0700,
1,24,0,word/wordth0241.png,image/False/imgf24.png,180,180,0,x,0.49334510000335285,None,0,180,180,180,624.1000703000027,,,,,,,625.5876791000046,625.0878176000042,625.0939827000038,625.0939827000038,625.5809531999985,626.6789516999997,626.6789516999997,x,0.49334510000335285,None,625.5876791000046,625.5876791000046,626.6789516999997,,,,,,,,PN_th,001,2025-03-14_19h37.53.528,MainFlow,2024.2.4,144.08495249242713,2025-03-14 19h38.00.695711 +0700,
1,23,0,word/wordth0231.png,image/False/imgf23.png,181,181,0,x,0.459063000002061,None,0,181,181,181,627.179563800004,,,,,,,628.6671553000051,628.1674794999999,628.1734718000007,628.1734718000007,628.6604711000036,629.7933016000025,629.7933016000025,x,0.459063000002061,None,628.6671553000051,628.6671553000051,629.7933016000025,,,,,,,,PN_th,001,2025-03-14_19h37.53.528,MainFlow,2024.2.4,144.08495249242713,2025-03-14 19h38.00.695711 +0700,
1,6,1,word/wordth0061.png,image/True/img06.png,182,182,0,z,2.5194677999970736,None,0,182,182,182,630.2659428000043,,,,,,,631.7535476000048,631.2535088000004,631.2600125000026,631.2600125000026,631.7468525000004,632.8378320000047,632.8378320000047,z,2.5194677999970736,None,631.7535476000048,631.7535476000048,632.8378320000047,,,,,,,,PN_th,001,2025-03-14_19h37.53.528,MainFlow,2024.2.4,144.08495249242713,2025-03-14 19h38.00.695711 +0700,
1,93,1,word/wordth0931.png,image/True/img93.png,183,183,0,z,0.6490241999999853,None,0,183,183,183,635.3682989000008,,,,,,,636.8558621999982,636.3561332000027,636.3621907000052,636.3621907000052,636.8491919000007,637.9402652999997,637.9402652999997,z,0.6490241999999853,None,636.8558621999982,636.8558621999982,637.9402652999997,,,,,,,,PN_th,001,2025-03-14_19h37.53.528,MainFlow,2024.2.4,144.08495249242713,2025-03-14 19h38.00.695711 +0700,
1,38,0,word/wordth0381.png,image/False/imgf38.png,184,184,0,x,3.31085229999735,None,0,184,184,184,638.6006769000014,,,,,,,640.0882640999989,639.5885439000049,639.5946216000011,639.5946216000011,640.0816089,641.2074696999989,641.2074696999989,x,3.31085229999735,None,640.0882640999989,640.0882640999989,641.2074696999989,,,,,,,,PN_th,001,2025-03-14_19h37.53.528,MainFlow,2024.2.4,144.08495249242713,2025-03-14 19h38.00.695711 +0700,
1,57,1,word/wordth0571.png,image/True/img57.png,185,185,0,z,0.25832790000276873,None,0,185,185,185,644.5302028000006,,,,,,,646.0177869000036,645.5178911000039,645.524143900002,645.524143900002,646.0110815000007,647.1159823999988,647.1159823999988,z,0.25832790000276873,None,646.0177869000036,646.0177869000036,647.1159823999988,,,,,,,,PN_th,001,2025-03-14_19h37.53.528,MainFlow,2024.2.4,144.08495249242713,2025-03-14 19h38.00.695711 +0700,
1,40,1,word/wordth0401.png,image/True/img40.png,186,186,0,z,0.6943544000023394,None,0,186,186,186,647.3872087999989,,,,,,,648.8748062000013,648.3747745000001,648.3812428000019,648.3812428000019,648.8681242000021,650.0009429999991,650.0009429999991,z,0.6943544000023394,None,648.8748062000013,648.8748062000013,650.0009429999991,,,,,,,,PN_th,001,2025-03-14_19h37.53.528,MainFlow,2024.2.4,144.08495249242713,2025-03-14 19h38.00.695711 +0700,
1,50,0,word/wordth0501.png,image/False/imgf50.png,187,187,0,x,0.485273899997992,None,0,187,187,187,650.7029972000018,,,,,,,652.190591300001,651.690869099999,651.6969121000002,651.6969121000002,652.1839021000051,653.2820149000036,653.2820149000036,x,0.485273899997992,None,652.190591300001,652.190591300001,653.2820149000036,,,,,,,,PN_th,001,2025-03-14_19h37.53.528,MainFlow,2024.2.4,144.08495249242713,2025-03-14 19h38.00.695711 +0700,
1,66,0,word/wordth0661.png,image/False/imgf66.png,188,188,0,x,0.6558816000033403,None,0,188,188,188,653.7755357999995,,,,,,,655.2631299999994,654.7631813000044,654.7694382000045,654.7694382000045,655.2564534999983,656.3684050000011,656.3684050000011,x,0.6558816000033403,None,655.2631299999994,655.2631299999994,656.3684050000011,,,,,,,,PN_th,001,2025-03-14_19h37.53.528,MainFlow,2024.2.4,144.08495249242713,2025-03-14 19h38.00.695711 +0700,
1,44,0,word/wordth0441.png,image/False/imgf44.png,189,189,0,x,1.6927748000016436,None,0,189,189,189,657.0349092000033,,,,,,,658.5233244999981,658.0235805000048,658.0296721999985,658.0296721999985,658.5166272999995,659.6355528999993,659.6355528999993,x,1.6927748000016436,None,658.5233244999981,658.5233244999981,659.6355528999993,,,,,,,,PN_th,001,2025-03-14_19h37.53.528,MainFlow,2024.2.4,144.08495249242713,2025-03-14 19h38.00.695711 +0700,
1,75,0,word/wordth0751.png,image/False/imgf75.png,190,190,0,x,0.4278316000054474,None,0,190,190,190,661.3378008,,,,,,,662.8262173000039,662.3264628000034,662.3325425000003,662.3325425000003,662.8195312000025,663.9174569000024,663.9174569000024,x,0.4278316000054474,None,662.8262173000039,662.8262173000039,663.9174569000024,,,,,,,,PN_th,001,2025-03-14_19h37.53.528,MainFlow,2024.2.4,144.08495249242713,2025-03-14 19h38.00.695711 +0700,
1,31,0,word/wordth0311.png,image/False/imgf31.png,191,191,0,x,0.4716608000017004,None,0,191,191,191,664.3555229999984,,,,,,,665.843131200003,665.3433387000041,665.3494267999995,665.3494267999995,665.8364294999992,666.9136322000049,666.9136322000049,x,0.4716608000017004,None,665.843131200003,665.843131200003,666.9136322000049,,,,,,,,PN_th,001,2025-03-14_19h37.53.528,MainFlow,2024.2.4,144.08495249242713,2025-03-14 19h38.00.695711 +0700,
1,87,1,word/wordth0871.png,image/True/img87.png,192,192,0,z,1.024139600005583,None,0,192,192,192,667.3933431000041,,,,,,,668.8808868999986,668.3809851000042,668.3871877999991,668.3871877999991,668.874190399998,669.9861644999983,669.9861644999983,z,1.024139600005583,None,668.8808868999986,668.8808868999986,669.9861644999983,,,,,,,,PN_th,001,2025-03-14_19h37.53.528,MainFlow,2024.2.4,144.08495249242713,2025-03-14 19h38.00.695711 +0700,
1,33,1,word/wordth0331.png,image/True/img33.png,193,193,0,z,0.6184715999988839,None,0,193,193,193,671.0210668,,,,,,,672.5093756999995,672.0097233000051,672.0158403000023,672.0158403000023,672.5028294000003,673.6078207000028,673.6078207000028,z,0.6184715999988839,None,672.5093756999995,672.5093756999995,673.6078207000028,,,,,,,,PN_th,001,2025-03-14_19h37.53.528,MainFlow,2024.2.4,144.08495249242713,2025-03-14 19h38.00.695711 +0700,
1,70,0,word/wordth0701.png,image/False/imgf70.png,194,194,0,x,1.2077131000041845,None,0,194,194,194,674.2334540000011,,,,,,,675.721023099999,675.2211749999988,675.2273571000042,675.2273571000042,675.7143246999985,676.8115779,676.8115779,x,1.2077131000041845,None,675.721023099999,675.721023099999,676.8115779,,,,,,,,PN_th,001,2025-03-14_19h37.53.528,MainFlow,2024.2.4,144.08495249242713,2025-03-14 19h38.00.695711 +0700,
1,27,1,word/wordth0271.png,image/True/img27.png,195,195,0,z,0.6682824000017717,None,0,195,195,195,678.0288722000041,,,,,,,679.5163487000027,679.0166299000048,679.0227945000006,679.0227945000006,679.5097712999996,680.6070247000025,680.6070247000025,z,0.6682824000017717,None,679.5163487000027,679.5163487000027,680.6070247000025,,,,,,,,PN_th,001,2025-03-14_19h37.53.528,MainFlow,2024.2.4,144.08495249242713,2025-03-14 19h38.00.695711 +0700,
1,88,1,word/wordth0881.png,image/True/img88.png,196,196,0,z,0.7691097999995691,None,0,196,196,196,681.2821422999987,,,,,,,682.7696081000031,682.2702218999984,682.275361400003,682.275361400003,682.7630414000014,683.874175099998,683.874175099998,z,0.7691097999995691,None,682.7696081000031,682.7696081000031,683.874175099998,,,,,,,,PN_th,001,2025-03-14_19h37.53.528,MainFlow,2024.2.4,144.08495249242713,2025-03-14 19h38.00.695711 +0700,
1,87,0,word/wordth0871.png,image/False/imgf87.png,197,197,0,x,0.844812000003003,None,0,197,197,197,684.6535244000042,,,,,,,686.1411268000011,685.6412156000006,685.6474426999994,685.6474426999994,686.1344287000029,687.2394979000019,687.2394979000019,x,0.844812000003003,None,686.1411268000011,686.1411268000011,687.2394979000019,,,,,,,,PN_th,001,2025-03-14_19h37.53.528,MainFlow,2024.2.4,144.08495249242713,2025-03-14 19h38.00.695711 +0700,
1,11,1,word/wordth0111.png,image/True/img11.png,198,198,0,z,0.5748406999991857,None,0,198,198,198,688.0944865999991,,,,,,,689.5820850000018,689.0822403999991,689.0884694999986,689.0884694999986,689.575376599998,690.6934737000047,690.6934737000047,z,0.5748406999991857,None,689.5820850000018,689.5820850000018,690.6934737000047,,,,,,,,PN_th,001,2025-03-14_19h37.53.528,MainFlow,2024.2.4,144.08495249242713,2025-03-14 19h38.00.695711 +0700,
1,61,0,word/wordth0611.png,image/False/imgf61.png,199,199,0,x,0.5992487999974401,None,0,199,199,199,691.2781920999987,,,,,,,692.7657852000048,692.2662696000043,692.2718131000001,692.2718131000001,692.7590966999996,693.8780512000012,693.8780512000012,x,0.5992487999974401,None,692.7657852000048,692.7657852000048,693.8780512000012,,,,,,,,PN_th,001,2025-03-14_19h37.53.528,MainFlow,2024.2.4,144.08495249242713,2025-03-14 19h38.00.695711 +0700,
1,15,1,word/wordth0151.png,image/True/img15.png,200,200,0,z,3.0756990000008955,None,0,200,200,200,694.4897478999992,,,,,,,695.977343700004,695.4775713999989,695.4838711999982,695.4838711999982,695.970644400004,697.0895963000003,697.0895963000003,z,3.0756990000008955,None,695.977343700004,695.977343700004,697.0895963000003,,,,,,,,PN_th,001,2025-03-14_19h37.53.528,MainFlow,2024.2.4,144.08495249242713,2025-03-14 19h38.00.695711 +0700,
1,16,0,word/wordth0161.png,image/False/imgf16.png,201,201,0,x,0.6245746999993571,None,0,201,201,201,700.1759896000003,,,,,,,701.6705111000047,701.1677968000004,701.1769707999993,701.1769707999993,701.6638329999987,702.7897120999987,702.7897120999987,x,0.6245746999993571,None,701.6705111000047,701.6705111000047,702.7897120999987,,,,,,,,PN_th,001,2025-03-14_19h37.53.528,MainFlow,2024.2.4,144.08495249242713,2025-03-14 19h38.00.695711 +0700,
1,63,0,word/wordth0631.png,image/False/imgf63.png,202,202,0,x,2.223166299998411,None,0,202,202,202,703.4222639,,,,,,,704.909848299998,704.4099457000048,704.4161538000044,704.4161538000044,704.903158699999,706.0151427000019,706.0151427000019,x,2.223166299998411,None,704.909848299998,704.909848299998,706.0151427000019,,,,,,,,PN_th,001,2025-03-14_19h37.53.528,MainFlow,2024.2.4,144.08495249242713,2025-03-14 19h38.00.695711 +0700,
1,28,1,word/wordth0281.png,image/True/img28.png,203,203,0,z,0.625965899998846,None,0,203,203,203,708.2465353000007,,,,,,,709.7341154000023,709.2343772000022,709.2404433000047,709.2404433000047,709.7274279999983,710.8533238000018,710.8533238000018,z,0.625965899998846,None,709.7341154000023,709.7341154000023,710.8533238000018,,,,,,,,PN_th,001,2025-03-14_19h37.53.528,MainFlow,2024.2.4,144.08495249242713,2025-03-14 19h38.00.695711 +0700,
1,89,1,word/wordth0891.png,image/True/img89.png,204,204,0,z,0.3814667999977246,None,0,204,204,204,711.492826499998,,,,,,,712.980427800001,712.480636500004,712.4868121000036,712.4868121000036,712.9737175000046,714.0578258000023,714.0578258000023,z,0.3814667999977246,None,712.980427800001,712.980427800001,714.0578258000023,,,,,,,,PN_th,001,2025-03-14_19h37.53.528,MainFlow,2024.2.4,144.08495249242713,2025-03-14 19h38.00.695711 +0700,
1,76,0,word/wordth0761.png,image/False/imgf76.png,205,205,0,x,2.1212957999960054,None,0,205,205,205,714.4471724000032,,,,,,,715.9347640999986,715.4350961000018,715.4410721000022,715.4410721000022,715.9280605000022,717.0469987000033,717.0469987000033,x,2.1212957999960054,None,715.9347640999986,715.9347640999986,717.0469987000033,,,,,,,,PN_th,001,2025-03-14_19h37.53.528,MainFlow,2024.2.4,144.08495249242713,2025-03-14 19h38.00.695711 +0700,
1,51,0,word/wordth0511.png,image/False/imgf51.png,206,206,0,x,0.6722668000002159,None,0,206,206,206,719.1810278999983,,,,,,,720.6686438000033,720.1688139000034,720.1750344000029,720.1750344000029,720.6619481000016,721.760031400001,721.760031400001,x,0.6722668000002159,None,720.6686438000033,720.6686438000033,721.760031400001,,,,,,,,PN_th,001,2025-03-14_19h37.53.528,MainFlow,2024.2.4,144.08495249242713,2025-03-14 19h38.00.695711 +0700,
1,26,0,word/wordth0261.png,image/False/imgf26.png,207,207,0,x,0.5923204999999143,None,0,207,207,207,722.440414800003,,,,,,,723.9288409000001,723.4290451000052,723.4351485000007,723.4351485000007,723.9221249000038,725.040986,725.040986,x,0.5923204999999143,None,723.9288409000001,723.9288409000001,725.040986,,,,,,,,PN_th,001,2025-03-14_19h37.53.528,MainFlow,2024.2.4,144.08495249242713,2025-03-14 19h38.00.695711 +0700,
1,16,1,word/wordth0161.png,image/True/img16.png,208,208,0,z,0.700685900003009,None,0,208,208,208,725.6458263000022,,,,,,,727.1334237000046,726.6336519000033,726.6397158000036,726.6397158000036,727.1267267000003,728.2526031000016,728.2526031000016,z,0.700685900003009,None,727.1334237000046,727.1334237000046,728.2526031000016,,,,,,,,PN_th,001,2025-03-14_19h37.53.528,MainFlow,2024.2.4,144.08495249242713,2025-03-14 19h38.00.695711 +0700,
1,64,1,word/wordth0641.png,image/True/img64.png,209,209,0,z,0.7717722000015783,None,0,209,209,209,728.9608055999997,,,,,,,730.4492135000037,729.949359899998,729.9555196000001,729.9555196000001,730.4425246000028,731.5265983999998,731.5265983999998,z,0.7717722000015783,None,730.4492135000037,730.4492135000037,731.5265983999998,,,,,,,,PN_th,001,2025-03-14_19h37.53.528,MainFlow,2024.2.4,144.08495249242713,2025-03-14 19h38.00.695711 +0700,
1,7,1,word/wordth0071.png,image/True/img07.png,210,210,0,z,0.4952472000004491,None,0,210,210,210,732.305291100005,,,,,,,733.7928564000031,733.2927889999992,733.2993113000048,733.2993113000048,733.7861237000034,734.8910419000022,734.8910419000022,z,0.4952472000004491,None,733.7928564000031,733.7928564000031,734.8910419000022,,,,,,,,PN_th,001,2025-03-14_19h37.53.528,MainFlow,2024.2.4,144.08495249242713,2025-03-14 19h38.00.695711 +0700,
1,10,0,word/wordth0101.png,image/False/imgf10.png,211,211,0,x,0.626560899996548,None,0,211,211,211,735.3985841000031,,,,,,,736.8861749999996,736.3862853000028,736.3926324999993,736.3926324999993,736.8794720000005,737.9767466000048,737.9767466000048,x,0.626560899996548,None,736.8861749999996,736.8861749999996,737.9767466000048,,,,,,,,PN_th,001,2025-03-14_19h37.53.528,MainFlow,2024.2.4,144.08495249242713,2025-03-14 19h38.00.695711 +0700,
1,22,1,word/wordth0221.png,image/True/img22.png,212,212,0,z,2.750367100001313,None,0,212,212,212,738.6101490000001,,,,,,,740.097672200005,739.5978793000031,739.6040619999985,739.6040619999985,740.0910446999987,741.2169276999994,741.2169276999994,z,2.750367100001313,None,740.097672200005,740.097672200005,741.2169276999994,,,,,,,,PN_th,001,2025-03-14_19h37.53.528,MainFlow,2024.2.4,144.08495249242713,2025-03-14 19h38.00.695711 +0700,
1,40,1,word/wordth0401.png,image/True/img40.png,213,213,0,z,0.3920410999999149,None,0,213,213,213,743.9766051000042,,,,,,,745.4711596000052,744.9662108000048,744.9776139000023,744.9776139000023,745.4645439000014,746.604256999999,746.604256999999,z,0.3920410999999149,None,745.4711596000052,745.4711596000052,746.604256999999,,,,,,,,PN_th,001,2025-03-14_19h37.53.528,MainFlow,2024.2.4,144.08495249242713,2025-03-14 19h38.00.695711 +0700,
1,57,0,word/wordth0571.png,image/False/imgf57.png,214,214,0,x,0.4749471999966772,None,0,214,214,214,747.0074085000015,,,,,,,748.4950019000025,747.9949846000018,748.0014599999995,748.0014599999995,748.4882843000014,749.593343600005,749.593343600005,x,0.4749471999966772,None,748.4950019000025,748.4950019000025,749.593343600005,,,,,,,,PN_th,001,2025-03-14_19h37.53.528,MainFlow,2024.2.4,144.08495249242713,2025-03-14 19h38.00.695711 +0700,
1,50,1,word/wordth0501.png,image/True/img50.png,215,215,0,z,0.48328549999860115,None,0,215,215,215,750.079907899999,,,,,,,751.5675285000034,751.0678268000047,751.0738829000038,751.0738829000038,751.5608292000034,752.6650080000036,752.6650080000036,z,0.48328549999860115,None,751.5675285000034,751.5675285000034,752.6650080000036,,,,,,,,PN_th,001,2025-03-14_19h37.53.528,MainFlow,2024.2.4,144.08495249242713,2025-03-14 19h38.00.695711 +0700,
1,64,0,word/wordth0641.png,image/False/imgf64.png,216,216,0,x,0.3608520999987377,None,0,216,216,216,753.1593753999987,,,,,,,754.646989300003,754.1470994999981,754.1534543000016,754.1534543000016,754.6402893999984,755.7244404000012,755.7244404000012,x,0.3608520999987377,None,754.646989300003,754.646989300003,755.7244404000012,,,,,,,,PN_th,001,2025-03-14_19h37.53.528,MainFlow,2024.2.4,144.08495249242713,2025-03-14 19h38.00.695711 +0700,
1,42,1,word/wordth0421.png,image/True/img42.png,217,217,0,z,0.3206036999981734,None,0,217,217,217,756.0928545999996,,,,,,,757.5804419999986,757.0808972000013,757.086570200001,757.086570200001,757.5737516000008,758.692689800002,758.692689800002,z,0.3206036999981734,None,757.5804419999986,757.5804419999986,758.692689800002,,,,,,,,PN_th,001,2025-03-14_19h37.53.528,MainFlow,2024.2.4,144.08495249242713,2025-03-14 19h38.00.695711 +0700,
1,56,0,word/wordth0561.png,image/False/imgf56.png,218,218,0,x,0.8063299000059487,None,0,218,218,218,759.0263511000012,,,,,,,760.5138130999985,760.0142229999983,760.0203021000052,760.0203021000052,760.5072656999982,761.6399587000051,761.6399587000051,x,0.8063299000059487,None,760.5138130999985,760.5138130999985,761.6399587000051,,,,,,,,PN_th,001,2025-03-14_19h37.53.528,MainFlow,2024.2.4,144.08495249242713,2025-03-14 19h38.00.695711 +0700,
1,22,1,word/wordth0221.png,image/True/img22.png,219,219,0,z,0.5901557999968645,None,0,219,219,219,762.4533445000052,,,,,,,763.9409430000014,763.4411222999988,763.4472564000025,763.4472564000025,763.9342518999983,765.0601526000028,765.0601526000028,z,0.5901557999968645,None,763.9409430000014,763.9409430000014,765.0601526000028,,,,,,,,PN_th,001,2025-03-14_19h37.53.528,MainFlow,2024.2.4,144.08495249242713,2025-03-14 19h38.00.695711 +0700,
1,82,0,word/wordth0821.png,image/False/imgf82.png,220,220,0,x,0.42652090000046883,None,0,220,220,220,765.6571278000047,,,,,,,767.145508900001,766.6454634000038,766.6519774000044,766.6519774000044,767.1388219,768.2437669999999,768.2437669999999,x,0.42652090000046883,None,767.145508900001,767.145508900001,768.2437669999999,,,,,,,,PN_th,001,2025-03-14_19h37.53.528,MainFlow,2024.2.4,144.08495249242713,2025-03-14 19h38.00.695711 +0700,
1,54,1,word/wordth0541.png,image/True/img54.png,221,221,0,z,0.39155290000053355,None,0,221,221,221,768.6818168000027,,,,,,,770.1694027000049,769.6694586000012,769.6757017999989,769.6757017999989,770.1627028000003,771.2877518000023,771.2877518000023,z,0.39155290000053355,None,770.1694027000049,770.1694027000049,771.2877518000023,,,,,,,,PN_th,001,2025-03-14_19h37.53.528,MainFlow,2024.2.4,144.08495249242713,2025-03-14 19h38.00.695711 +0700,
1,55,0,word/wordth0551.png,image/False/imgf55.png,222,222,0,x,0.38455010000325274,None,0,222,222,222,771.6916716999986,,,,,,,773.1793455000006,772.6795633000002,772.6856646000015,772.6856646000015,773.1727003000051,774.270737800005,774.270737800005,x,0.38455010000325274,None,773.1793455000006,773.1793455000006,774.270737800005,,,,,,,,PN_th,001,2025-03-14_19h37.53.528,MainFlow,2024.2.4,144.08495249242713,2025-03-14 19h38.00.695711 +0700,
1,48,1,word/wordth0481.png,image/True/img48.png,223,223,0,x,1.3615347000013571,None,0,223,223,223,774.6669419000027,,,,,,,776.1545238000035,775.6546572000007,775.6608573000049,775.6608573000049,776.1478539000018,777.2667761000048,777.2667761000048,x,1.3615347000013571,None,776.1545238000035,776.1545238000035,777.2667761000048,,,,,,,,PN_th,001,2025-03-14_19h37.53.528,MainFlow,2024.2.4,144.08495249242713,2025-03-14 19h38.00.695711 +0700,
1,44,1,word/wordth0441.png,image/True/img44.png,224,224,0,z,3.730133500001102,None,0,224,224,224,778.6353593000022,,,,,,,780.1237811000028,779.6239392999996,779.630101499999,779.630101499999,780.1170835000012,781.2151587000044,781.2151587000044,z,3.730133500001102,None,780.1237811000028,780.1237811000028,781.2151587000044,,,,,,,,PN_th,001,2025-03-14_19h37.53.528,MainFlow,2024.2.4,144.08495249242713,2025-03-14 19h38.00.695711 +0700,
