lang,wordid,truestate,worddir,imgdir,thisN,thisTrialN,thisRepN,key_resp.keys,key_resp.rt,key_resp.duration,trials.thisRepN,trials.thisTrialN,trials.thisN,trials.thisIndex,thisRow.t,notes,tutorial.started,tutorial.stopped,key_instruct.keys,key_instruct.rt,key_instruct.duration,plusblank.started,wordshow.started,image.started,plsuer.started,image.stopped,plsuer.stopped,wordshow.stopped,plusblank.stopped,imageword.started,key_resp.started,trials.key_resp.keys,trials.key_resp.rt,trials.key_resp.duration,ending.started,text_3.started,ending_key.started,ending.stopped,ending_key.keys,ending_key.rt,ending_key.duration,participant,session,date,expName,psychopyVersion,frameRate,expStart,
,,,,,,,,,,,,,,,,,0.0025903999994625337,12.045796000000337,space,12.0211462999996,None,,,,,,,,,,,,,,,,,,,,,PT_th,001,2025-03-12_16h48.25.189,MainFlow,2024.2.4,144.4055832984424,2025-03-12 16h48.35.183163 +0700,
1,51,0,word/wordth0511.png,image/False/imgf51.png,0,0,0,x,0.8633745999995881,None,0,0,0,0,12.08674880000035,,,,,,,13.542289000000892,13.044114000000263,13.048712699999669,13.048712699999669,13.542289000000892,13.542289000000892,13.535561799999414,14.63286639999933,14.63286639999933,14.63286639999933,x,0.8633745999995881,None,,,,,,,,PT_th,001,2025-03-12_16h48.25.189,MainFlow,2024.2.4,144.4055832984424,2025-03-12 16h48.35.183163 +0700,
1,66,1,word/wordth0661.png,image/True/img66.png,1,1,0,z,0.4500908999998501,None,0,1,1,1,15.507940600000438,,,,,,,16.994128000000273,16.495954199999687,16.50054049999926,16.50054049999926,16.994128000000273,16.994128000000273,16.987523600000713,18.09037309999985,18.09037309999985,18.09037309999985,z,0.4500908999998501,None,,,,,,,,PT_th,001,2025-03-12_16h48.25.189,MainFlow,2024.2.4,144.4055832984424,2025-03-12 16h48.35.183163 +0700,
1,60,1,word/wordth0601.png,image/True/img60.png,2,2,0,z,1.0014972000008129,None,0,2,2,2,18.549191699999938,,,,,,,20.036054700000022,19.53785120000066,19.54252219999944,19.54252219999944,20.036054700000022,20.036054700000022,20.02938770000037,21.12340530000074,21.12340530000074,21.12340530000074,z,1.0014972000008129,None,,,,,,,,PT_th,001,2025-03-12_16h48.25.189,MainFlow,2024.2.4,144.4055832984424,2025-03-12 16h48.35.183163 +0700,
1,46,0,word/wordth0461.png,image/False/imgf46.png,3,3,0,x,0.9157121000007464,None,0,3,3,3,22.13682449999942,,,,,,,23.622819199999867,23.124156600000788,23.127927100000306,23.127927100000306,23.622819199999867,23.622819199999867,23.616116400000465,24.731435800000327,24.731435800000327,24.731435800000327,x,0.9157121000007464,None,,,,,,,,PT_th,001,2025-03-12_16h48.25.189,MainFlow,2024.2.4,144.4055832984424,2025-03-12 16h48.35.183163 +0700,
1,24,1,word/wordth0241.png,image/True/img24.png,4,4,0,z,0.8473998999998003,None,0,4,4,4,25.654418399999486,,,,,,,27.140435799999977,26.64190530000087,26.64627289999953,26.64627289999953,27.140435799999977,27.140435799999977,27.133732500000406,28.213823899999625,28.213823899999625,28.213823899999625,z,0.8473998999998003,None,,,,,,,,PT_th,001,2025-03-12_16h48.25.189,MainFlow,2024.2.4,144.4055832984424,2025-03-12 16h48.35.183163 +0700,
1,68,1,word/wordth0681.png,image/True/img68.png,5,5,0,z,0.5758131000002322,None,0,5,5,5,29.069893600000796,,,,,,,30.555841900000814,30.057578600000852,30.061571599999297,30.061571599999297,30.555841900000814,30.555841900000814,30.549190899999303,31.62817560000076,31.62817560000076,31.62817560000076,z,0.5758131000002322,None,,,,,,,,PT_th,001,2025-03-12_16h48.25.189,MainFlow,2024.2.4,144.4055832984424,2025-03-12 16h48.35.183163 +0700,
1,22,0,word/wordth0221.png,image/False/imgf22.png,6,6,0,x,0.8872917999997298,None,0,6,6,6,32.214123499999914,,,,,,,33.7000680000001,33.20086730000003,33.20481330000075,33.20481330000075,33.7000680000001,33.7000680000001,33.693382600000405,34.805551900000864,34.805551900000864,34.805551900000864,x,0.8872917999997298,None,,,,,,,,PT_th,001,2025-03-12_16h48.25.189,MainFlow,2024.2.4,144.4055832984424,2025-03-12 16h48.35.183163 +0700,
1,36,1,word/wordth0361.png,image/True/img36.png,7,7,0,z,0.7198521999998775,None,0,7,7,7,35.70369910000045,,,,,,,37.189579399999275,36.691295500000706,36.695618300000206,36.695618300000206,37.189579399999275,37.189579399999275,37.18293810000068,38.29140489999918,38.29140489999918,38.29140489999918,z,0.7198521999998775,None,,,,,,,,PT_th,001,2025-03-12_16h48.25.189,MainFlow,2024.2.4,144.4055832984424,2025-03-12 16h48.35.183163 +0700,
1,68,0,word/wordth0681.png,image/False/imgf68.png,8,8,0,x,1.148461500000849,None,0,8,8,8,39.02013110000007,,,,,,,40.50607689999924,40.00725710000006,40.01128980000067,40.01128980000067,40.50607689999924,40.50607689999924,40.499384400000054,41.62114560000009,41.62114560000009,41.62114560000009,x,1.148461500000849,None,,,,,,,,PT_th,001,2025-03-12_16h48.25.189,MainFlow,2024.2.4,144.4055832984424,2025-03-12 16h48.35.183163 +0700,
1,16,1,word/wordth0161.png,image/True/img16.png,9,9,0,z,1.2702415999992809,None,0,9,9,9,42.77831110000079,,,,,,,44.2651979000002,43.767161199999464,43.77152829999977,43.77152829999977,44.2651979000002,44.2651979000002,44.25854319999962,45.38807679999991,45.38807679999991,45.38807679999991,z,1.2702415999992809,None,,,,,,,,PT_th,001,2025-03-12_16h48.25.189,MainFlow,2024.2.4,144.4055832984424,2025-03-12 16h48.35.183163 +0700,
1,94,1,word/wordth0941.png,image/True/img94.png,10,10,0,z,1.3356406000002607,None,0,10,10,10,46.67186039999979,,,,,,,48.157774499999505,47.65927720000036,47.66334730000017,47.66334730000017,48.157774499999505,48.157774499999505,48.15162769999915,49.28589909999937,49.28589909999937,49.28589909999937,z,1.3356406000002607,None,,,,,,,,PT_th,001,2025-03-12_16h48.25.189,MainFlow,2024.2.4,144.4055832984424,2025-03-12 16h48.35.183163 +0700,
1,95,0,word/wordth0951.png,image/False/imgf95.png,11,11,0,x,0.6641095000013593,None,0,11,11,11,50.62846890000037,,,,,,,52.11435359999996,51.61657670000022,51.62067170000046,51.62067170000046,52.11435359999996,52.11435359999996,52.108190700000705,53.236775400000624,53.236775400000624,53.236775400000624,x,0.6641095000013593,None,,,,,,,,PT_th,001,2025-03-12_16h48.25.189,MainFlow,2024.2.4,144.4055832984424,2025-03-12 16h48.35.183163 +0700,
1,30,0,word/wordth0301.png,image/False/imgf30.png,12,12,0,x,0.821263199999521,None,0,12,12,12,53.909593099999256,,,,,,,55.39555520000067,54.89783349999925,54.902021500000046,54.902021500000046,55.39555520000067,55.39555520000067,55.388891700000386,56.51314409999941,56.51314409999941,56.51314409999941,x,0.821263199999521,None,,,,,,,,PT_th,001,2025-03-12_16h48.25.189,MainFlow,2024.2.4,144.4055832984424,2025-03-12 16h48.35.183163 +0700,
1,20,1,word/wordth0201.png,image/True/img20.png,13,13,0,z,0.823819100000037,None,0,13,13,13,57.3419642000008,,,,,,,58.8290319000007,58.33107170000039,58.335309599999164,58.335309599999164,58.8290319000007,58.8290319000007,58.8223182999991,59.93946069999947,59.93946069999947,59.93946069999947,z,0.823819100000037,None,,,,,,,,PT_th,001,2025-03-12_16h48.25.189,MainFlow,2024.2.4,144.4055832984424,2025-03-12 16h48.35.183163 +0700,
1,42,0,word/wordth0421.png,image/False/imgf42.png,14,14,0,x,0.5608472999992955,None,0,14,14,14,60.77180500000031,,,,,,,62.25832310000078,61.76022510000075,61.76444640000045,61.76444640000045,62.25832310000078,62.25832310000078,62.251623899999686,63.371101500000805,63.371101500000805,63.371101500000805,x,0.5608472999992955,None,,,,,,,,PT_th,001,2025-03-12_16h48.25.189,MainFlow,2024.2.4,144.4055832984424,2025-03-12 16h48.35.183163 +0700,
1,31,1,word/wordth0311.png,image/True/img31.png,15,15,0,z,0.3434907999999268,None,0,15,15,15,63.94563679999919,,,,,,,65.43153410000014,64.93326239999988,64.93719199999941,64.93719199999941,65.43153410000014,65.43153410000014,65.42480199999954,66.54735500000061,66.54735500000061,66.54735500000061,z,0.3434907999999268,None,,,,,,,,PT_th,001,2025-03-12_16h48.25.189,MainFlow,2024.2.4,144.4055832984424,2025-03-12 16h48.35.183163 +0700,
1,55,1,word/wordth0551.png,image/True/img55.png,16,16,0,z,0.5611095000003843,None,0,16,16,16,66.8979447999991,,,,,,,68.38505629999963,67.88691400000062,67.89108269999997,67.89108269999997,68.38505629999963,68.38505629999963,68.3785470999992,69.5186618000007,69.5186618000007,69.5186618000007,z,0.5611095000003843,None,,,,,,,,PT_th,001,2025-03-12_16h48.25.189,MainFlow,2024.2.4,144.4055832984424,2025-03-12 16h48.35.183163 +0700,
1,36,1,word/wordth0361.png,image/True/img36.png,17,17,0,z,0.33213380000051984,None,0,17,17,17,70.08735689999958,,,,,,,71.57334459999947,71.07438030000048,71.07863080000061,71.07863080000061,71.57334459999947,71.57334459999947,71.5666199999996,72.66091079999933,72.66091079999933,72.66091079999933,z,0.33213380000051984,None,,,,,,,,PT_th,001,2025-03-12_16h48.25.189,MainFlow,2024.2.4,144.4055832984424,2025-03-12 16h48.35.183163 +0700,
1,9,1,word/wordth0091.png,image/True/img09.png,18,18,0,z,0.48238950000086334,None,0,18,18,18,73.00088569999934,,,,,,,74.48704560000078,73.9886807999992,73.99413880000066,73.99413880000066,74.48704560000078,74.48704560000078,74.48034100000041,75.55991580000045,75.55991580000045,75.55991580000045,z,0.48238950000086334,None,,,,,,,,PT_th,001,2025-03-12_16h48.25.189,MainFlow,2024.2.4,144.4055832984424,2025-03-12 16h48.35.183163 +0700,
1,64,1,word/wordth0641.png,image/True/img64.png,19,19,0,z,0.5433487999998761,None,0,19,19,19,76.05558729999939,,,,,,,77.54149789999974,77.0432321999997,77.04732850000073,77.04732850000073,77.54149789999974,77.54149789999974,77.5348969000006,78.64715439999964,78.64715439999964,78.64715439999964,z,0.5433487999998761,None,,,,,,,,PT_th,001,2025-03-12_16h48.25.189,MainFlow,2024.2.4,144.4055832984424,2025-03-12 16h48.35.183163 +0700,
1,95,1,word/wordth0951.png,image/True/img95.png,20,20,0,x,0.5220322000004671,None,0,20,20,20,79.19771670000046,,,,,,,80.68366090000018,80.18479610000031,80.18885050000063,80.18885050000063,80.68366090000018,80.68366090000018,80.67692039999929,81.82736180000029,81.82736180000029,81.82736180000029,x,0.5220322000004671,None,,,,,,,,PT_th,001,2025-03-12_16h48.25.189,MainFlow,2024.2.4,144.4055832984424,2025-03-12 16h48.35.183163 +0700,
1,41,1,word/wordth0411.png,image/True/img41.png,21,21,0,z,0.6758112999996229,None,0,21,21,21,82.36102860000028,,,,,,,83.8469096000008,83.34900930000003,83.35326899999927,83.35326899999927,83.8469096000008,83.8469096000008,83.84087929999987,84.96215979999943,84.96215979999943,84.96215979999943,z,0.6758112999996229,None,,,,,,,,PT_th,001,2025-03-12_16h48.25.189,MainFlow,2024.2.4,144.4055832984424,2025-03-12 16h48.35.183163 +0700,
1,8,1,word/wordth0081.png,image/True/img08.png,22,22,0,z,0.4573519000005035,None,0,22,22,22,85.64721070000087,,,,,,,87.13312419999966,86.6347012999995,86.63879719999932,86.63879719999932,87.13312419999966,87.13312419999966,87.12644770000043,88.23964530000012,88.23964530000012,88.23964530000012,z,0.4573519000005035,None,,,,,,,,PT_th,001,2025-03-12_16h48.25.189,MainFlow,2024.2.4,144.4055832984424,2025-03-12 16h48.35.183163 +0700,
1,60,1,word/wordth0601.png,image/True/img60.png,23,23,0,z,0.35532550000061747,None,0,23,23,23,88.70603780000056,,,,,,,90.19197929999973,89.69310030000088,89.69726810000066,89.69726810000066,90.19197929999973,90.19197929999973,90.18531609999991,91.2961462000003,91.2961462000003,91.2961462000003,z,0.35532550000061747,None,,,,,,,,PT_th,001,2025-03-12_16h48.25.189,MainFlow,2024.2.4,144.4055832984424,2025-03-12 16h48.35.183163 +0700,
1,48,0,word/wordth0481.png,image/False/imgf48.png,24,24,0,x,0.783234700000321,None,0,24,24,24,91.6617912999991,,,,,,,93.14858079999976,92.65051540000059,92.65495679999913,92.65495679999913,93.14858079999976,93.14858079999976,93.14189559999977,94.27712880000036,94.27712880000036,94.27712880000036,x,0.783234700000321,None,,,,,,,,PT_th,001,2025-03-12_16h48.25.189,MainFlow,2024.2.4,144.4055832984424,2025-03-12 16h48.35.183163 +0700,
1,41,0,word/wordth0411.png,image/False/imgf41.png,25,25,0,x,1.6256635000008828,None,0,25,25,25,95.07096769999953,,,,,,,96.55690259999938,96.0584357000007,96.06231470000057,96.06231470000057,96.55690259999938,96.55690259999938,96.55031530000088,97.6425675999999,97.6425675999999,97.6425675999999,x,1.6256635000008828,None,,,,,,,,PT_th,001,2025-03-12_16h48.25.189,MainFlow,2024.2.4,144.4055832984424,2025-03-12 16h48.35.183163 +0700,
1,54,0,word/wordth0541.png,image/False/imgf54.png,26,26,0,x,0.746639499999219,None,0,26,26,26,99.28204709999955,,,,,,,100.76807240000016,100.26962029999959,100.27407090000088,100.27407090000088,100.76807240000016,100.76807240000016,100.76127380000071,101.88036509999984,101.88036509999984,101.88036509999984,x,0.746639499999219,None,,,,,,,,PT_th,001,2025-03-12_16h48.25.189,MainFlow,2024.2.4,144.4055832984424,2025-03-12 16h48.35.183163 +0700,
1,54,1,word/wordth0541.png,image/True/img54.png,27,27,0,z,0.42874249999840686,None,0,27,27,27,102.6367639,,,,,,,104.12335320000057,103.62414999999964,103.62808140000016,103.62808140000016,104.12335320000057,104.12335320000057,104.11668029999964,105.25119590000031,105.25119590000031,105.25119590000031,z,0.42874249999840686,None,,,,,,,,PT_th,001,2025-03-12_16h48.25.189,MainFlow,2024.2.4,144.4055832984424,2025-03-12 16h48.35.183163 +0700,
1,63,0,word/wordth0631.png,image/False/imgf63.png,28,28,0,z,5.790244499999972,None,0,28,28,28,105.69060309999986,,,,,,,107.17745040000045,106.67968629999996,106.68392160000076,106.68392160000076,107.17745040000045,107.17745040000045,107.17077849999987,108.29269030000069,108.29269030000069,108.29269030000069,z,5.790244499999972,None,,,,,,,,PT_th,001,2025-03-12_16h48.25.189,MainFlow,2024.2.4,144.4055832984424,2025-03-12 16h48.35.183163 +0700,
1,37,0,word/wordth0371.png,image/False/imgf37.png,29,29,0,x,1.0150880000001052,None,0,29,29,29,114.09549499999957,,,,,,,115.58145829999921,115.08297510000011,115.08702300000004,115.08702300000004,115.58145829999921,115.58145829999921,115.57485260000067,116.71034119999968,116.71034119999968,116.71034119999968,x,1.0150880000001052,None,,,,,,,,PT_th,001,2025-03-12_16h48.25.189,MainFlow,2024.2.4,144.4055832984424,2025-03-12 16h48.35.183163 +0700,
1,54,0,word/wordth0541.png,image/False/imgf54.png,30,30,0,x,0.4527060000000347,None,0,30,30,30,117.73257870000089,,,,,,,119.21851090000018,118.71992649999993,118.72400410000046,118.72400410000046,119.21851090000018,119.21851090000018,119.21234639999966,120.3410700000004,120.3410700000004,120.3410700000004,x,0.4527060000000347,None,,,,,,,,PT_th,001,2025-03-12_16h48.25.189,MainFlow,2024.2.4,144.4055832984424,2025-03-12 16h48.35.183163 +0700,
1,48,1,word/wordth0481.png,image/True/img48.png,31,31,0,z,0.6831724000003305,None,0,31,31,31,120.8054018999992,,,,,,,122.29133050000019,121.79244769999968,121.79655119999916,121.79655119999916,122.29133050000019,122.29133050000019,122.28518099999928,123.41569300000083,123.41569300000083,123.41569300000083,z,0.6831724000003305,None,,,,,,,,PT_th,001,2025-03-12_16h48.25.189,MainFlow,2024.2.4,144.4055832984424,2025-03-12 16h48.35.183163 +0700,
1,26,0,word/wordth0261.png,image/False/imgf26.png,32,32,0,z,1.4706786000006105,None,0,32,32,32,124.10878760000014,,,,,,,125.59527680000065,125.09691050000038,125.1010783999991,125.1010783999991,125.59527680000065,125.59527680000065,125.5886088999996,126.74086410000018,126.74086410000018,126.74086410000018,z,1.4706786000006105,None,,,,,,,,PT_th,001,2025-03-12_16h48.25.189,MainFlow,2024.2.4,144.4055832984424,2025-03-12 16h48.35.183163 +0700,
1,59,0,word/wordth0591.png,image/False/imgf59.png,33,33,0,x,0.6620103999994171,None,0,33,33,33,128.21861139999965,,,,,,,129.70509090000087,129.2065263000004,129.2106870000007,129.2106870000007,129.70509090000087,129.70509090000087,129.69842459999927,130.7890107000003,130.7890107000003,130.7890107000003,x,0.6620103999994171,None,,,,,,,,PT_th,001,2025-03-12_16h48.25.189,MainFlow,2024.2.4,144.4055832984424,2025-03-12 16h48.35.183163 +0700,
1,8,1,word/wordth0081.png,image/True/img08.png,34,34,0,z,0.5537143999990803,None,0,34,34,34,131.4645005000002,,,,,,,132.9504866999996,132.45194149999952,132.4560158000004,132.4560158000004,132.9504866999996,132.9504866999996,132.94377840000016,134.0299842000004,134.0299842000004,134.0299842000004,z,0.5537143999990803,None,,,,,,,,PT_th,001,2025-03-12_16h48.25.189,MainFlow,2024.2.4,144.4055832984424,2025-03-12 16h48.35.183163 +0700,
1,66,1,word/wordth0661.png,image/True/img66.png,35,35,0,z,0.3054040000006353,None,0,35,35,35,134.59380000000056,,,,,,,136.0786052000003,135.57997389999946,135.5838936,135.5838936,136.0786052000003,136.0786052000003,136.0719836999997,137.1770228000005,137.1770228000005,137.1770228000005,z,0.3054040000006353,None,,,,,,,,PT_th,001,2025-03-12_16h48.25.189,MainFlow,2024.2.4,144.4055832984424,2025-03-12 16h48.35.183163 +0700,
1,24,0,word/wordth0241.png,image/False/imgf24.png,36,36,0,x,0.641602800000328,None,0,36,36,36,137.4954161000005,,,,,,,138.98183310000059,138.4827535000004,138.48672599999918,138.48672599999918,138.98183310000059,138.98183310000059,138.97512280000046,140.07438179999917,140.07438179999917,140.07438179999917,x,0.641602800000328,None,,,,,,,,PT_th,001,2025-03-12_16h48.25.189,MainFlow,2024.2.4,144.4055832984424,2025-03-12 16h48.35.183163 +0700,
1,14,1,word/wordth0141.png,image/True/img14.png,37,37,0,z,0.6293576000007306,None,0,37,37,37,140.72415580000052,,,,,,,142.2100730000002,141.7117488999993,141.71559359999992,141.71559359999992,142.2100730000002,142.2100730000002,142.2034162,143.3057071000003,143.3057071000003,143.3057071000003,z,0.6293576000007306,None,,,,,,,,PT_th,001,2025-03-12_16h48.25.189,MainFlow,2024.2.4,144.4055832984424,2025-03-12 16h48.35.183163 +0700,
1,20,0,word/wordth0201.png,image/False/imgf20.png,38,38,0,x,0.7417813000010938,None,0,38,38,38,143.94554000000062,,,,,,,145.4314947999992,144.93286649999936,144.9369289999995,144.9369289999995,145.4314947999992,145.4314947999992,145.4248807999993,146.55176199999914,146.55176199999914,146.55176199999914,x,0.7417813000010938,None,,,,,,,,PT_th,001,2025-03-12_16h48.25.189,MainFlow,2024.2.4,144.4055832984424,2025-03-12 16h48.35.183163 +0700,
1,89,0,word/wordth0891.png,image/False/imgf89.png,39,39,0,x,0.8339102999998431,None,0,39,39,39,147.30081249999967,,,,,,,148.78783210000074,148.28999029999977,148.29421250000087,148.29421250000087,148.78783210000074,148.78783210000074,148.78115620000062,149.87824349999937,149.87824349999937,149.87824349999937,x,0.8339102999998431,None,,,,,,,,PT_th,001,2025-03-12_16h48.25.189,MainFlow,2024.2.4,144.4055832984424,2025-03-12 16h48.35.183163 +0700,
1,64,0,word/wordth0641.png,image/False/imgf64.png,40,40,0,x,0.5769282000001112,None,0,40,40,40,150.72542219999923,,,,,,,152.2114287000004,151.71225439999944,151.71621810000033,151.71621810000033,152.2114287000004,152.2114287000004,152.20462340000086,153.28448340000068,153.28448340000068,153.28448340000068,x,0.5769282000001112,None,,,,,,,,PT_th,001,2025-03-12_16h48.25.189,MainFlow,2024.2.4,144.4055832984424,2025-03-12 16h48.35.183163 +0700,
1,56,1,word/wordth0561.png,image/True/img56.png,41,41,0,z,0.6626151999989816,None,0,41,41,41,153.8701999999994,,,,,,,155.35633939999934,154.85848970000006,154.86253439999928,154.86253439999928,155.35633939999934,155.35633939999934,155.34960949999913,156.4472824000004,156.4472824000004,156.4472824000004,z,0.6626151999989816,None,,,,,,,,PT_th,001,2025-03-12_16h48.25.189,MainFlow,2024.2.4,144.4055832984424,2025-03-12 16h48.35.183163 +0700,
1,15,1,word/wordth0151.png,image/True/img15.png,42,42,0,z,0.6706643999987136,None,0,42,42,42,157.1227600000002,,,,,,,158.61068110000087,158.11147139999957,158.1159287999999,158.1159287999999,158.61068110000087,158.61068110000087,158.6028979999992,159.7272735000006,159.7272735000006,159.7272735000006,z,0.6706643999987136,None,,,,,,,,PT_th,001,2025-03-12_16h48.25.189,MainFlow,2024.2.4,144.4055832984424,2025-03-12 16h48.35.183163 +0700,
1,88,0,word/wordth0881.png,image/False/imgf88.png,43,43,0,z,4.715594299999793,None,0,43,43,43,160.40987049999967,,,,,,,161.89583569999922,161.3973017999997,161.40116599999965,161.40116599999965,161.89583569999922,161.89583569999922,161.88931240000056,162.99924699999974,162.99924699999974,162.99924699999974,z,4.715594299999793,None,,,,,,,,PT_th,001,2025-03-12_16h48.25.189,MainFlow,2024.2.4,144.4055832984424,2025-03-12 16h48.35.183163 +0700,
1,94,1,word/wordth0941.png,image/True/img94.png,44,44,0,z,0.32729509999990114,None,0,44,44,44,167.72675619999973,,,,,,,169.21271069999966,168.7141173,168.71823699999914,168.71823699999914,169.21271069999966,169.21271069999966,169.20602730000064,170.3369500000008,170.3369500000008,170.3369500000008,z,0.32729509999990114,None,,,,,,,,PT_th,001,2025-03-12_16h48.25.189,MainFlow,2024.2.4,144.4055832984424,2025-03-12 16h48.35.183163 +0700,
1,40,0,word/wordth0401.png,image/False/imgf40.png,45,45,0,x,0.5967064000014943,None,0,45,45,45,170.6762552,,,,,,,172.1632236000005,171.66522240000086,171.66932129999987,171.66932129999987,172.1632236000005,172.1632236000005,172.1565133999993,173.26196449999952,173.26196449999952,173.26196449999952,x,0.5967064000014943,None,,,,,,,,PT_th,001,2025-03-12_16h48.25.189,MainFlow,2024.2.4,144.4055832984424,2025-03-12 16h48.35.183163 +0700,
1,41,0,word/wordth0411.png,image/False/imgf41.png,46,46,0,x,0.5055558000003657,None,0,46,46,46,173.86508979999962,,,,,,,175.35151790000054,174.85254709999936,174.85666459999993,174.85666459999993,175.35151790000054,175.35151790000054,175.3448017999999,176.42570589999923,176.42570589999923,176.42570589999923,x,0.5055558000003657,None,,,,,,,,PT_th,001,2025-03-12_16h48.25.189,MainFlow,2024.2.4,144.4055832984424,2025-03-12 16h48.35.183163 +0700,
1,7,1,word/wordth0071.png,image/True/img07.png,47,47,0,z,0.4916398000004847,None,0,47,47,47,176.94065240000054,,,,,,,178.42708459999994,177.92842419999943,177.9326670999999,177.9326670999999,178.42708459999994,178.42708459999994,178.42041900000004,179.52965539999968,179.52965539999968,179.52965539999968,z,0.4916398000004847,None,,,,,,,,PT_th,001,2025-03-12_16h48.25.189,MainFlow,2024.2.4,144.4055832984424,2025-03-12 16h48.35.183163 +0700,
1,60,0,word/wordth0601.png,image/False/imgf60.png,48,48,0,x,1.0882860000001529,None,0,48,48,48,180.0283834999991,,,,,,,181.51432170000044,181.01556829999936,181.01963249999972,181.01963249999972,181.51432170000044,181.51432170000044,181.50766169999952,182.6160304999994,182.6160304999994,182.6160304999994,x,1.0882860000001529,None,,,,,,,,PT_th,001,2025-03-12_16h48.25.189,MainFlow,2024.2.4,144.4055832984424,2025-03-12 16h48.35.183163 +0700,
1,23,0,word/wordth0231.png,image/False/imgf23.png,49,49,0,x,1.0595603000001574,None,0,49,49,49,183.71318719999908,,,,,,,185.1991328999993,184.7005363999997,184.70459710000068,184.70459710000068,185.1991328999993,185.1991328999993,185.19244079999953,186.32270249999965,186.32270249999965,186.32270249999965,x,1.0595603000001574,None,,,,,,,,PT_th,001,2025-03-12_16h48.25.189,MainFlow,2024.2.4,144.4055832984424,2025-03-12 16h48.35.183163 +0700,
1,68,0,word/wordth0681.png,image/False/imgf68.png,50,50,0,x,0.6901483000001463,None,0,50,50,50,187.39135440000064,,,,,,,188.87734880000062,188.3789414999992,188.38267199999973,188.38267199999973,188.87734880000062,188.87734880000062,188.87073369999962,189.9504123000006,189.9504123000006,189.9504123000006,x,0.6901483000001463,None,,,,,,,,PT_th,001,2025-03-12_16h48.25.189,MainFlow,2024.2.4,144.4055832984424,2025-03-12 16h48.35.183163 +0700,
1,26,1,word/wordth0261.png,image/True/img26.png,51,51,0,z,1.0118161000009422,None,0,51,51,51,190.65382409999984,,,,,,,192.14028770000004,191.64124850000007,191.6452104,191.6452104,192.14028770000004,192.14028770000004,192.13359300000047,193.24262649999946,193.24262649999946,193.24262649999946,z,1.0118161000009422,None,,,,,,,,PT_th,001,2025-03-12_16h48.25.189,MainFlow,2024.2.4,144.4055832984424,2025-03-12 16h48.35.183163 +0700,
1,89,0,word/wordth0891.png,image/False/imgf89.png,52,52,0,x,0.9521809999987454,None,0,52,52,52,194.26252120000026,,,,,,,195.74851669999953,195.24955299999965,195.2535697000003,195.2535697000003,195.74851669999953,195.74851669999953,195.74178439999923,196.83076459999938,196.83076459999938,196.83076459999938,x,0.9521809999987454,None,,,,,,,,PT_th,001,2025-03-12_16h48.25.189,MainFlow,2024.2.4,144.4055832984424,2025-03-12 16h48.35.183163 +0700,
1,3,0,word/wordth0031.png,image/False/imgf03.png,53,53,0,x,1.0670962000003783,None,0,53,53,53,197.79244300000028,,,,,,,199.2799971000004,198.78202930000043,198.78592319999916,198.78592319999916,199.2799971000004,199.2799971000004,199.27338539999982,200.36469249999936,200.36469249999936,200.36469249999936,x,1.0670962000003783,None,,,,,,,,PT_th,001,2025-03-12_16h48.25.189,MainFlow,2024.2.4,144.4055832984424,2025-03-12 16h48.35.183163 +0700,
1,55,1,word/wordth0551.png,image/True/img55.png,54,54,0,z,0.5619575000000623,None,0,54,54,54,201.4422142000003,,,,,,,202.92821990000084,202.42976409999937,202.4338800000005,202.4338800000005,202.92821990000084,202.92821990000084,202.92141149999952,204.02386040000056,204.02386040000056,204.02386040000056,z,0.5619575000000623,None,,,,,,,,PT_th,001,2025-03-12_16h48.25.189,MainFlow,2024.2.4,144.4055832984424,2025-03-12 16h48.35.183163 +0700,
1,46,1,word/wordth0461.png,image/True/img46.png,55,55,0,z,0.6616593000017019,None,0,55,55,55,204.59438950000003,,,,,,,206.08029100000022,205.58114829999977,205.58513719999974,205.58513719999974,206.08029100000022,206.08029100000022,206.07368470000074,207.1874227999997,207.1874227999997,207.1874227999997,z,0.6616593000017019,None,,,,,,,,PT_th,001,2025-03-12_16h48.25.189,MainFlow,2024.2.4,144.4055832984424,2025-03-12 16h48.35.183163 +0700,
1,1,1,word/wordth0011.png,image/True/img01.png,56,56,0,z,0.4847353999994084,None,0,56,56,56,207.8617243000008,,,,,,,209.3484931999992,208.8510382000004,208.85504690000016,208.85504690000016,209.3484931999992,209.3484931999992,209.34181779999926,210.4487079999999,210.4487079999999,210.4487079999999,z,0.4847353999994084,None,,,,,,,,PT_th,001,2025-03-12_16h48.25.189,MainFlow,2024.2.4,144.4055832984424,2025-03-12 16h48.35.183163 +0700,
1,3,1,word/wordth0031.png,image/True/img03.png,57,57,0,z,0.5488172000004852,None,0,57,57,57,210.9413416999996,,,,,,,212.42727410000043,211.92794460000005,211.9316928999997,211.9316928999997,212.42727410000043,212.42727410000043,212.42057530000056,213.5182291000001,213.5182291000001,213.5182291000001,z,0.5488172000004852,None,,,,,,,,PT_th,001,2025-03-12_16h48.25.189,MainFlow,2024.2.4,144.4055832984424,2025-03-12 16h48.35.183163 +0700,
1,76,1,word/wordth0761.png,image/True/img76.png,58,58,0,z,0.5020753000007971,None,0,58,58,58,214.08066139999937,,,,,,,215.5673771999991,215.06958250000025,215.0736371999992,215.0736371999992,215.5673771999991,215.5673771999991,215.56064630000037,216.65844780000043,216.65844780000043,216.65844780000043,z,0.5020753000007971,None,,,,,,,,PT_th,001,2025-03-12_16h48.25.189,MainFlow,2024.2.4,144.4055832984424,2025-03-12 16h48.35.183163 +0700,
1,52,0,word/wordth0521.png,image/False/imgf52.png,59,59,0,x,2.3482979999989766,None,0,59,59,59,217.1722277000008,,,,,,,218.65822929999922,218.1593396999997,218.1632669999999,218.1632669999999,218.65822929999922,218.65822929999922,218.65147950000028,219.74036630000046,219.74036630000046,219.74036630000046,x,2.3482979999989766,None,,,,,,,,PT_th,001,2025-03-12_16h48.25.189,MainFlow,2024.2.4,144.4055832984424,2025-03-12 16h48.35.183163 +0700,
1,14,0,word/wordth0141.png,image/False/imgf14.png,60,60,0,x,0.6388029999998253,None,0,60,60,60,222.09785620000002,,,,,,,223.5837750999999,223.08519800000067,223.08916350000072,223.08916350000072,223.5837750999999,223.5837750999999,223.57763890000024,224.6746705000005,224.6746705000005,224.6746705000005,x,0.6388029999998253,None,,,,,,,,PT_th,001,2025-03-12_16h48.25.189,MainFlow,2024.2.4,144.4055832984424,2025-03-12 16h48.35.183163 +0700,
1,61,1,word/wordth0611.png,image/True/img61.png,61,61,0,z,0.664126200001192,None,0,61,61,61,225.32075140000052,,,,,,,226.80665279999994,226.30824369999937,226.3121811000001,226.3121811000001,226.80665279999994,226.80665279999994,226.79994280000028,227.90232260000084,227.90232260000084,227.90232260000084,z,0.664126200001192,None,,,,,,,,PT_th,001,2025-03-12_16h48.25.189,MainFlow,2024.2.4,144.4055832984424,2025-03-12 16h48.35.183163 +0700,
1,93,0,word/wordth0931.png,image/False/imgf93.png,62,62,0,x,0.7856236000006902,None,0,62,62,62,228.57703260000017,,,,,,,230.06298659999993,229.5641529000004,229.56819469999937,229.56819469999937,230.06298659999993,230.06298659999993,230.05630969999947,231.14413160000004,231.14413160000004,231.14413160000004,x,0.7856236000006902,None,,,,,,,,PT_th,001,2025-03-12_16h48.25.189,MainFlow,2024.2.4,144.4055832984424,2025-03-12 16h48.35.183163 +0700,
1,37,1,word/wordth0371.png,image/True/img37.png,63,63,0,z,0.4437023999998928,None,0,63,63,63,231.94034739999915,,,,,,,233.42627940000057,232.92722239999966,232.93096139999943,232.93096139999943,233.42627940000057,233.42627940000057,233.41959830000087,234.54080090000025,234.54080090000025,234.54080090000025,z,0.4437023999998928,None,,,,,,,,PT_th,001,2025-03-12_16h48.25.189,MainFlow,2024.2.4,144.4055832984424,2025-03-12 16h48.35.183163 +0700,
1,79,0,word/wordth0791.png,image/False/imgf79.png,64,64,0,z,0.931940599999507,None,0,64,64,64,234.99718720000055,,,,,,,236.48460259999956,235.98629790000086,235.9904516000006,235.9904516000006,236.48460259999956,236.48460259999956,236.47749870000007,237.58605849999913,237.58605849999913,237.58605849999913,z,0.931940599999507,None,,,,,,,,PT_th,001,2025-03-12_16h48.25.189,MainFlow,2024.2.4,144.4055832984424,2025-03-12 16h48.35.183163 +0700,
1,37,0,word/wordth0371.png,image/False/imgf37.png,65,65,0,z,1.0568057999989833,None,0,65,65,65,238.53012099999978,,,,,,,240.0161647999994,239.51705480000055,239.52157179999995,239.52157179999995,240.0161647999994,240.0161647999994,240.00944309999977,241.12931609999941,241.12931609999941,241.12931609999941,z,1.0568057999989833,None,,,,,,,,PT_th,001,2025-03-12_16h48.25.189,MainFlow,2024.2.4,144.4055832984424,2025-03-12 16h48.35.183163 +0700,
1,3,1,word/wordth0031.png,image/True/img03.png,66,66,0,z,1.198478599999362,None,0,66,66,66,242.19805649999944,,,,,,,243.68429710000055,243.18482609999955,243.18867239999963,243.18867239999963,243.68429710000055,243.68429710000055,243.67726129999937,244.7768228999994,244.7768228999994,244.7768228999994,z,1.198478599999362,None,,,,,,,,PT_th,001,2025-03-12_16h48.25.189,MainFlow,2024.2.4,144.4055832984424,2025-03-12 16h48.35.183163 +0700,
1,93,0,word/wordth0931.png,image/False/imgf93.png,67,67,0,x,0.7436178999996628,None,0,67,67,67,245.9885316,,,,,,,247.47500190000028,246.97618619999957,246.98065139999926,246.98065139999926,247.47500190000028,247.47500190000028,247.46836330000042,248.55470129999958,248.55470129999958,248.55470129999958,x,0.7436178999996628,None,,,,,,,,PT_th,001,2025-03-12_16h48.25.189,MainFlow,2024.2.4,144.4055832984424,2025-03-12 16h48.35.183163 +0700,
1,30,1,word/wordth0301.png,image/True/img30.png,68,68,0,z,0.5924004000007699,None,0,68,68,68,249.31176679999953,,,,,,,250.7976877000001,250.2986946000001,250.30273060000036,250.30273060000036,250.7976877000001,250.7976877000001,250.79175840000062,251.88496739999937,251.88496739999937,251.88496739999937,z,0.5924004000007699,None,,,,,,,,PT_th,001,2025-03-12_16h48.25.189,MainFlow,2024.2.4,144.4055832984424,2025-03-12 16h48.35.183163 +0700,
1,46,0,word/wordth0461.png,image/False/imgf46.png,69,69,0,x,0.6246097999992344,None,0,69,69,69,252.48865959999966,,,,,,,253.9745170999995,253.47574089999944,253.47976620000009,253.47976620000009,253.9745170999995,253.9745170999995,253.96783569999934,255.08604009999908,255.08604009999908,255.08604009999908,x,0.6246097999992344,None,,,,,,,,PT_th,001,2025-03-12_16h48.25.189,MainFlow,2024.2.4,144.4055832984424,2025-03-12 16h48.35.183163 +0700,
1,27,0,word/wordth0271.png,image/False/imgf27.png,70,70,0,x,0.9593963999996049,None,0,70,70,70,255.71766949999983,,,,,,,257.20382269999936,256.7059458999993,256.7100902000002,256.7100902000002,257.20382269999936,257.20382269999936,257.19714270000077,258.30486960000053,258.30486960000053,258.30486960000053,x,0.9593963999996049,None,,,,,,,,PT_th,001,2025-03-12_16h48.25.189,MainFlow,2024.2.4,144.4055832984424,2025-03-12 16h48.35.183163 +0700,
1,37,1,word/wordth0371.png,image/True/img37.png,71,71,0,z,1.0989896000010049,None,0,71,71,71,259.27678410000044,,,,,,,260.7626562000005,260.2636158999994,260.26772130000063,260.26772130000063,260.7626562000005,260.7626562000005,260.7559177000003,261.88949669999965,261.88949669999965,261.88949669999965,z,1.0989896000010049,None,,,,,,,,PT_th,001,2025-03-12_16h48.25.189,MainFlow,2024.2.4,144.4055832984424,2025-03-12 16h48.35.183163 +0700,
1,20,1,word/wordth0201.png,image/True/img20.png,72,72,0,z,0.5434879000004003,None,0,72,72,72,262.9969149000008,,,,,,,264.4834451000006,263.9850160999995,263.98896760000025,263.98896760000025,264.4834451000006,264.4834451000006,264.47675999999956,265.5931209999999,265.5931209999999,265.5931209999999,z,0.5434879000004003,None,,,,,,,,PT_th,001,2025-03-12_16h48.25.189,MainFlow,2024.2.4,144.4055832984424,2025-03-12 16h48.35.183163 +0700,
1,17,1,word/wordth0171.png,image/True/img17.png,73,73,0,z,0.6067077000006975,None,0,73,73,73,266.14787289999913,,,,,,,267.6345724999992,267.13641800000005,267.1406239000007,267.1406239000007,267.6345724999992,267.6345724999992,267.62781619999987,268.7638124999994,268.7638124999994,268.7638124999994,z,0.6067077000006975,None,,,,,,,,PT_th,001,2025-03-12_16h48.25.189,MainFlow,2024.2.4,144.4055832984424,2025-03-12 16h48.35.183163 +0700,
1,10,0,word/wordth0101.png,image/False/imgf10.png,74,74,0,x,1.1481392999994569,None,0,74,74,74,269.3829181000001,,,,,,,270.8688192999998,270.37045319999925,270.37428569999975,270.37428569999975,270.8688192999998,270.8688192999998,270.8621753999996,271.97043099999973,271.97043099999973,271.97043099999973,x,1.1481392999994569,None,,,,,,,,PT_th,001,2025-03-12_16h48.25.189,MainFlow,2024.2.4,144.4055832984424,2025-03-12 16h48.35.183163 +0700,
1,68,1,word/wordth0681.png,image/True/img68.png,75,75,0,z,0.5552790999990975,None,0,75,75,75,273.1299545999991,,,,,,,274.6159029999999,274.1172284000004,274.12120529999993,274.12120529999993,274.6159029999999,274.6159029999999,274.60919810000087,275.6923693000008,275.6923693000008,275.6923693000008,z,0.5552790999990975,None,,,,,,,,PT_th,001,2025-03-12_16h48.25.189,MainFlow,2024.2.4,144.4055832984424,2025-03-12 16h48.35.183163 +0700,
1,82,0,word/wordth0821.png,image/False/imgf82.png,76,76,0,x,0.6802809000000707,None,0,76,76,76,276.2549345999996,,,,,,,277.7409403999991,277.2423362999998,277.2464937000004,277.2464937000004,277.7409403999991,277.7409403999991,277.7341949999991,278.8612658000002,278.8612658000002,278.8612658000002,x,0.6802809000000707,None,,,,,,,,PT_th,001,2025-03-12_16h48.25.189,MainFlow,2024.2.4,144.4055832984424,2025-03-12 16h48.35.183163 +0700,
1,42,1,word/wordth0421.png,image/True/img42.png,77,77,0,z,0.3660403999983828,None,0,77,77,77,279.55463640000016,,,,,,,281.04114409999966,280.5426308999995,280.5468598999996,280.5468598999996,281.04114409999966,281.04114409999966,281.0344298,282.1596086999998,282.1596086999998,282.1596086999998,z,0.3660403999983828,None,,,,,,,,PT_th,001,2025-03-12_16h48.25.189,MainFlow,2024.2.4,144.4055832984424,2025-03-12 16h48.35.183163 +0700,
1,59,1,word/wordth0591.png,image/True/img59.png,78,78,0,z,0.3374272999990353,None,0,78,78,78,282.53432880000037,,,,,,,284.02069909999955,283.5224713000007,283.5265151000003,283.5265151000003,284.02069909999955,284.02069909999955,284.0140692999994,285.10721960000046,285.10721960000046,285.10721960000046,z,0.3374272999990353,None,,,,,,,,PT_th,001,2025-03-12_16h48.25.189,MainFlow,2024.2.4,144.4055832984424,2025-03-12 16h48.35.183163 +0700,
1,18,1,word/wordth0181.png,image/True/img18.png,79,79,0,z,0.344571999999971,None,0,79,79,79,285.4538532000006,,,,,,,286.94027989999995,286.44192809999913,286.4459028000001,286.4459028000001,286.94027989999995,286.94027989999995,286.9336098999993,288.05409540000073,288.05409540000073,288.05409540000073,z,0.344571999999971,None,,,,,,,,PT_th,001,2025-03-12_16h48.25.189,MainFlow,2024.2.4,144.4055832984424,2025-03-12 16h48.35.183163 +0700,
1,63,1,word/wordth0631.png,image/True/img63.png,80,80,0,z,0.6776666000005207,None,0,80,80,80,288.40643850000015,,,,,,,289.8929953000006,289.3940810999993,289.39803460000076,289.39803460000076,289.8929953000006,289.8929953000006,289.88628470000003,291.01477200000045,291.01477200000045,291.01477200000045,z,0.6776666000005207,None,,,,,,,,PT_th,001,2025-03-12_16h48.25.189,MainFlow,2024.2.4,144.4055832984424,2025-03-12 16h48.35.183163 +0700,
1,40,0,word/wordth0401.png,image/False/imgf40.png,81,81,0,x,0.6225365999998758,None,0,81,81,81,291.7015513999995,,,,,,,293.18753800000013,292.68856159999996,292.6927362999995,292.6927362999995,293.18753800000013,293.18753800000013,293.1808449,294.2877045999994,294.2877045999994,294.2877045999994,x,0.6225365999998758,None,,,,,,,,PT_th,001,2025-03-12_16h48.25.189,MainFlow,2024.2.4,144.4055832984424,2025-03-12 16h48.35.183163 +0700,
1,55,0,word/wordth0551.png,image/False/imgf55.png,82,82,0,z,0.656929200000377,None,0,82,82,82,294.9219295999992,,,,,,,296.4124505,295.9137085000002,295.9178513000006,295.9178513000006,296.4124505,296.4124505,296.40578389999973,297.5170237000002,297.5170237000002,297.5170237000002,z,0.656929200000377,None,,,,,,,,PT_th,001,2025-03-12_16h48.25.189,MainFlow,2024.2.4,144.4055832984424,2025-03-12 16h48.35.183163 +0700,
1,26,1,word/wordth0261.png,image/True/img26.png,83,83,0,z,0.33775819999937085,None,0,83,83,83,298.18088969999917,,,,,,,299.6667433999992,299.1677708999996,299.1715992999998,299.1715992999998,299.6667433999992,299.6667433999992,299.6600259000006,300.7803664999992,300.7803664999992,300.7803664999992,z,0.33775819999937085,None,,,,,,,,PT_th,001,2025-03-12_16h48.25.189,MainFlow,2024.2.4,144.4055832984424,2025-03-12 16h48.35.183163 +0700,
1,28,0,word/wordth0281.png,image/False/imgf28.png,84,84,0,x,0.6369690000010451,None,0,84,84,84,301.1265050999991,,,,,,,302.6133585000007,302.11538239999936,302.1193583999993,302.1193583999993,302.6133585000007,302.6133585000007,302.6066878999991,303.7100384000005,303.7100384000005,303.7100384000005,x,0.6369690000010451,None,,,,,,,,PT_th,001,2025-03-12_16h48.25.189,MainFlow,2024.2.4,144.4055832984424,2025-03-12 16h48.35.183163 +0700,
1,8,0,word/wordth0081.png,image/False/imgf08.png,85,85,0,x,1.104073900000003,None,0,85,85,85,304.35584670000026,,,,,,,305.8417626999999,305.34341099999983,305.34734260000005,305.34734260000005,305.8417626999999,305.8417626999999,305.83508430000074,306.94382009999936,306.94382009999936,306.94382009999936,x,1.104073900000003,None,,,,,,,,PT_th,001,2025-03-12_16h48.25.189,MainFlow,2024.2.4,144.4055832984424,2025-03-12 16h48.35.183163 +0700,
1,9,1,word/wordth0091.png,image/True/img09.png,86,86,0,z,0.5037093999999342,None,0,86,86,86,308.0548823000008,,,,,,,309.54084479999983,309.0418852999992,309.0459824999998,309.0459824999998,309.54084479999983,309.54084479999983,309.5341303999994,310.61094650000086,310.61094650000086,310.61094650000086,z,0.5037093999999342,None,,,,,,,,PT_th,001,2025-03-12_16h48.25.189,MainFlow,2024.2.4,144.4055832984424,2025-03-12 16h48.35.183163 +0700,
1,78,1,word/wordth0781.png,image/True/img78.png,87,87,0,z,0.4987310999986221,None,0,87,87,87,311.12269129999913,,,,,,,312.60865059999924,312.10963679999986,312.1137013999996,312.1137013999996,312.60865059999924,312.60865059999924,312.6019517000004,313.69990250000046,313.69990250000046,313.69990250000046,z,0.4987310999986221,None,,,,,,,,PT_th,001,2025-03-12_16h48.25.189,MainFlow,2024.2.4,144.4055832984424,2025-03-12 16h48.35.183163 +0700,
1,1,0,word/wordth0011.png,image/False/imgf01.png,88,88,0,x,0.9988630000007106,None,0,88,88,88,314.20651089999956,,,,,,,315.6924648000004,315.1936251999996,315.19766359999994,315.19766359999994,315.6924648000004,315.6924648000004,315.6857471000003,316.7827436000007,316.7827436000007,316.7827436000007,x,0.9988630000007106,None,,,,,,,,PT_th,001,2025-03-12_16h48.25.189,MainFlow,2024.2.4,144.4055832984424,2025-03-12 16h48.35.183163 +0700,
1,71,1,word/wordth0711.png,image/True/img71.png,89,89,0,z,0.9949730999996973,None,0,89,89,89,317.7895845999992,,,,,,,319.27544950000083,318.7770476000005,318.7811798999992,318.7811798999992,319.27544950000083,319.27544950000083,319.2693708000006,320.3906836999995,320.3906836999995,320.3906836999995,z,0.9949730999996973,None,,,,,,,,PT_th,001,2025-03-12_16h48.25.189,MainFlow,2024.2.4,144.4055832984424,2025-03-12 16h48.35.183163 +0700,
1,93,1,word/wordth0931.png,image/True/img93.png,90,90,0,z,0.6254250000001775,None,0,90,90,90,321.3951818000005,,,,,,,322.8811447999997,322.3823190000003,322.3865112000003,322.3865112000003,322.8811447999997,322.8811447999997,322.8744905000003,323.96941809999953,323.96941809999953,323.96941809999953,z,0.6254250000001775,None,,,,,,,,PT_th,001,2025-03-12_16h48.25.189,MainFlow,2024.2.4,144.4055832984424,2025-03-12 16h48.35.183163 +0700,
1,78,0,word/wordth0781.png,image/False/imgf78.png,91,91,0,x,0.47891859999981534,None,0,91,91,91,324.6082284999993,,,,,,,326.0942154000004,325.5953583999999,325.59947920000013,325.59947920000013,326.0942154000004,326.0942154000004,326.08751330000086,327.1848076999995,327.1848076999995,327.1848076999995,x,0.47891859999981534,None,,,,,,,,PT_th,001,2025-03-12_16h48.25.189,MainFlow,2024.2.4,144.4055832984424,2025-03-12 16h48.35.183163 +0700,
1,8,0,word/wordth0081.png,image/False/imgf08.png,92,92,0,x,0.46639130000039586,None,0,92,92,92,327.67106799999965,,,,,,,329.15701850000005,328.65844769999967,328.66244089999964,328.66244089999964,329.15701850000005,329.15701850000005,329.1503821999995,330.2465551999994,330.2465551999994,330.2465551999994,x,0.46639130000039586,None,,,,,,,,PT_th,001,2025-03-12_16h48.25.189,MainFlow,2024.2.4,144.4055832984424,2025-03-12 16h48.35.183163 +0700,
1,9,0,word/wordth0091.png,image/False/imgf09.png,93,93,0,x,0.4562569000008807,None,0,93,93,93,330.7253445999995,,,,,,,332.2118804999991,331.71321270000044,331.71723270000075,331.71723270000075,332.2118804999991,332.2118804999991,332.2051632999992,333.29026689999955,333.29026689999955,333.29026689999955,x,0.4562569000008807,None,,,,,,,,PT_th,001,2025-03-12_16h48.25.189,MainFlow,2024.2.4,144.4055832984424,2025-03-12 16h48.35.183163 +0700,
1,75,1,word/wordth0751.png,image/True/img75.png,94,94,0,z,0.5030945999988035,None,0,94,94,94,333.7558162000005,,,,,,,335.24190239999916,334.7432138000004,334.7473566000008,334.7473566000008,335.24190239999916,335.24190239999916,335.23508240000046,336.33706639999946,336.33706639999946,336.33706639999946,z,0.5030945999988035,None,,,,,,,,PT_th,001,2025-03-12_16h48.25.189,MainFlow,2024.2.4,144.4055832984424,2025-03-12 16h48.35.183163 +0700,
1,95,0,word/wordth0951.png,image/False/imgf95.png,95,95,0,x,0.47130599999945844,None,0,95,95,95,336.85263269999996,,,,,,,338.3385911000005,337.8398135999996,337.84391139999934,337.84391139999934,338.3385911000005,338.3385911000005,338.33193799999935,339.4634764000002,339.4634764000002,339.4634764000002,x,0.47130599999945844,None,,,,,,,,PT_th,001,2025-03-12_16h48.25.189,MainFlow,2024.2.4,144.4055832984424,2025-03-12 16h48.35.183163 +0700,
1,70,1,word/wordth0701.png,image/True/img70.png,96,96,0,z,0.5745760999998311,None,0,96,96,96,339.94773929999974,,,,,,,341.43367729999954,340.9352846999991,340.9391336000008,340.9391336000008,341.43367729999954,341.43367729999954,341.4269753999997,342.5678126999992,342.5678126999992,342.5678126999992,z,0.5745760999998311,None,,,,,,,,PT_th,001,2025-03-12_16h48.25.189,MainFlow,2024.2.4,144.4055832984424,2025-03-12 16h48.35.183163 +0700,
1,94,0,word/wordth0941.png,image/False/imgf94.png,97,97,0,x,0.5337096999992355,None,0,97,97,97,343.15069199999925,,,,,,,344.6365595999996,344.1378869,344.14203540000017,344.14203540000017,344.6365595999996,344.6365595999996,344.6298760000009,345.7623554999991,345.7623554999991,345.7623554999991,x,0.5337096999992355,None,,,,,,,,PT_th,001,2025-03-12_16h48.25.189,MainFlow,2024.2.4,144.4055832984424,2025-03-12 16h48.35.183163 +0700,
1,9,0,word/wordth0091.png,image/False/imgf09.png,98,98,0,x,0.701932099998885,None,0,98,98,98,346.3080905000006,,,,,,,347.79452630000014,347.2960254000009,347.3003274999992,347.3003274999992,347.79452630000014,347.79452630000014,347.78784070000074,348.89827929999956,348.89827929999956,348.89827929999956,x,0.701932099998885,None,,,,,,,,PT_th,001,2025-03-12_16h48.25.189,MainFlow,2024.2.4,144.4055832984424,2025-03-12 16h48.35.183163 +0700,
1,18,0,word/wordth0181.png,image/False/imgf18.png,99,99,0,x,1.7161350999995193,None,0,99,99,99,349.6111545999993,,,,,,,351.0971866,350.5983053,350.60233270000026,350.60233270000026,351.0971866,351.0971866,351.09045739999965,352.19744100000025,352.19744100000025,352.19744100000025,x,1.7161350999995193,None,,,,,,,,PT_th,001,2025-03-12_16h48.25.189,MainFlow,2024.2.4,144.4055832984424,2025-03-12 16h48.35.183163 +0700,
1,28,1,word/wordth0281.png,image/True/img28.png,100,100,0,z,0.6849837999998272,None,0,100,100,100,353.9263052999995,,,,,,,355.4122676999996,354.91337980000026,354.9174574000008,354.9174574000008,355.4122676999996,355.4122676999996,355.40572900000006,356.5430899999992,356.5430899999992,356.5430899999992,z,0.6849837999998272,None,,,,,,,,PT_th,001,2025-03-12_16h48.25.189,MainFlow,2024.2.4,144.4055832984424,2025-03-12 16h48.35.183163 +0700,
1,23,1,word/wordth0231.png,image/True/img23.png,101,101,0,z,0.4058029000007082,None,0,101,101,101,357.2366285999997,,,,,,,358.7234191999996,358.2240846000004,358.2279244000001,358.2279244000001,358.7234191999996,358.7234191999996,358.71607159999985,359.8308498999995,359.8308498999995,359.8308498999995,z,0.4058029000007082,None,,,,,,,,PT_th,001,2025-03-12_16h48.25.189,MainFlow,2024.2.4,144.4055832984424,2025-03-12 16h48.35.183163 +0700,
1,30,0,word/wordth0301.png,image/False/imgf30.png,102,102,0,x,0.6525809000013396,None,0,102,102,102,360.2472598000004,,,,,,,361.7332129999995,361.2345201999997,361.2386186999993,361.2386186999993,361.7332129999995,361.7332129999995,361.72647270000016,362.8279954999998,362.8279954999998,362.8279954999998,x,0.6525809000013396,None,,,,,,,,PT_th,001,2025-03-12_16h48.25.189,MainFlow,2024.2.4,144.4055832984424,2025-03-12 16h48.35.183163 +0700,
1,11,1,word/wordth0111.png,image/True/img11.png,103,103,0,z,0.7237516000004689,None,0,103,103,103,363.48953079999956,,,,,,,364.9755136999993,364.47710030000053,364.4811637999992,364.4811637999992,364.9755136999993,364.9755136999993,364.96880079999937,366.09495649999917,366.09495649999917,366.09495649999917,z,0.7237516000004689,None,,,,,,,,PT_th,001,2025-03-12_16h48.25.189,MainFlow,2024.2.4,144.4055832984424,2025-03-12 16h48.35.183163 +0700,
1,75,0,word/wordth0751.png,image/False/imgf75.png,104,104,0,x,1.4223663000011584,None,0,104,104,104,366.83016680000037,,,,,,,368.3160091999998,367.81714479999937,367.8210951000001,367.8210951000001,368.3160091999998,368.3160091999998,368.30947860000015,369.4197444000001,369.4197444000001,369.4197444000001,x,1.4223663000011584,None,,,,,,,,PT_th,001,2025-03-12_16h48.25.189,MainFlow,2024.2.4,144.4055832984424,2025-03-12 16h48.35.183163 +0700,
1,6,0,word/wordth0061.png,image/False/imgf06.png,105,105,0,x,0.8815133000007336,None,0,105,105,105,370.85562779999964,,,,,,,372.34151480000037,371.8429916999994,371.84692689999974,371.84692689999974,372.34151480000037,372.34151480000037,372.3348397000009,373.42491580000024,373.42491580000024,373.42491580000024,x,0.8815133000007336,None,,,,,,,,PT_th,001,2025-03-12_16h48.25.189,MainFlow,2024.2.4,144.4055832984424,2025-03-12 16h48.35.183163 +0700,
1,27,1,word/wordth0271.png,image/True/img27.png,106,106,0,z,1.1639016999997693,None,0,106,106,106,374.3162606999995,,,,,,,375.8021934999997,375.3032717999995,375.3074491999996,375.3074491999996,375.8021934999997,375.8021934999997,375.7954582000002,376.89065330000085,376.89065330000085,376.89065330000085,z,1.1639016999997693,None,,,,,,,,PT_th,001,2025-03-12_16h48.25.189,MainFlow,2024.2.4,144.4055832984424,2025-03-12 16h48.35.183163 +0700,
1,1,1,word/wordth0011.png,image/True/img01.png,107,107,0,z,0.5556536000003689,None,0,107,107,107,378.06372510000074,,,,,,,379.55017600000065,379.0513111,379.05510479999975,379.05510479999975,379.55017600000065,379.55017600000065,379.54349170000023,380.6527189999997,380.6527189999997,380.6527189999997,z,0.5556536000003689,None,,,,,,,,PT_th,001,2025-03-12_16h48.25.189,MainFlow,2024.2.4,144.4055832984424,2025-03-12 16h48.35.183163 +0700,
1,44,0,word/wordth0441.png,image/False/imgf44.png,108,108,0,x,0.585899599998811,None,0,108,108,108,381.2207139000002,,,,,,,382.7085311999999,382.21055669999987,382.21467870000015,382.21467870000015,382.7085311999999,382.7085311999999,382.7020940000002,383.81687799999963,383.81687799999963,383.81687799999963,x,0.585899599998811,None,,,,,,,,PT_th,001,2025-03-12_16h48.25.189,MainFlow,2024.2.4,144.4055832984424,2025-03-12 16h48.35.183163 +0700,
1,48,0,word/wordth0481.png,image/False/imgf48.png,109,109,0,x,0.4897288000011031,None,0,109,109,109,384.4135191000005,,,,,,,385.8995522999994,385.40058990000034,385.4046942999994,385.4046942999994,385.8995522999994,385.8995522999994,385.89294379999956,387.00621180000053,387.00621180000053,387.00621180000053,x,0.4897288000011031,None,,,,,,,,PT_th,001,2025-03-12_16h48.25.189,MainFlow,2024.2.4,144.4055832984424,2025-03-12 16h48.35.183163 +0700,
1,60,0,word/wordth0601.png,image/False/imgf60.png,110,110,0,x,0.44167820000075153,None,0,110,110,110,387.50735050000003,,,,,,,388.9933282000002,388.4944567000002,388.49857469999915,388.49857469999915,388.9933282000002,388.9933282000002,388.98664590000044,390.0887342999995,390.0887342999995,390.0887342999995,x,0.44167820000075153,None,,,,,,,,PT_th,001,2025-03-12_16h48.25.189,MainFlow,2024.2.4,144.4055832984424,2025-03-12 16h48.35.183163 +0700,
1,96,1,word/wordth0961.png,image/True/img96.png,111,111,0,z,5.33925299999828,None,0,111,111,111,390.5413375999997,,,,,,,392.02727629999936,391.52867929999957,391.53282410000065,391.53282410000065,392.02727629999936,392.02727629999936,392.0207081000008,393.12789689999954,393.12789689999954,393.12789689999954,z,5.33925299999828,None,,,,,,,,PT_th,001,2025-03-12_16h48.25.189,MainFlow,2024.2.4,144.4055832984424,2025-03-12 16h48.35.183163 +0700,
1,79,0,word/wordth0791.png,image/False/imgf79.png,112,112,0,x,1.2682452000008198,None,0,112,112,112,398.4745595000004,,,,,,,399.9604761999999,399.4621418000006,399.4663720999997,399.4663720999997,399.9604761999999,399.9604761999999,399.9537894999994,401.10304030000043,401.10304030000043,401.10304030000043,x,1.2682452000008198,None,,,,,,,,PT_th,001,2025-03-12_16h48.25.189,MainFlow,2024.2.4,144.4055832984424,2025-03-12 16h48.35.183163 +0700,
1,7,0,word/wordth0071.png,image/False/imgf07.png,113,113,0,x,1.0341001999986474,None,0,113,113,113,402.38080079999963,,,,,,,403.86675130000003,403.3675877000005,403.3715303000008,403.3715303000008,403.86675130000003,403.86675130000003,403.86009080000076,404.96625630000017,404.96625630000017,404.96625630000017,x,1.0341001999986474,None,,,,,,,,PT_th,001,2025-03-12_16h48.25.189,MainFlow,2024.2.4,144.4055832984424,2025-03-12 16h48.35.183163 +0700,
1,36,0,word/wordth0361.png,image/False/imgf36.png,114,114,0,x,2.9158855999994557,None,0,114,114,114,406.0075976999997,,,,,,,407.49359840000034,406.9946787000008,406.9985488000002,406.9985488000002,407.49359840000034,407.49359840000034,407.4869128999999,408.5967144999995,408.5967144999995,408.5967144999995,x,2.9158855999994557,None,,,,,,,,PT_th,001,2025-03-12_16h48.25.189,MainFlow,2024.2.4,144.4055832984424,2025-03-12 16h48.35.183163 +0700,
1,71,0,word/wordth0711.png,image/False/imgf71.png,115,115,0,x,0.5767015000001265,None,0,115,115,115,411.52552099999957,,,,,,,413.0114173000002,412.5125850000004,412.5166104,412.5166104,413.0114173000002,413.0114173000002,413.00472249999984,414.1306112000002,414.1306112000002,414.1306112000002,x,0.5767015000001265,None,,,,,,,,PT_th,001,2025-03-12_16h48.25.189,MainFlow,2024.2.4,144.4055832984424,2025-03-12 16h48.35.183163 +0700,
1,20,0,word/wordth0201.png,image/False/imgf20.png,116,116,0,x,0.5666069999988395,None,0,116,116,116,414.7205035999996,,,,,,,416.2064472999991,415.70760209999935,415.7115995999993,415.7115995999993,416.2064472999991,416.2064472999991,416.19980469999973,417.33371199999965,417.33371199999965,417.33371199999965,x,0.5666069999988395,None,,,,,,,,PT_th,001,2025-03-12_16h48.25.189,MainFlow,2024.2.4,144.4055832984424,2025-03-12 16h48.35.183163 +0700,
1,87,1,word/wordth0871.png,image/True/img87.png,117,117,0,z,0.5372992999982671,None,0,117,117,117,417.9134381999993,,,,,,,419.4004703999999,418.9024489000003,418.9068334000003,418.9068334000003,419.4004703999999,419.4004703999999,419.39379240000017,420.5213261000008,420.5213261000008,420.5213261000008,z,0.5372992999982671,None,,,,,,,,PT_th,001,2025-03-12_16h48.25.189,MainFlow,2024.2.4,144.4055832984424,2025-03-12 16h48.35.183163 +0700,
1,50,0,word/wordth0501.png,image/False/imgf50.png,118,118,0,x,0.794811199999458,None,0,118,118,118,421.06884309999987,,,,,,,422.55530779999935,422.0570740000003,422.0613513999997,422.0613513999997,422.55530779999935,422.55530779999935,422.5486158999993,423.6676368999997,423.6676368999997,423.6676368999997,x,0.794811199999458,None,,,,,,,,PT_th,001,2025-03-12_16h48.25.189,MainFlow,2024.2.4,144.4055832984424,2025-03-12 16h48.35.183163 +0700,
1,18,1,word/wordth0181.png,image/True/img18.png,119,119,0,z,0.4481716000009328,None,0,119,119,119,424.4729043999996,,,,,,,425.95889109999916,425.46021269999983,425.46421270000064,425.46421270000064,425.95889109999916,425.95889109999916,425.9529806999999,427.0733397999993,427.0733397999993,427.0733397999993,z,0.4481716000009328,None,,,,,,,,PT_th,001,2025-03-12_16h48.25.189,MainFlow,2024.2.4,144.4055832984424,2025-03-12 16h48.35.183163 +0700,
1,71,0,word/wordth0711.png,image/False/imgf71.png,120,120,0,x,0.6971603000001778,None,0,120,120,120,427.5296784000002,,,,,,,429.01572900000065,428.5167741000005,428.52055909999945,428.52055909999945,429.01572900000065,429.01572900000065,429.0089642999992,430.1382384000008,430.1382384000008,430.1382384000008,x,0.6971603000001778,None,,,,,,,,PT_th,001,2025-03-12_16h48.25.189,MainFlow,2024.2.4,144.4055832984424,2025-03-12 16h48.35.183163 +0700,
1,46,1,word/wordth0461.png,image/True/img46.png,121,121,0,z,0.5762754999996105,None,0,121,121,121,430.84613349999927,,,,,,,432.33217709999917,431.83304189999944,431.8369222000001,431.8369222000001,432.33217709999917,432.33217709999917,432.32565629999954,433.442959,433.442959,433.442959,z,0.5762754999996105,None,,,,,,,,PT_th,001,2025-03-12_16h48.25.189,MainFlow,2024.2.4,144.4055832984424,2025-03-12 16h48.35.183163 +0700,
1,10,1,word/wordth0101.png,image/True/img10.png,122,122,0,z,0.7234092999988206,None,0,122,122,122,434.03255290000016,,,,,,,435.52016899999944,435.02214210000056,435.02651200000037,435.02651200000037,435.52016899999944,435.52016899999944,435.5134672999993,436.6147175999995,436.6147175999995,436.6147175999995,z,0.7234092999988206,None,,,,,,,,PT_th,001,2025-03-12_16h48.25.189,MainFlow,2024.2.4,144.4055832984424,2025-03-12 16h48.35.183163 +0700,
1,16,0,word/wordth0161.png,image/False/imgf16.png,123,123,0,x,1.1981329999998707,None,0,123,123,123,437.3457890999998,,,,,,,438.8317126000002,438.33264280000003,438.33685089999926,438.33685089999926,438.8317126000002,438.8317126000002,438.82508849999977,439.9433826000004,439.9433826000004,439.9433826000004,x,1.1981329999998707,None,,,,,,,,PT_th,001,2025-03-12_16h48.25.189,MainFlow,2024.2.4,144.4055832984424,2025-03-12 16h48.35.183163 +0700,
1,15,0,word/wordth0151.png,image/False/imgf15.png,124,124,0,x,1.884224899999026,None,0,124,124,124,441.1510952999997,,,,,,,442.6369897000004,442.1382188000007,442.14215739999963,442.14215739999963,442.6369897000004,442.6369897000004,442.63032639999983,443.7362262000006,443.7362262000006,443.7362262000006,x,1.884224899999026,None,,,,,,,,PT_th,001,2025-03-12_16h48.25.189,MainFlow,2024.2.4,144.4055832984424,2025-03-12 16h48.35.183163 +0700,
1,59,0,word/wordth0591.png,image/False/imgf59.png,125,125,0,x,0.42915809999976773,None,0,125,125,125,445.63149019999946,,,,,,,447.1174572,446.61913429999913,446.6236427999993,446.6236427999993,447.1174572,447.1174572,447.1108182000007,448.2245913000006,448.2245913000006,448.2245913000006,x,0.42915809999976773,None,,,,,,,,PT_th,001,2025-03-12_16h48.25.189,MainFlow,2024.2.4,144.4055832984424,2025-03-12 16h48.35.183163 +0700,
1,11,0,word/wordth0111.png,image/False/imgf11.png,126,126,0,x,0.5631675999993604,None,0,126,126,126,448.66248369999994,,,,,,,450.14896489999956,449.65033890000086,449.6545335999999,449.6545335999999,450.14896489999956,450.14896489999956,450.1422782999998,451.26499460000014,451.26499460000014,451.26499460000014,x,0.5631675999993604,None,,,,,,,,PT_th,001,2025-03-12_16h48.25.189,MainFlow,2024.2.4,144.4055832984424,2025-03-12 16h48.35.183163 +0700,
1,75,1,word/wordth0751.png,image/True/img75.png,127,127,0,z,0.8733116000003065,None,0,127,127,127,451.8375340999992,,,,,,,453.3240243,452.8252446000006,452.8294679999999,452.8294679999999,453.3240243,453.3240243,453.31739000000016,454.41860690000067,454.41860690000067,454.41860690000067,z,0.8733116000003065,None,,,,,,,,PT_th,001,2025-03-12_16h48.25.189,MainFlow,2024.2.4,144.4055832984424,2025-03-12 16h48.35.183163 +0700,
1,33,1,word/wordth0331.png,image/True/img33.png,128,128,0,z,0.5434292999998434,None,0,128,128,128,455.3021750000007,,,,,,,456.78581870000016,456.2907421,456.29528910000045,456.29528910000045,456.78581870000016,456.78581870000016,456.7791135000007,457.8970597000007,457.8970597000007,457.8970597000007,z,0.5434292999998434,None,,,,,,,,PT_th,001,2025-03-12_16h48.25.189,MainFlow,2024.2.4,144.4055832984424,2025-03-12 16h48.35.183163 +0700,
1,66,0,word/wordth0661.png,image/False/imgf66.png,129,129,0,x,0.8184659000016836,None,0,129,129,129,458.4520852000005,,,,,,,459.9381001999991,459.4391446999998,459.4433979000005,459.4433979000005,459.9381001999991,459.9381001999991,459.93130460000066,461.0654797999996,461.0654797999996,461.0654797999996,x,0.8184659000016836,None,,,,,,,,PT_th,001,2025-03-12_16h48.25.189,MainFlow,2024.2.4,144.4055832984424,2025-03-12 16h48.35.183163 +0700,
1,38,1,word/wordth0381.png,image/True/img38.png,130,130,0,z,0.6921927000003052,None,0,130,130,130,461.8946883000008,,,,,,,463.3806002000001,462.88235800000075,462.88665629999923,462.88665629999923,463.3806002000001,463.3806002000001,463.3740051999994,464.4756887000003,464.4756887000003,464.4756887000003,z,0.6921927000003052,None,,,,,,,,PT_th,001,2025-03-12_16h48.25.189,MainFlow,2024.2.4,144.4055832984424,2025-03-12 16h48.35.183163 +0700,
1,38,1,word/wordth0381.png,image/True/img38.png,131,131,0,z,0.3766425999983767,None,0,131,131,131,465.17890310000075,,,,,,,466.66486629999963,466.1665627000002,466.17055790000086,466.17055790000086,466.66486629999963,466.66486629999963,466.65845740000077,467.7599563999993,467.7599563999993,467.7599563999993,z,0.3766425999983767,None,,,,,,,,PT_th,001,2025-03-12_16h48.25.189,MainFlow,2024.2.4,144.4055832984424,2025-03-12 16h48.35.183163 +0700,
1,63,1,word/wordth0631.png,image/True/img63.png,132,132,0,z,0.5259953000004316,None,0,132,132,132,468.1435624000005,,,,,,,469.6295425999997,469.13063879999936,469.13463860000047,469.13463860000047,469.6295425999997,469.6295425999997,469.62284159999945,470.7349484999995,470.7349484999995,470.7349484999995,z,0.5259953000004316,None,,,,,,,,PT_th,001,2025-03-12_16h48.25.189,MainFlow,2024.2.4,144.4055832984424,2025-03-12 16h48.35.183163 +0700,
1,33,0,word/wordth0331.png,image/False/imgf33.png,133,133,0,x,0.4813505999991321,None,0,133,133,133,471.27166150000085,,,,,,,472.75812009999936,472.2593684000003,472.26382940000076,472.26382940000076,472.75812009999936,472.75812009999936,472.7514518000007,473.86399449999954,473.86399449999954,473.86399449999954,x,0.4813505999991321,None,,,,,,,,PT_th,001,2025-03-12_16h48.25.189,MainFlow,2024.2.4,144.4055832984424,2025-03-12 16h48.35.183163 +0700,
1,52,1,word/wordth0521.png,image/True/img52.png,134,134,0,z,0.6271451000011439,None,0,134,134,134,474.35846090000086,,,,,,,475.84435850000045,475.3456865999997,475.3498147999999,475.3498147999999,475.84435850000045,475.84435850000045,475.83774710000034,476.9586225999992,476.9586225999992,476.9586225999992,z,0.6271451000011439,None,,,,,,,,PT_th,001,2025-03-12_16h48.25.189,MainFlow,2024.2.4,144.4055832984424,2025-03-12 16h48.35.183163 +0700,
1,11,0,word/wordth0111.png,image/False/imgf11.png,135,135,0,x,0.4928096000003279,None,0,135,135,135,477.5957285000004,,,,,,,479.08156450000024,478.5829159999994,478.5867794000005,478.5867794000005,479.08156450000024,479.08156450000024,479.07493760000034,480.19430380000085,480.19430380000085,480.19430380000085,x,0.4928096000003279,None,,,,,,,,PT_th,001,2025-03-12_16h48.25.189,MainFlow,2024.2.4,144.4055832984424,2025-03-12 16h48.35.183163 +0700,
1,1,0,word/wordth0011.png,image/False/imgf01.png,136,136,0,x,0.4482062999995833,None,0,136,136,136,480.7006101999996,,,,,,,482.18654290000086,481.68760269999984,481.69162850000066,481.69162850000066,482.18654290000086,482.18654290000086,482.18040739999924,483.27306110000063,483.27306110000063,483.27306110000063,x,0.4482062999995833,None,,,,,,,,PT_th,001,2025-03-12_16h48.25.189,MainFlow,2024.2.4,144.4055832984424,2025-03-12 16h48.35.183163 +0700,
1,96,0,word/wordth0961.png,image/False/imgf96.png,137,137,0,x,0.5402509000014106,None,0,137,137,137,483.7313787999992,,,,,,,485.21723510000083,484.71830430000045,484.7225448999998,484.7225448999998,485.21723510000083,485.21723510000083,485.2105081000009,486.3104079000004,486.3104079000004,486.3104079000004,x,0.5402509000014106,None,,,,,,,,PT_th,001,2025-03-12_16h48.25.189,MainFlow,2024.2.4,144.4055832984424,2025-03-12 16h48.35.183163 +0700,
1,57,1,word/wordth0571.png,image/True/img57.png,138,138,0,z,0.5539231000002474,None,0,138,138,138,486.8624168999995,,,,,,,488.34829739999986,487.8504854999992,487.85460579999926,487.85460579999926,488.34829739999986,488.34829739999986,488.3415784000008,489.4403149000009,489.4403149000009,489.4403149000009,z,0.5539231000002474,None,,,,,,,,PT_th,001,2025-03-12_16h48.25.189,MainFlow,2024.2.4,144.4055832984424,2025-03-12 16h48.35.183163 +0700,
1,30,1,word/wordth0301.png,image/True/img30.png,139,139,0,z,0.6937417999997706,None,0,139,139,139,490.0020956999997,,,,,,,491.4881174000002,490.98905249999916,490.9928263999991,490.9928263999991,491.4881174000002,491.4881174000002,491.48128840000027,492.56928139999945,492.56928139999945,492.56928139999945,z,0.6937417999997706,None,,,,,,,,PT_th,001,2025-03-12_16h48.25.189,MainFlow,2024.2.4,144.4055832984424,2025-03-12 16h48.35.183163 +0700,
1,41,1,word/wordth0411.png,image/True/img41.png,140,140,0,z,0.6977369999985967,None,0,140,140,140,493.27479999999923,,,,,,,494.76115890000074,494.26180360000035,494.26575260000027,494.26575260000027,494.76115890000074,494.76115890000074,494.7544521,495.8595361000007,495.8595361000007,495.8595361000007,z,0.6977369999985967,None,,,,,,,,PT_th,001,2025-03-12_16h48.25.189,MainFlow,2024.2.4,144.4055832984424,2025-03-12 16h48.35.183163 +0700,
1,50,1,word/wordth0501.png,image/True/img50.png,141,141,0,x,0.7371388999999908,None,0,141,141,141,496.5670238999992,,,,,,,498.05346780000036,497.5540304999995,497.55799990000014,497.55799990000014,498.05346780000036,498.05346780000036,498.0467697999993,499.14887350000026,499.14887350000026,499.14887350000026,x,0.7371388999999908,None,,,,,,,,PT_th,001,2025-03-12_16h48.25.189,MainFlow,2024.2.4,144.4055832984424,2025-03-12 16h48.35.183163 +0700,
1,3,0,word/wordth0031.png,image/False/imgf03.png,142,142,0,x,0.4795192000001407,None,0,142,142,142,499.8931212000007,,,,,,,501.37907559999985,500.8794928999996,500.8834872999996,500.8834872999996,501.37907559999985,501.37907559999985,501.37248329999966,502.4656787999993,502.4656787999993,502.4656787999993,x,0.4795192000001407,None,,,,,,,,PT_th,001,2025-03-12_16h48.25.189,MainFlow,2024.2.4,144.4055832984424,2025-03-12 16h48.35.183163 +0700,
1,78,1,word/wordth0781.png,image/True/img78.png,143,143,0,z,0.8955758000010974,None,0,143,143,143,502.95822729999963,,,,,,,504.4446377999993,503.945377,503.94934079999985,503.94934079999985,504.4446377999993,504.4446377999993,504.43794030000026,505.5326764000001,505.5326764000001,505.5326764000001,z,0.8955758000010974,None,,,,,,,,PT_th,001,2025-03-12_16h48.25.189,MainFlow,2024.2.4,144.4055832984424,2025-03-12 16h48.35.183163 +0700,
1,76,0,word/wordth0761.png,image/False/imgf76.png,144,144,0,x,0.8164635000011913,None,0,144,144,144,506.44180589999996,,,,,,,507.92827939999916,507.4292888,507.4334784999992,507.4334784999992,507.92827939999916,507.92827939999916,507.9215793000003,509.0403559999995,509.0403559999995,509.0403559999995,x,0.8164635000011913,None,,,,,,,,PT_th,001,2025-03-12_16h48.25.189,MainFlow,2024.2.4,144.4055832984424,2025-03-12 16h48.35.183163 +0700,
1,6,1,word/wordth0061.png,image/True/img06.png,145,145,0,z,2.1341515999993135,None,0,145,145,145,509.86626389999947,,,,,,,511.3522088000009,510.8529801000004,510.85691079999924,510.85691079999924,511.3522088000009,511.3522088000009,511.3455761999994,512.4373135000005,512.4373135000005,512.4373135000005,z,2.1341515999993135,None,,,,,,,,PT_th,001,2025-03-12_16h48.25.189,MainFlow,2024.2.4,144.4055832984424,2025-03-12 16h48.35.183163 +0700,
1,31,0,word/wordth0311.png,image/False/imgf31.png,146,146,0,x,1.3961294000000635,None,0,146,146,146,514.5841548999997,,,,,,,516.0702199000007,515.5709657999996,515.5747623000007,515.5747623000007,516.0702199000007,516.0702199000007,516.0634298999994,517.1373210000002,517.1373210000002,517.1373210000002,x,1.3961294000000635,None,,,,,,,,PT_th,001,2025-03-12_16h48.25.189,MainFlow,2024.2.4,144.4055832984424,2025-03-12 16h48.35.183163 +0700,
1,22,0,word/wordth0221.png,image/False/imgf22.png,147,147,0,x,0.5603477000004204,None,0,147,147,147,518.5406770999998,,,,,,,520.0265560999997,519.5271723000005,519.5311280999995,519.5311280999995,520.0265560999997,520.0265560999997,520.0198602,521.1315266999991,521.1315266999991,521.1315266999991,x,0.5603477000004204,None,,,,,,,,PT_th,001,2025-03-12_16h48.25.189,MainFlow,2024.2.4,144.4055832984424,2025-03-12 16h48.35.183163 +0700,
1,28,0,word/wordth0281.png,image/False/imgf28.png,148,148,0,x,0.6543180000007851,None,0,148,148,148,521.7047669999993,,,,,,,523.1906643999992,522.6917080000003,522.6960225999992,522.6960225999992,523.1906643999992,523.1906643999992,523.1839789000005,524.2819882000003,524.2819882000003,524.2819882000003,x,0.6543180000007851,None,,,,,,,,PT_th,001,2025-03-12_16h48.25.189,MainFlow,2024.2.4,144.4055832984424,2025-03-12 16h48.35.183163 +0700,
1,57,0,word/wordth0571.png,image/False/imgf57.png,149,149,0,x,0.8626954999999725,None,0,149,149,149,524.9481945999996,,,,,,,526.4345924999998,525.9353900999995,525.9393744999998,525.9393744999998,526.4345924999998,526.4345924999998,526.4278845000008,527.5365277000001,527.5365277000001,527.5365277000001,x,0.8626954999999725,None,,,,,,,,PT_th,001,2025-03-12_16h48.25.189,MainFlow,2024.2.4,144.4055832984424,2025-03-12 16h48.35.183163 +0700,
1,7,0,word/wordth0071.png,image/False/imgf07.png,150,150,0,x,0.589297099999385,None,0,150,150,150,528.4107064,,,,,,,529.8965970000008,529.3975406000009,529.4013699999996,529.4013699999996,529.8965970000008,529.8965970000008,529.8900107000009,530.9892196000001,530.9892196000001,530.9892196000001,x,0.589297099999385,None,,,,,,,,PT_th,001,2025-03-12_16h48.25.189,MainFlow,2024.2.4,144.4055832984424,2025-03-12 16h48.35.183163 +0700,
1,56,1,word/wordth0561.png,image/True/img56.png,151,151,0,z,0.5601176000000123,None,0,151,151,151,531.5918213999994,,,,,,,533.0782832000004,532.5792949000006,532.5832262000004,532.5832262000004,533.0782832000004,533.0782832000004,533.0716413999999,534.1670654000009,534.1670654000009,534.1670654000009,z,0.5601176000000123,None,,,,,,,,PT_th,001,2025-03-12_16h48.25.189,MainFlow,2024.2.4,144.4055832984424,2025-03-12 16h48.35.183163 +0700,
1,6,0,word/wordth0061.png,image/False/imgf06.png,152,152,0,x,0.6896101000002091,None,0,152,152,152,534.7364627000006,,,,,,,536.2224005999997,535.7230971999998,535.7270372999992,535.7270372999992,536.2224005999997,536.2224005999997,536.2156393999994,537.3057420000005,537.3057420000005,537.3057420000005,x,0.6896101000002091,None,,,,,,,,PT_th,001,2025-03-12_16h48.25.189,MainFlow,2024.2.4,144.4055832984424,2025-03-12 16h48.35.183163 +0700,
1,36,0,word/wordth0361.png,image/False/imgf36.png,153,153,0,x,0.6484883000011905,None,0,153,153,153,538.0027983,,,,,,,539.4896814999993,538.9896317999992,538.9937451000005,538.9937451000005,539.4896814999993,539.4896814999993,539.4820044000007,540.5811797999995,540.5811797999995,540.5811797999995,x,0.6484883000011905,None,,,,,,,,PT_th,001,2025-03-12_16h48.25.189,MainFlow,2024.2.4,144.4055832984424,2025-03-12 16h48.35.183163 +0700,
1,79,1,word/wordth0791.png,image/True/img79.png,154,154,0,z,0.4976372999990417,None,0,154,154,154,541.2392536999996,,,,,,,542.7251319999996,542.2260867000005,542.2300866999994,542.2300866999994,542.7251319999996,542.7251319999996,542.7184163999991,543.8252659000009,543.8252659000009,543.8252659000009,z,0.4976372999990417,None,,,,,,,,PT_th,001,2025-03-12_16h48.25.189,MainFlow,2024.2.4,144.4055832984424,2025-03-12 16h48.35.183163 +0700,
1,52,0,word/wordth0521.png,image/False/imgf52.png,155,155,0,x,0.5972713999999542,None,0,155,155,155,544.3317998000002,,,,,,,545.8177508999997,545.3189581999995,545.3230339000002,545.3230339000002,545.8177508999997,545.8177508999997,545.8110154999995,546.9047116000002,546.9047116000002,546.9047116000002,x,0.5972713999999542,None,,,,,,,,PT_th,001,2025-03-12_16h48.25.189,MainFlow,2024.2.4,144.4055832984424,2025-03-12 16h48.35.183163 +0700,
1,18,0,word/wordth0181.png,image/False/imgf18.png,156,156,0,x,0.77820199999951,None,0,156,156,156,547.5152130999995,,,,,,,549.0017420000004,548.5022616999995,548.5062096999991,548.5062096999991,549.0017420000004,549.0017420000004,548.9944237,550.0933707000004,550.0933707000004,550.0933707000004,x,0.77820199999951,None,,,,,,,,PT_th,001,2025-03-12_16h48.25.189,MainFlow,2024.2.4,144.4055832984424,2025-03-12 16h48.35.183163 +0700,
1,23,1,word/wordth0231.png,image/True/img23.png,157,157,0,z,0.6300508000003902,None,0,157,157,157,550.8837079999994,,,,,,,552.3702118000001,551.8714801999995,551.8756945999994,551.8756945999994,552.3702118000001,552.3702118000001,552.3635482000009,553.4689352999994,553.4689352999994,553.4689352999994,z,0.6300508000003902,None,,,,,,,,PT_th,001,2025-03-12_16h48.25.189,MainFlow,2024.2.4,144.4055832984424,2025-03-12 16h48.35.183163 +0700,
1,61,1,word/wordth0611.png,image/True/img61.png,158,158,0,z,0.400488299999779,None,0,158,158,158,554.1069179999995,,,,,,,555.5926658999997,555.0938568000001,555.0978737000005,555.0978737000005,555.5926658999997,555.5926658999997,555.5859660999995,556.7226866000001,556.7226866000001,556.7226866000001,z,0.400488299999779,None,,,,,,,,PT_th,001,2025-03-12_16h48.25.189,MainFlow,2024.2.4,144.4055832984424,2025-03-12 16h48.35.183163 +0700,
1,44,1,word/wordth0441.png,image/True/img44.png,159,159,0,z,0.6653026000003592,None,0,159,159,159,557.1333054000006,,,,,,,558.6192652999998,558.1205728999994,558.1246059000005,558.1246059000005,558.6192652999998,558.6192652999998,558.6126136999992,559.7166748,559.7166748,559.7166748,z,0.6653026000003592,None,,,,,,,,PT_th,001,2025-03-12_16h48.25.189,MainFlow,2024.2.4,144.4055832984424,2025-03-12 16h48.35.183163 +0700,
1,10,1,word/wordth0101.png,image/True/img10.png,160,160,0,z,0.5350947999995697,None,0,160,160,160,560.3897235999993,,,,,,,561.8756534000004,561.3765719000003,561.3807357999995,561.3807357999995,561.8756534000004,561.8756534000004,561.8689768000004,562.9750311000007,562.9750311000007,562.9750311000007,z,0.5350947999995697,None,,,,,,,,PT_th,001,2025-03-12_16h48.25.189,MainFlow,2024.2.4,144.4055832984424,2025-03-12 16h48.35.183163 +0700,
1,31,1,word/wordth0311.png,image/True/img31.png,161,161,0,z,0.5038964000013948,None,0,161,161,161,563.5228023,,,,,,,565.0093257000008,564.5104773000003,564.5146399999994,564.5146399999994,565.0093257000008,565.0093257000008,565.0026837000005,566.1050016000008,566.1050016000008,566.1050016000008,z,0.5038964000013948,None,,,,,,,,PT_th,001,2025-03-12_16h48.25.189,MainFlow,2024.2.4,144.4055832984424,2025-03-12 16h48.35.183163 +0700,
1,14,0,word/wordth0141.png,image/False/imgf14.png,162,162,0,x,0.7756090999992011,None,0,162,162,162,566.6197028999995,,,,,,,568.1057361000003,567.6071236999996,567.6109729,567.6109729,568.1057361000003,568.1057361000003,568.0994329000005,569.2319095999992,569.2319095999992,569.2319095999992,x,0.7756090999992011,None,,,,,,,,PT_th,001,2025-03-12_16h48.25.189,MainFlow,2024.2.4,144.4055832984424,2025-03-12 16h48.35.183163 +0700,
1,15,0,word/wordth0151.png,image/False/imgf15.png,163,163,0,x,0.6220293000005768,None,0,163,163,163,570.0208958999992,,,,,,,571.5068446000005,571.0081446000004,571.0121345000007,571.0121345000007,571.5068446000005,571.5068446000005,571.5001677,572.6093141000001,572.6093141000001,572.6093141000001,x,0.6220293000005768,None,,,,,,,,PT_th,001,2025-03-12_16h48.25.189,MainFlow,2024.2.4,144.4055832984424,2025-03-12 16h48.35.183163 +0700,
1,51,1,word/wordth0511.png,image/True/img51.png,164,164,0,z,0.8662079000005178,None,0,164,164,164,573.2402277000001,,,,,,,574.7261662000001,574.2272945000004,574.2312710000006,574.2312710000006,574.7261662000001,574.7261662000001,574.7195463999997,575.8445037999991,575.8445037999991,575.8445037999991,z,0.8662079000005178,None,,,,,,,,PT_th,001,2025-03-12_16h48.25.189,MainFlow,2024.2.4,144.4055832984424,2025-03-12 16h48.35.183163 +0700,
1,82,1,word/wordth0821.png,image/True/img82.png,165,165,0,z,0.5375430999993114,None,0,165,165,165,576.7198826000003,,,,,,,578.2057525,577.7069432999997,577.7110291000008,577.7110291000008,578.2057525,578.2057525,578.1990392999996,579.3121013,579.3121013,579.3121013,z,0.5375430999993114,None,,,,,,,,PT_th,001,2025-03-12_16h48.25.189,MainFlow,2024.2.4,144.4055832984424,2025-03-12 16h48.35.183163 +0700,
1,27,0,word/wordth0271.png,image/False/imgf27.png,166,166,0,x,0.8105396999999357,None,0,166,166,166,579.8619536000006,,,,,,,581.3478697999999,580.8492580000002,580.8534741000003,580.8534741000003,581.3478697999999,581.3478697999999,581.3411782999992,582.4470928999999,582.4470928999999,582.4470928999999,x,0.8105396999999357,None,,,,,,,,PT_th,001,2025-03-12_16h48.25.189,MainFlow,2024.2.4,144.4055832984424,2025-03-12 16h48.35.183163 +0700,
1,78,0,word/wordth0781.png,image/False/imgf78.png,167,167,0,x,0.9259380000003148,None,0,167,167,167,583.2661788000005,,,,,,,584.7521218000002,584.2531025999997,584.2568883999993,584.2568883999993,584.7521218000002,584.7521218000002,584.7454440000001,585.8404802000005,585.8404802000005,585.8404802000005,x,0.9259380000003148,None,,,,,,,,PT_th,001,2025-03-12_16h48.25.189,MainFlow,2024.2.4,144.4055832984424,2025-03-12 16h48.35.183163 +0700,
1,89,1,word/wordth0891.png,image/True/img89.png,168,168,0,z,0.5121798000000126,None,0,168,168,168,586.7779432000007,,,,,,,588.2638294000008,587.7653996000008,587.7696321999993,587.7696321999993,588.2638294000008,588.2638294000008,588.2571337000008,589.3541079999995,589.3541079999995,589.3541079999995,z,0.5121798000000126,None,,,,,,,,PT_th,001,2025-03-12_16h48.25.189,MainFlow,2024.2.4,144.4055832984424,2025-03-12 16h48.35.183163 +0700,
1,76,1,word/wordth0761.png,image/True/img76.png,169,169,0,z,1.0893041999988782,None,0,169,169,169,589.8749618000002,,,,,,,591.3609515999997,590.8620465999993,590.8663422999998,590.8663422999998,591.3609515999997,591.3609515999997,591.3541893999991,592.4594331999997,592.4594331999997,592.4594331999997,z,1.0893041999988782,None,,,,,,,,PT_th,001,2025-03-12_16h48.25.189,MainFlow,2024.2.4,144.4055832984424,2025-03-12 16h48.35.183163 +0700,
1,17,0,word/wordth0171.png,image/False/imgf17.png,170,170,0,x,1.4353394999998272,None,0,170,170,170,593.5560676999994,,,,,,,595.0420101,594.5430961999991,594.5471084000001,594.5471084000001,595.0420101,595.0420101,595.0353716999998,596.1469321999994,596.1469321999994,596.1469321999994,x,1.4353394999998272,None,,,,,,,,PT_th,001,2025-03-12_16h48.25.189,MainFlow,2024.2.4,144.4055832984424,2025-03-12 16h48.35.183163 +0700,
1,95,1,word/wordth0951.png,image/True/img95.png,171,171,0,z,0.5832746000014595,None,0,171,171,171,597.5955159000005,,,,,,,599.0814279999995,598.5825342999997,598.5863307,598.5863307,599.0814279999995,599.0814279999995,599.0747640999998,600.1930394999999,600.1930394999999,600.1930394999999,z,0.5832746000014595,None,,,,,,,,PT_th,001,2025-03-12_16h48.25.189,MainFlow,2024.2.4,144.4055832984424,2025-03-12 16h48.35.183163 +0700,
1,61,0,word/wordth0611.png,image/False/imgf61.png,172,172,0,x,0.5835599999991246,None,0,172,172,172,600.7897677000001,,,,,,,602.2757664000001,601.7774348000003,601.7813767999996,601.7813767999996,602.2757664000001,602.2757664000001,602.2690877999994,603.3820180000002,603.3820180000002,603.3820180000002,x,0.5835599999991246,None,,,,,,,,PT_th,001,2025-03-12_16h48.25.189,MainFlow,2024.2.4,144.4055832984424,2025-03-12 16h48.35.183163 +0700,
1,82,1,word/wordth0821.png,image/True/img82.png,173,173,0,z,0.3992252999996708,None,0,173,173,173,603.9737621000004,,,,,,,605.4597231999996,604.9606755000004,604.9644948000005,604.9644948000005,605.4597231999996,605.4597231999996,605.4529929,606.5370280999996,606.5370280999996,606.5370280999996,z,0.3992252999996708,None,,,,,,,,PT_th,001,2025-03-12_16h48.25.189,MainFlow,2024.2.4,144.4055832984424,2025-03-12 16h48.35.183163 +0700,
1,14,1,word/wordth0141.png,image/True/img14.png,174,174,0,z,0.5176884000011341,None,0,174,174,174,606.9466831999998,,,,,,,608.4325408999994,607.9337071999998,607.9377495999997,607.9377495999997,608.4325408999994,608.4325408999994,608.4258604999995,609.5310728999993,609.5310728999993,609.5310728999993,z,0.5176884000011341,None,,,,,,,,PT_th,001,2025-03-12_16h48.25.189,MainFlow,2024.2.4,144.4055832984424,2025-03-12 16h48.35.183163 +0700,
1,38,0,word/wordth0381.png,image/False/imgf38.png,175,175,0,x,1.6421712000010302,None,0,175,175,175,610.0584022999992,,,,,,,611.5443364000002,611.0461857999999,611.0504022000005,611.0504022000005,611.5443364000002,611.5443364000002,611.5377614000008,612.6544388000002,612.6544388000002,612.6544388000002,x,1.6421712000010302,None,,,,,,,,PT_th,001,2025-03-12_16h48.25.189,MainFlow,2024.2.4,144.4055832984424,2025-03-12 16h48.35.183163 +0700,
1,17,0,word/wordth0171.png,image/False/imgf17.png,176,176,0,x,0.6166871999994328,None,0,176,176,176,614.3066049999998,,,,,,,615.7925579999992,615.2932218000005,615.2970972000003,615.2970972000003,615.7925579999992,615.7925579999992,615.7858319999996,616.8937879000005,616.8937879000005,616.8937879000005,x,0.6166871999994328,None,,,,,,,,PT_th,001,2025-03-12_16h48.25.189,MainFlow,2024.2.4,144.4055832984424,2025-03-12 16h48.35.183163 +0700,
1,42,0,word/wordth0421.png,image/False/imgf42.png,177,177,0,x,1.0148112000006222,None,0,177,177,177,617.5186341999997,,,,,,,619.0046173999999,618.5056669000005,618.5097485999995,618.5097485999995,619.0046173999999,619.0046173999999,618.9979521999994,620.1049039000009,620.1049039000009,620.1049039000009,x,1.0148112000006222,None,,,,,,,,PT_th,001,2025-03-12_16h48.25.189,MainFlow,2024.2.4,144.4055832984424,2025-03-12 16h48.35.183163 +0700,
1,24,1,word/wordth0241.png,image/True/img24.png,178,178,0,x,0.8135907000014413,None,0,178,178,178,621.1324320999993,,,,,,,622.6183500999996,622.1191963000001,622.1230629000001,622.1230629000001,622.6183500999996,622.6183500999996,622.6116798999992,623.6850866000004,623.6850866000004,623.6850866000004,x,0.8135907000014413,None,,,,,,,,PT_th,001,2025-03-12_16h48.25.189,MainFlow,2024.2.4,144.4055832984424,2025-03-12 16h48.35.183163 +0700,
1,51,1,word/wordth0511.png,image/True/img51.png,179,179,0,z,0.5115673999989667,None,0,179,179,179,624.5119457000001,,,,,,,625.9978733000007,625.4985355999997,625.5024907000006,625.5024907000006,625.9978733000007,625.9978733000007,625.9912165000005,627.0905731000003,627.0905731000003,627.0905731000003,z,0.5115673999989667,None,,,,,,,,PT_th,001,2025-03-12_16h48.25.189,MainFlow,2024.2.4,144.4055832984424,2025-03-12 16h48.35.183163 +0700,
1,24,0,word/wordth0241.png,image/False/imgf24.png,180,180,0,x,0.49362199999995937,None,0,180,180,180,627.6150873999995,,,,,,,629.1010363999994,628.6016122000001,628.6055056999994,628.6055056999994,629.1010363999994,629.1010363999994,629.0944163999993,630.1869848000006,630.1869848000006,630.1869848000006,x,0.49362199999995937,None,,,,,,,,PT_th,001,2025-03-12_16h48.25.189,MainFlow,2024.2.4,144.4055832984424,2025-03-12 16h48.35.183163 +0700,
1,23,0,word/wordth0231.png,image/False/imgf23.png,181,181,0,x,1.074767600000996,None,0,181,181,181,630.6940543000001,,,,,,,632.1805562000009,631.6814943999998,631.6853783000006,631.6853783000006,632.1805562000009,632.1805562000009,632.1738872000005,633.2943715000001,633.2943715000001,633.2943715000001,x,1.074767600000996,None,,,,,,,,PT_th,001,2025-03-12_16h48.25.189,MainFlow,2024.2.4,144.4055832984424,2025-03-12 16h48.35.183163 +0700,
1,6,1,word/wordth0061.png,image/True/img06.png,182,182,0,z,0.5469603000001371,None,0,182,182,182,634.3760127000005,,,,,,,635.8619280999992,635.3624043,635.3662884999994,635.3662884999994,635.8619280999992,635.8619280999992,635.8552240999998,636.9411032000007,636.9411032000007,636.9411032000007,z,0.5469603000001371,None,,,,,,,,PT_th,001,2025-03-12_16h48.25.189,MainFlow,2024.2.4,144.4055832984424,2025-03-12 16h48.35.183163 +0700,
1,93,1,word/wordth0931.png,image/True/img93.png,183,183,0,z,0.4531155000004219,None,0,183,183,183,637.4968864000002,,,,,,,638.9828531000003,638.4837021999992,638.4879519000006,638.4879519000006,638.9828531000003,638.9828531000003,638.9761887999994,640.0739868000001,640.0739868000001,640.0739868000001,z,0.4531155000004219,None,,,,,,,,PT_th,001,2025-03-12_16h48.25.189,MainFlow,2024.2.4,144.4055832984424,2025-03-12 16h48.35.183163 +0700,
1,38,0,word/wordth0381.png,image/False/imgf38.png,184,184,0,x,4.329632800001491,None,0,184,184,184,640.5388956000006,,,,,,,642.0253083999996,641.5264222999995,641.5306118000008,641.5306118000008,642.0253083999996,642.0253083999996,642.0186474000002,643.1447164000001,643.1447164000001,643.1447164000001,x,4.329632800001491,None,,,,,,,,PT_th,001,2025-03-12_16h48.25.189,MainFlow,2024.2.4,144.4055832984424,2025-03-12 16h48.35.183163 +0700,
1,57,1,word/wordth0571.png,image/True/img57.png,185,185,0,z,0.424076100000093,None,0,185,185,185,647.4840485000004,,,,,,,648.9699357999998,648.4705823000004,648.4744544999994,648.4744544999994,648.9699357999998,648.9699357999998,648.9632755999992,650.0642613,650.0642613,650.0642613,z,0.424076100000093,None,,,,,,,,PT_th,001,2025-03-12_16h48.25.189,MainFlow,2024.2.4,144.4055832984424,2025-03-12 16h48.35.183163 +0700,
1,40,1,word/wordth0401.png,image/True/img40.png,186,186,0,z,0.5185574999995879,None,0,186,186,186,650.4974827000005,,,,,,,651.9833670999997,651.4840676000003,651.4879330999993,651.4879330999993,651.9833670999997,651.9833670999997,651.9767252999991,653.1040585999999,653.1040585999999,653.1040585999999,z,0.5185574999995879,None,,,,,,,,PT_th,001,2025-03-12_16h48.25.189,MainFlow,2024.2.4,144.4055832984424,2025-03-12 16h48.35.183163 +0700,
1,50,0,word/wordth0501.png,image/False/imgf50.png,187,187,0,x,0.6501370000005409,None,0,187,187,187,653.6309005999992,,,,,,,655.1173775000007,654.6181514,654.6222529000006,654.6222529000006,655.1173775000007,655.1173775000007,655.1108349999995,656.2073550000005,656.2073550000005,656.2073550000005,x,0.6501370000005409,None,,,,,,,,PT_th,001,2025-03-12_16h48.25.189,MainFlow,2024.2.4,144.4055832984424,2025-03-12 16h48.35.183163 +0700,
1,66,0,word/wordth0661.png,image/False/imgf66.png,188,188,0,x,0.641305299999658,None,0,188,188,188,656.8669704999993,,,,,,,658.3528404000008,657.8542493000004,657.8592577,657.8592577,658.3528404000008,658.3528404000008,658.3463052999996,659.4842762999997,659.4842762999997,659.4842762999997,x,0.641305299999658,None,,,,,,,,PT_th,001,2025-03-12_16h48.25.189,MainFlow,2024.2.4,144.4055832984424,2025-03-12 16h48.35.183163 +0700,
1,44,0,word/wordth0441.png,image/False/imgf44.png,189,189,0,x,0.5256246999997529,None,0,189,189,189,660.1361307999996,,,,,,,661.6221284000003,661.1241305999993,661.1286344,661.1286344,661.6221284000003,661.6221284000003,661.6154760999998,662.7387980000003,662.7387980000003,662.7387980000003,x,0.5256246999997529,None,,,,,,,,PT_th,001,2025-03-12_16h48.25.189,MainFlow,2024.2.4,144.4055832984424,2025-03-12 16h48.35.183163 +0700,
1,75,0,word/wordth0751.png,image/False/imgf75.png,190,190,0,x,0.6102515000002313,None,0,190,190,190,663.2763563000008,,,,,,,664.7628258000004,664.2642307999995,664.2685218000006,664.2685218000006,664.7628258000004,664.7628258000004,664.7561908999996,665.8724841999992,665.8724841999992,665.8724841999992,x,0.6102515000002313,None,,,,,,,,PT_th,001,2025-03-12_16h48.25.189,MainFlow,2024.2.4,144.4055832984424,2025-03-12 16h48.35.183163 +0700,
1,31,0,word/wordth0311.png,image/False/imgf31.png,191,191,0,x,0.5932226999993873,None,0,191,191,191,666.4894826,,,,,,,667.9771805,667.4789335999994,667.4838039000006,667.4838039000006,667.9771805,667.9771805,667.9706573999993,669.0987528999995,669.0987528999995,669.0987528999995,x,0.5932226999993873,None,,,,,,,,PT_th,001,2025-03-12_16h48.25.189,MainFlow,2024.2.4,144.4055832984424,2025-03-12 16h48.35.183163 +0700,
1,87,1,word/wordth0871.png,image/True/img87.png,192,192,0,z,0.517324300000837,None,0,192,192,192,669.7022436000007,,,,,,,671.1892712000008,670.6904716000008,670.6956964000001,670.6956964000001,671.1892712000008,671.1892712000008,671.1825583000009,672.3038458999999,672.3038458999999,672.3038458999999,z,0.517324300000837,None,,,,,,,,PT_th,001,2025-03-12_16h48.25.189,MainFlow,2024.2.4,144.4055832984424,2025-03-12 16h48.35.183163 +0700,
1,33,1,word/wordth0331.png,image/True/img33.png,193,193,0,z,0.4509832000003371,None,0,193,193,193,672.8294564999997,,,,,,,674.3163777000009,673.8186566000004,673.8228902999999,673.8228902999999,674.3163777000009,674.3163777000009,674.3102104999998,675.4339541000008,675.4339541000008,675.4339541000008,z,0.4509832000003371,None,,,,,,,,PT_th,001,2025-03-12_16h48.25.189,MainFlow,2024.2.4,144.4055832984424,2025-03-12 16h48.35.183163 +0700,
1,70,0,word/wordth0701.png,image/False/imgf70.png,194,194,0,x,0.533527800000229,None,0,194,194,194,675.8943947000007,,,,,,,677.3808589,676.8826217000005,676.8870442000007,676.8870442000007,677.3808589,677.3808589,677.3742328000008,678.4746708999992,678.4746708999992,678.4746708999992,x,0.533527800000229,None,,,,,,,,PT_th,001,2025-03-12_16h48.25.189,MainFlow,2024.2.4,144.4055832984424,2025-03-12 16h48.35.183163 +0700,
1,27,1,word/wordth0271.png,image/True/img27.png,195,195,0,x,0.6211211000008916,None,0,195,195,195,679.0190731999992,,,,,,,680.5050542999998,680.0063203000009,680.0103208,680.0103208,680.5050542999998,680.5050542999998,680.4983964000003,681.5902736000007,681.5902736000007,681.5902736000007,x,0.6211211000008916,None,,,,,,,,PT_th,001,2025-03-12_16h48.25.189,MainFlow,2024.2.4,144.4055832984424,2025-03-12 16h48.35.183163 +0700,
1,88,1,word/wordth0881.png,image/True/img88.png,196,196,0,z,2.8788657000004605,None,0,196,196,196,682.2231924999996,,,,,,,683.7091414000006,683.2101151999996,683.2138895000007,683.2138895000007,683.7091414000006,683.7091414000006,683.7024132000006,684.8107273999995,684.8107273999995,684.8107273999995,z,2.8788657000004605,None,,,,,,,,PT_th,001,2025-03-12_16h48.25.189,MainFlow,2024.2.4,144.4055832984424,2025-03-12 16h48.35.183163 +0700,
1,87,0,word/wordth0871.png,image/False/imgf87.png,197,197,0,x,0.5810781999989558,None,0,197,197,197,687.6989355999995,,,,,,,689.1854776,688.6863166999992,688.6903070999997,688.6903070999997,689.1854776,689.1854776,689.1787428000007,690.2678541000005,690.2678541000005,690.2678541000005,x,0.5810781999989558,None,,,,,,,,PT_th,001,2025-03-12_16h48.25.189,MainFlow,2024.2.4,144.4055832984424,2025-03-12 16h48.35.183163 +0700,
1,11,1,word/wordth0111.png,image/True/img11.png,198,198,0,z,0.33330779999960214,None,0,198,198,198,690.8609754999998,,,,,,,692.3474924999991,691.8485032000008,691.8524374999997,691.8524374999997,692.3474924999991,692.3474924999991,692.3407824999995,693.4539449999993,693.4539449999993,693.4539449999993,z,0.33330779999960214,None,,,,,,,,PT_th,001,2025-03-12_16h48.25.189,MainFlow,2024.2.4,144.4055832984424,2025-03-12 16h48.35.183163 +0700,
1,61,0,word/wordth0611.png,image/False/imgf61.png,199,199,0,x,0.5584256000001915,None,0,199,199,199,693.7952898999993,,,,,,,695.2812310999998,694.7823662999999,694.7863959999995,694.7863959999995,695.2812310999998,695.2812310999998,695.2745233999995,696.3785191000006,696.3785191000006,696.3785191000006,x,0.5584256000001915,None,,,,,,,,PT_th,001,2025-03-12_16h48.25.189,MainFlow,2024.2.4,144.4055832984424,2025-03-12 16h48.35.183163 +0700,
1,15,1,word/wordth0151.png,image/True/img15.png,200,200,0,z,0.7201779999995779,None,0,200,200,200,696.9475239000003,,,,,,,698.4333920000008,697.9341383999999,697.9379635999994,697.9379635999994,698.4333920000008,698.4333920000008,698.4268252999991,699.5356986999996,699.5356986999996,699.5356986999996,z,0.7201779999995779,None,,,,,,,,PT_th,001,2025-03-12_16h48.25.189,MainFlow,2024.2.4,144.4055832984424,2025-03-12 16h48.35.183163 +0700,
1,16,0,word/wordth0161.png,image/False/imgf16.png,201,201,0,x,0.6419846000007965,None,0,201,201,201,700.2647316000002,,,,,,,701.7505674999993,701.2514293000004,701.2552338999994,701.2552338999994,701.7505674999993,701.7505674999993,701.7438683,702.8469673,702.8469673,702.8469673,x,0.6419846000007965,None,,,,,,,,PT_th,001,2025-03-12_16h48.25.189,MainFlow,2024.2.4,144.4055832984424,2025-03-12 16h48.35.183163 +0700,
1,63,0,word/wordth0631.png,image/False/imgf63.png,202,202,0,x,1.1694973000012396,None,0,202,202,202,703.5000404000002,,,,,,,704.9859716999999,704.4868048999997,704.4909222000006,704.4909222000006,704.9859716999999,704.9859716999999,704.9798654999995,706.0830955000001,706.0830955000001,706.0830955000001,x,1.1694973000012396,None,,,,,,,,PT_th,001,2025-03-12_16h48.25.189,MainFlow,2024.2.4,144.4055832984424,2025-03-12 16h48.35.183163 +0700,
1,28,1,word/wordth0281.png,image/True/img28.png,203,203,0,z,0.5436729000011837,None,0,203,203,203,707.2639008000006,,,,,,,708.7498207999997,708.2506534000004,708.2544543000004,708.2544543000004,708.7498207999997,708.7498207999997,708.7431694999996,709.8534063999996,709.8534063999996,709.8534063999996,z,0.5436729000011837,None,,,,,,,,PT_th,001,2025-03-12_16h48.25.189,MainFlow,2024.2.4,144.4055832984424,2025-03-12 16h48.35.183163 +0700,
1,89,1,word/wordth0891.png,image/True/img89.png,204,204,0,z,0.4974428000004991,None,0,204,204,204,710.4070085999992,,,,,,,711.8929774000007,711.3937348,711.3977529999993,711.3977529999993,711.8929774000007,711.8929774000007,711.8862649000002,712.9632074000001,712.9632074000001,712.9632074000001,z,0.4974428000004991,None,,,,,,,,PT_th,001,2025-03-12_16h48.25.189,MainFlow,2024.2.4,144.4055832984424,2025-03-12 16h48.35.183163 +0700,
1,76,0,word/wordth0761.png,image/False/imgf76.png,205,205,0,x,3.1635162999991735,None,0,205,205,205,713.467858,,,,,,,714.9559203999997,714.4546389000006,714.4585399999996,714.4585399999996,714.9559203999997,714.9559203999997,714.9476314999993,716.0551323,716.0551323,716.0551323,x,3.1635162999991735,None,,,,,,,,PT_th,001,2025-03-12_16h48.25.189,MainFlow,2024.2.4,144.4055832984424,2025-03-12 16h48.35.183163 +0700,
1,51,0,word/wordth0511.png,image/False/imgf51.png,206,206,0,x,0.5975594999999885,None,0,206,206,206,719.2281490999994,,,,,,,720.7146016999995,720.2150679999995,720.2190171999991,720.2190171999991,720.7146016999995,720.7146016999995,720.7079052000008,721.7959890000002,721.7959890000002,721.7959890000002,x,0.5975594999999885,None,,,,,,,,PT_th,001,2025-03-12_16h48.25.189,MainFlow,2024.2.4,144.4055832984424,2025-03-12 16h48.35.183163 +0700,
1,26,0,word/wordth0261.png,image/False/imgf26.png,207,207,0,z,0.36841629999980796,None,0,207,207,207,722.4042313999998,,,,,,,723.8900114000007,723.3905328000001,723.3943662000001,723.3943662000001,723.8900114000007,723.8900114000007,723.8833202999995,724.9933390000006,724.9933390000006,724.9933390000006,z,0.36841629999980796,None,,,,,,,,PT_th,001,2025-03-12_16h48.25.189,MainFlow,2024.2.4,144.4055832984424,2025-03-12 16h48.35.183163 +0700,
1,16,1,word/wordth0161.png,image/True/img16.png,208,208,0,z,0.6584689000010258,None,0,208,208,208,725.3737650000003,,,,,,,726.8596581000002,726.3603098000003,726.3641501000002,726.3641501000002,726.8596581000002,726.8596581000002,726.8530778000004,727.9668404999993,727.9668404999993,727.9668404999993,z,0.6584689000010258,None,,,,,,,,PT_th,001,2025-03-12_16h48.25.189,MainFlow,2024.2.4,144.4055832984424,2025-03-12 16h48.35.183163 +0700,
1,64,1,word/wordth0641.png,image/True/img64.png,209,209,0,z,0.5651708999994298,None,0,209,209,209,728.6340165999991,,,,,,,730.1199555000003,729.6205902000002,729.6245846000002,729.6245846000002,730.1199555000003,730.1199555000003,730.1134108999995,731.1891290000003,731.1891290000003,731.1891290000003,z,0.5651708999994298,None,,,,,,,,PT_th,001,2025-03-12_16h48.25.189,MainFlow,2024.2.4,144.4055832984424,2025-03-12 16h48.35.183163 +0700,
1,7,1,word/wordth0071.png,image/True/img07.png,210,210,0,z,0.46923160000005737,None,0,210,210,210,731.7640453000004,,,,,,,733.2499540000008,732.7512150999992,732.7552059999998,732.7552059999998,733.2499540000008,733.2499540000008,733.2439431000003,734.3403214999998,734.3403214999998,734.3403214999998,z,0.46923160000005737,None,,,,,,,,PT_th,001,2025-03-12_16h48.25.189,MainFlow,2024.2.4,144.4055832984424,2025-03-12 16h48.35.183163 +0700,
1,10,0,word/wordth0101.png,image/False/imgf10.png,211,211,0,x,0.9197172000003775,None,0,211,211,211,734.8195187000001,,,,,,,736.3055043000004,735.8068512000009,735.8108321,735.8108321,736.3055043000004,736.3055043000004,736.2987532999996,737.3929353999993,737.3929353999993,737.3929353999993,x,0.9197172000003775,None,,,,,,,,PT_th,001,2025-03-12_16h48.25.189,MainFlow,2024.2.4,144.4055832984424,2025-03-12 16h48.35.183163 +0700,
1,22,1,word/wordth0221.png,image/True/img22.png,212,212,0,z,0.9845173000012437,None,0,212,212,212,738.3232680000001,,,,,,,739.8092123000006,739.3100926999996,739.3139807999996,739.3139807999996,739.8092123000006,739.8092123000006,739.8025149000005,740.9166482,740.9166482,740.9166482,z,0.9845173000012437,None,,,,,,,,PT_th,001,2025-03-12_16h48.25.189,MainFlow,2024.2.4,144.4055832984424,2025-03-12 16h48.35.183163 +0700,
1,40,1,word/wordth0401.png,image/True/img40.png,213,213,0,z,0.3976591999999073,None,0,213,213,213,741.9100605999993,,,,,,,743.3960012999996,742.8966101000005,742.9005390999992,742.9005390999992,743.3960012999996,743.3960012999996,743.3892723000008,744.5075321999993,744.5075321999993,744.5075321999993,z,0.3976591999999073,None,,,,,,,,PT_th,001,2025-03-12_16h48.25.189,MainFlow,2024.2.4,144.4055832984424,2025-03-12 16h48.35.183163 +0700,
1,57,0,word/wordth0571.png,image/False/imgf57.png,214,214,0,x,0.7036188999991282,None,0,214,214,214,744.9168332000008,,,,,,,746.4028390000003,745.9035540999994,745.9074932000003,745.9074932000003,746.4028390000003,746.4028390000003,746.3961149000006,747.4954010000001,747.4954010000001,747.4954010000001,x,0.7036188999991282,None,,,,,,,,PT_th,001,2025-03-12_16h48.25.189,MainFlow,2024.2.4,144.4055832984424,2025-03-12 16h48.35.183163 +0700,
1,50,1,word/wordth0501.png,image/True/img50.png,215,215,0,z,0.38920499999949243,None,0,215,215,215,748.2073801000006,,,,,,,749.6934454000002,749.1940254000001,749.1978751000006,749.1978751000006,749.6934454000002,749.6934454000002,749.6867731999992,750.7840844000002,750.7840844000002,750.7840844000002,z,0.38920499999949243,None,,,,,,,,PT_th,001,2025-03-12_16h48.25.189,MainFlow,2024.2.4,144.4055832984424,2025-03-12 16h48.35.183163 +0700,
1,64,0,word/wordth0641.png,image/False/imgf64.png,216,216,0,x,0.40478599999914877,None,0,216,216,216,751.1868993000007,,,,,,,752.6728767999994,752.1736763999997,752.1774839000009,752.1774839000009,752.6728767999994,752.6728767999994,752.6661855999992,753.7382533,753.7382533,753.7382533,x,0.40478599999914877,None,,,,,,,,PT_th,001,2025-03-12_16h48.25.189,MainFlow,2024.2.4,144.4055832984424,2025-03-12 16h48.35.183163 +0700,
1,42,1,word/wordth0421.png,image/True/img42.png,217,217,0,z,0.44155480000154057,None,0,217,217,217,754.1547532000004,,,,,,,755.6412906999994,755.1422354999995,755.1462933999992,755.1462933999992,755.6412906999994,755.6412906999994,755.6345703000006,756.7307208000002,756.7307208000002,756.7307208000002,z,0.44155480000154057,None,,,,,,,,PT_th,001,2025-03-12_16h48.25.189,MainFlow,2024.2.4,144.4055832984424,2025-03-12 16h48.35.183163 +0700,
1,56,0,word/wordth0561.png,image/False/imgf56.png,218,218,0,x,0.5122382999998081,None,0,218,218,218,757.1821954999996,,,,,,,758.6681671999995,758.1691869999995,758.1729952999995,758.1729952999995,758.6681671999995,758.6681671999995,758.6614606000003,759.7786255999999,759.7786255999999,759.7786255999999,x,0.5122382999998081,None,,,,,,,,PT_th,001,2025-03-12_16h48.25.189,MainFlow,2024.2.4,144.4055832984424,2025-03-12 16h48.35.183163 +0700,
1,22,1,word/wordth0221.png,image/True/img22.png,219,219,0,z,0.6873187999990478,None,0,219,219,219,760.2985888999992,,,,,,,761.7850670999997,761.2857812999991,761.2899058999992,761.2899058999992,761.7850670999997,761.7850670999997,761.7783689999997,762.8936429999994,762.8936429999994,762.8936429999994,z,0.6873187999990478,None,,,,,,,,PT_th,001,2025-03-12_16h48.25.189,MainFlow,2024.2.4,144.4055832984424,2025-03-12 16h48.35.183163 +0700,
1,82,0,word/wordth0821.png,image/False/imgf82.png,220,220,0,x,0.488777200000186,None,0,220,220,220,763.5944509000001,,,,,,,765.0803722,764.5809812000007,764.5849221999997,764.5849221999997,765.0803722,765.0803722,765.0737692999992,766.1700614000001,766.1700614000001,766.1700614000001,x,0.488777200000186,None,,,,,,,,PT_th,001,2025-03-12_16h48.25.189,MainFlow,2024.2.4,144.4055832984424,2025-03-12 16h48.35.183163 +0700,
1,54,1,word/wordth0541.png,image/True/img54.png,221,221,0,z,0.6058720999990328,None,0,221,221,221,766.6696367000004,,,,,,,768.1555043000008,767.6564553999997,767.6605493000006,767.6605493000006,768.1555043000008,768.1555043000008,768.1488862999995,769.2578391000006,769.2578391000006,769.2578391000006,z,0.6058720999990328,None,,,,,,,,PT_th,001,2025-03-12_16h48.25.189,MainFlow,2024.2.4,144.4055832984424,2025-03-12 16h48.35.183163 +0700,
1,55,0,word/wordth0551.png,image/False/imgf55.png,222,222,0,z,0.5095910999989428,None,0,222,222,222,769.8754430999998,,,,,,,771.3614472000008,770.8621812000001,770.8660719,770.8660719,771.3614472000008,771.3614472000008,771.3547481000005,772.4468109000009,772.4468109000009,772.4468109000009,z,0.5095910999989428,None,,,,,,,,PT_th,001,2025-03-12_16h48.25.189,MainFlow,2024.2.4,144.4055832984424,2025-03-12 16h48.35.183163 +0700,
1,48,1,word/wordth0481.png,image/True/img48.png,223,223,0,z,0.6321466999997938,None,0,223,223,223,772.9684027000003,,,,,,,774.4543814000008,773.9551420999996,773.9592028000006,773.9592028000006,774.4543814000008,774.4543814000008,774.4476706999994,775.5487054999994,775.5487054999994,775.5487054999994,z,0.6321466999997938,None,,,,,,,,PT_th,001,2025-03-12_16h48.25.189,MainFlow,2024.2.4,144.4055832984424,2025-03-12 16h48.35.183163 +0700,
1,44,1,word/wordth0441.png,image/True/img44.png,224,224,0,z,0.7287601999996696,None,0,224,224,224,776.1897745999995,,,,,,,777.6757433999992,777.1764485000003,777.1803770999995,777.1803770999995,777.6757433999992,777.6757433999992,777.6689406000005,778.7559216000009,778.7559216000009,778.7559216000009,z,0.7287601999996696,None,,,,,,,,PT_th,001,2025-03-12_16h48.25.189,MainFlow,2024.2.4,144.4055832984424,2025-03-12 16h48.35.183163 +0700,
1,87,0,word/wordth0871.png,image/False/imgf87.png,225,225,0,x,0.6320340000002034,None,0,225,225,225,779.4979120000007,,,,,,,780.9838796000004,780.4847257000001,780.4885895000007,780.4885895000007,780.9838796000004,780.9838796000004,780.9771397999993,782.0662444000009,782.0662444000009,782.0662444000009,x,0.6320340000002034,None,,,,,,,,PT_th,001,2025-03-12_16h48.25.189,MainFlow,2024.2.4,144.4055832984424,2025-03-12 16h48.35.183163 +0700,
