lang,wordid,truestate,worddir,imgdir,thisN,thisTrialN,thisRepN,key_resp.keys,key_resp.rt,key_resp.duration,trials.thisRepN,trials.thisTrialN,trials.thisN,trials.thisIndex,thisRow.t,notes,tutorial.started,tutorial.stopped,key_instruct.keys,key_instruct.rt,key_instruct.duration,plusblank.started,wordshow.started,image.started,plsuer.started,image.stopped,plsuer.stopped,wordshow.stopped,plusblank.stopped,imageword.started,key_resp.started,trials.key_resp.keys,trials.key_resp.rt,trials.key_resp.duration,ending.started,text_3.started,ending_key.started,ending.stopped,ending_key.keys,ending_key.rt,ending_key.duration,participant,session,date,expName,psychopyVersion,frameRate,expStart,
,,,,,,,,,,,,,,,,,0.0026672000531107187,12.130021700053476,space,12.109233299968764,None,,,,,,,,,,,,,,,,,,,,,CS_th,001,2025-03-07_12h36.40.965,MainFlow,2024.2.4,134.62247826376202,2025-03-07 12h36.52.491171 +0700,
1,51,0,word/wordth0511.png,image/False/imgf51.png,0,0,0,x,2.059975599986501,None,0,0,0,0,12.17257499997504,,,,,,,13.626780800055712,13.129150000051595,13.134107600082643,13.134107600082643,13.626780800055712,13.626780800055712,13.620055900071748,14.727350000059232,14.727350000059232,14.727350000059232,x,2.059975599986501,None,,,,,,,,CS_th,001,2025-03-07_12h36.40.965,MainFlow,2024.2.4,134.62247826376202,2025-03-07 12h36.52.491171 +0700,
1,66,1,word/wordth0661.png,image/True/img66.png,1,1,0,z,0.5689848000183702,None,0,1,1,1,16.796602900023572,,,,,,,18.2825258000521,17.78397790004965,17.788256300031208,17.788256300031208,18.2825258000521,18.2825258000521,18.275882499990985,19.390981500037014,19.390981500037014,19.390981500037014,z,0.5689848000183702,None,,,,,,,,CS_th,001,2025-03-07_12h36.40.965,MainFlow,2024.2.4,134.62247826376202,2025-03-07 12h36.52.491171 +0700,
1,60,1,word/wordth0601.png,image/True/img60.png,2,2,0,z,0.4929454999510199,None,0,2,2,2,19.973713800078258,,,,,,,21.459855500026606,20.96186799998395,20.966243600007147,20.966243600007147,21.459855500026606,21.459855500026606,21.453765099984594,22.559903700021096,22.559903700021096,22.559903700021096,z,0.4929454999510199,None,,,,,,,,CS_th,001,2025-03-07_12h36.40.965,MainFlow,2024.2.4,134.62247826376202,2025-03-07 12h36.52.491171 +0700,
1,46,0,word/wordth0461.png,image/False/imgf46.png,3,3,0,x,1.4296151000307873,None,0,3,3,3,23.066681100055575,,,,,,,24.552625100011937,24.054208800080232,24.058492899988778,24.058492899988778,24.552625100011937,24.552625100011937,24.546046299976297,25.675895099993795,25.675895099993795,25.675895099993795,x,1.4296151000307873,None,,,,,,,,CS_th,001,2025-03-07_12h36.40.965,MainFlow,2024.2.4,134.62247826376202,2025-03-07 12h36.52.491171 +0700,
1,24,1,word/wordth0241.png,image/True/img24.png,4,4,0,z,0.43301539996173233,None,0,4,4,4,27.112647000001743,,,,,,,28.59909160004463,28.100395600078627,28.104797000065446,28.104797000065446,28.59909160004463,28.59909160004463,28.592424500035122,29.681139199994504,29.681139199994504,29.681139199994504,z,0.43301539996173233,None,,,,,,,,CS_th,001,2025-03-07_12h36.40.965,MainFlow,2024.2.4,134.62247826376202,2025-03-07 12h36.52.491171 +0700,
1,68,1,word/wordth0681.png,image/True/img68.png,5,5,0,z,0.5031323999864981,None,0,5,5,5,30.122186799999326,,,,,,,31.60891349997837,31.109885100042447,31.1148445000872,31.1148445000872,31.60891349997837,31.60891349997837,31.602227000053972,32.71286870003678,32.71286870003678,32.71286870003678,z,0.5031323999864981,None,,,,,,,,CS_th,001,2025-03-07_12h36.40.965,MainFlow,2024.2.4,134.62247826376202,2025-03-07 12h36.52.491171 +0700,
1,22,0,word/wordth0221.png,image/False/imgf22.png,6,6,0,x,0.6531496000243351,None,0,6,6,6,33.22427210002206,,,,,,,34.71025730005931,34.21121029998176,34.2155700000003,34.2155700000003,34.71025730005931,34.71025730005931,34.70348730008118,35.825098800007254,35.825098800007254,35.825098800007254,x,0.6531496000243351,None,,,,,,,,CS_th,001,2025-03-07_12h36.40.965,MainFlow,2024.2.4,134.62247826376202,2025-03-07 12h36.52.491171 +0700,
1,36,1,word/wordth0361.png,image/True/img36.png,7,7,0,z,0.5460026999935508,None,0,7,7,7,36.48946990002878,,,,,,,37.975489799981005,37.47647950006649,37.48068679997232,37.48068679997232,37.975489799981005,37.975489799981005,37.96873950003646,39.07062200002838,39.07062200002838,39.07062200002838,z,0.5460026999935508,None,,,,,,,,CS_th,001,2025-03-07_12h36.40.965,MainFlow,2024.2.4,134.62247826376202,2025-03-07 12h36.52.491171 +0700,
1,68,0,word/wordth0681.png,image/False/imgf68.png,8,8,0,x,0.9142617000034079,None,0,8,8,8,39.6276028000284,,,,,,,41.11414750001859,40.61540250002872,40.6197564000031,40.6197564000031,41.11414750001859,41.11414750001859,41.10746089997701,42.20563870004844,42.20563870004844,42.20563870004844,x,0.9142617000034079,None,,,,,,,,CS_th,001,2025-03-07_12h36.40.965,MainFlow,2024.2.4,134.62247826376202,2025-03-07 12h36.52.491171 +0700,
1,16,1,word/wordth0161.png,image/True/img16.png,9,9,0,z,1.002538500004448,None,0,9,9,9,43.12824750004802,,,,,,,44.6158900000155,44.11740470002405,44.12197209999431,44.12197209999431,44.6158900000155,44.6158900000155,44.60923070006538,45.75952540000435,45.75952540000435,45.75952540000435,z,1.002538500004448,None,,,,,,,,CS_th,001,2025-03-07_12h36.40.965,MainFlow,2024.2.4,134.62247826376202,2025-03-07 12h36.52.491171 +0700,
1,94,1,word/wordth0941.png,image/True/img94.png,10,10,0,z,0.792676700046286,None,0,10,10,10,46.77230830001645,,,,,,,48.25821550004184,47.760096900048666,47.764449000009336,47.764449000009336,48.25821550004184,48.25821550004184,48.25204609998036,49.352138800080866,49.352138800080866,49.352138800080866,z,0.792676700046286,None,,,,,,,,CS_th,001,2025-03-07_12h36.40.965,MainFlow,2024.2.4,134.62247826376202,2025-03-07 12h36.52.491171 +0700,
1,95,0,word/wordth0951.png,image/False/imgf95.png,11,11,0,x,1.888630999950692,None,0,11,11,11,50.153597600059584,,,,,,,51.63955279998481,51.141347000026144,51.145313500077464,51.145313500077464,51.63955279998481,51.63955279998481,51.63283000001684,52.74357410008088,52.74357410008088,52.74357410008088,x,1.888630999950692,None,,,,,,,,CS_th,001,2025-03-07_12h36.40.965,MainFlow,2024.2.4,134.62247826376202,2025-03-07 12h36.52.491171 +0700,
1,30,0,word/wordth0301.png,image/False/imgf30.png,12,12,0,x,0.9418611000292003,None,0,12,12,12,54.644183200085536,,,,,,,56.13011959998403,55.631487200036645,55.63588890002575,55.63588890002575,56.13011959998403,56.13011959998403,56.12337120005395,57.217414700076915,57.217414700076915,57.217414700076915,x,0.9418611000292003,None,,,,,,,,CS_th,001,2025-03-07_12h36.40.965,MainFlow,2024.2.4,134.62247826376202,2025-03-07 12h36.52.491171 +0700,
1,20,1,word/wordth0201.png,image/True/img20.png,13,13,0,x,0.54582920006942,None,0,13,13,13,58.168100300012156,,,,,,,59.654640300082974,59.15656040003523,59.16068760002963,59.16068760002963,59.654640300082974,59.654640300082974,59.648017800063826,60.757129100034945,60.757129100034945,60.757129100034945,x,0.54582920006942,None,,,,,,,,CS_th,001,2025-03-07_12h36.40.965,MainFlow,2024.2.4,134.62247826376202,2025-03-07 12h36.52.491171 +0700,
1,42,0,word/wordth0421.png,image/False/imgf42.png,14,14,0,x,1.390855500008911,None,0,14,14,14,61.31186570005957,,,,,,,62.79784470004961,62.29966520005837,62.30368440004531,62.30368440004531,62.79784470004961,62.79784470004961,62.79136869998183,63.904162600054406,63.904162600054406,63.904162600054406,x,1.390855500008911,None,,,,,,,,CS_th,001,2025-03-07_12h36.40.965,MainFlow,2024.2.4,134.62247826376202,2025-03-07 12h36.52.491171 +0700,
1,31,1,word/wordth0311.png,image/True/img31.png,15,15,0,z,0.8624277000781149,None,0,15,15,15,65.30747690005228,,,,,,,66.79438500001561,66.29565310000908,66.29998840007465,66.29998840007465,66.79438500001561,66.79438500001561,66.7876157000428,67.88535290001892,67.88535290001892,67.88535290001892,z,0.8624277000781149,None,,,,,,,,CS_th,001,2025-03-07_12h36.40.965,MainFlow,2024.2.4,134.62247826376202,2025-03-07 12h36.52.491171 +0700,
1,55,1,word/wordth0551.png,image/True/img55.png,16,16,0,z,0.5606981000164524,None,0,16,16,16,68.76014680007938,,,,,,,70.24607110000215,69.74745829997119,69.75149809999857,69.75149809999857,70.24607110000215,70.24607110000215,70.2393506000517,71.35030220006593,71.35030220006593,71.35030220006593,z,0.5606981000164524,None,,,,,,,,CS_th,001,2025-03-07_12h36.40.965,MainFlow,2024.2.4,134.62247826376202,2025-03-07 12h36.52.491171 +0700,
1,36,1,word/wordth0361.png,image/True/img36.png,17,17,0,z,0.8693622999126092,None,0,17,17,17,71.92428010003641,,,,,,,73.4098344000522,72.91167070006486,72.91580690001138,72.91580690001138,73.4098344000522,73.4098344000522,73.4049354000017,74.49427969998214,74.49427969998214,74.49427969998214,z,0.8693622999126092,None,,,,,,,,CS_th,001,2025-03-07_12h36.40.965,MainFlow,2024.2.4,134.62247826376202,2025-03-07 12h36.52.491171 +0700,
1,9,1,word/wordth0091.png,image/True/img09.png,18,18,0,z,0.4930919000180438,None,0,18,18,18,75.37107200000901,,,,,,,76.85757110000122,76.35933300002944,76.36343640007544,76.36343640007544,76.85757110000122,76.85757110000122,76.85090080008376,77.92305430001579,77.92305430001579,77.92305430001579,z,0.4930919000180438,None,,,,,,,,CS_th,001,2025-03-07_12h36.40.965,MainFlow,2024.2.4,134.62247826376202,2025-03-07 12h36.52.491171 +0700,
1,64,1,word/wordth0641.png,image/True/img64.png,19,19,0,z,0.6095124999992549,None,0,19,19,19,78.42360400001053,,,,,,,79.90953910001554,79.41060419997666,79.41505040007178,79.41505040007178,79.90953910001554,79.90953910001554,79.90279940003529,80.98530070006382,80.98530070006382,80.98530070006382,z,0.6095124999992549,None,,,,,,,,CS_th,001,2025-03-07_12h36.40.965,MainFlow,2024.2.4,134.62247826376202,2025-03-07 12h36.52.491171 +0700,
1,95,1,word/wordth0951.png,image/True/img95.png,20,20,0,z,1.241645000060089,None,0,20,20,20,81.60305450006854,,,,,,,83.08950320002623,82.59122629999183,82.59528110001702,82.59528110001702,83.08950320002623,83.08950320002623,83.08283009997103,84.20075910002925,84.20075910002925,84.20075910002925,z,1.241645000060089,None,,,,,,,,CS_th,001,2025-03-07_12h36.40.965,MainFlow,2024.2.4,134.62247826376202,2025-03-07 12h36.52.491171 +0700,
1,41,1,word/wordth0411.png,image/True/img41.png,21,21,0,z,0.3941807000664994,None,0,21,21,21,85.4502749000676,,,,,,,86.93620080000255,86.43789669999387,86.44185770000331,86.44185770000331,86.93620080000255,86.93620080000255,86.92952120001428,88.03100329998415,88.03100329998415,88.03100329998415,z,0.3941807000664994,None,,,,,,,,CS_th,001,2025-03-07_12h36.40.965,MainFlow,2024.2.4,134.62247826376202,2025-03-07 12h36.52.491171 +0700,
1,8,1,word/wordth0081.png,image/True/img08.png,22,22,0,z,0.428318899939768,None,0,22,22,22,88.43584809999447,,,,,,,89.9218110999791,89.42305159999523,89.42725670000073,89.42725670000073,89.9218110999791,89.9218110999791,89.91521730006207,90.9946629999904,90.9946629999904,90.9946629999904,z,0.428318899939768,None,,,,,,,,CS_th,001,2025-03-07_12h36.40.965,MainFlow,2024.2.4,134.62247826376202,2025-03-07 12h36.52.491171 +0700,
1,60,1,word/wordth0601.png,image/True/img60.png,23,23,0,z,0.33468319999519736,None,0,23,23,23,91.43450119998306,,,,,,,92.92047640006058,92.42162090004422,92.42595740000252,92.42595740000252,92.92047640006058,92.92047640006058,92.91394760005642,94.00131630001124,94.00131630001124,94.00131630001124,z,0.33468319999519736,None,,,,,,,,CS_th,001,2025-03-07_12h36.40.965,MainFlow,2024.2.4,134.62247826376202,2025-03-07 12h36.52.491171 +0700,
1,48,0,word/wordth0481.png,image/False/imgf48.png,24,24,0,x,0.6356671000830829,None,0,24,24,24,94.34640859998763,,,,,,,95.83226920000743,95.3332183000166,95.33713960007299,95.33713960007299,95.83226920000743,95.83226920000743,95.82563149998896,96.93415670003742,96.93415670003742,96.93415670003742,x,0.6356671000830829,None,,,,,,,,CS_th,001,2025-03-07_12h36.40.965,MainFlow,2024.2.4,134.62247826376202,2025-03-07 12h36.52.491171 +0700,
1,41,0,word/wordth0411.png,image/False/imgf41.png,25,25,0,x,0.8090591999934986,None,0,25,25,25,97.57953550003003,,,,,,,99.06606440001633,98.56656669999938,98.57069419999607,98.57069419999607,99.06606440001633,99.06606440001633,99.0594230000861,100.1331346000079,100.1331346000079,100.1331346000079,x,0.8090591999934986,None,,,,,,,,CS_th,001,2025-03-07_12h36.40.965,MainFlow,2024.2.4,134.62247826376202,2025-03-07 12h36.52.491171 +0700,
1,54,0,word/wordth0541.png,image/False/imgf54.png,26,26,0,x,0.8744552000425756,None,0,26,26,26,100.95101750001777,,,,,,,102.4375841000583,101.9382097000489,101.9422448000405,101.9422448000405,102.4375841000583,102.4375841000583,102.43098519998603,103.5257447999902,103.5257447999902,103.5257447999902,x,0.8744552000425756,None,,,,,,,,CS_th,001,2025-03-07_12h36.40.965,MainFlow,2024.2.4,134.62247826376202,2025-03-07 12h36.52.491171 +0700,
1,54,1,word/wordth0541.png,image/True/img54.png,27,27,0,z,0.43211920000612736,None,0,27,27,27,104.40748100006022,,,,,,,105.89350770006422,105.39430570008699,105.39833200001158,105.39833200001158,105.89350770006422,105.89350770006422,105.88700720004272,106.99558280000929,106.99558280000929,106.99558280000929,z,0.43211920000612736,None,,,,,,,,CS_th,001,2025-03-07_12h36.40.965,MainFlow,2024.2.4,134.62247826376202,2025-03-07 12h36.52.491171 +0700,
1,63,0,word/wordth0631.png,image/False/imgf63.png,28,28,0,x,1.1392509000143036,None,0,28,28,28,107.4394066000823,,,,,,,108.92538690008223,108.42655069998,108.43056450004224,108.43056450004224,108.92538690008223,108.92538690008223,108.91919879999477,110.0235722999787,110.0235722999787,110.0235722999787,x,1.1392509000143036,None,,,,,,,,CS_th,001,2025-03-07_12h36.40.965,MainFlow,2024.2.4,134.62247826376202,2025-03-07 12h36.52.491171 +0700,
1,37,0,word/wordth0371.png,image/False/imgf37.png,29,29,0,x,1.128705499926582,None,0,29,29,29,111.17566660000011,,,,,,,112.6620891999919,112.16314640000928,112.16739710001275,112.16739710001275,112.6620891999919,112.6620891999919,112.65539920004085,113.77437340002507,113.77437340002507,113.77437340002507,x,1.128705499926582,None,,,,,,,,CS_th,001,2025-03-07_12h36.40.965,MainFlow,2024.2.4,134.62247826376202,2025-03-07 12h36.52.491171 +0700,
1,54,0,word/wordth0541.png,image/False/imgf54.png,30,30,0,x,0.735493200016208,None,0,30,30,30,114.91236259997822,,,,,,,116.39928360003978,115.90016349998768,115.90407080005389,115.90407080005389,116.39928360003978,116.39928360003978,116.39254510006867,117.48962420003954,117.48962420003954,117.48962420003954,x,0.735493200016208,None,,,,,,,,CS_th,001,2025-03-07_12h36.40.965,MainFlow,2024.2.4,134.62247826376202,2025-03-07 12h36.52.491171 +0700,
1,48,1,word/wordth0481.png,image/True/img48.png,31,31,0,z,0.5350870999973267,None,0,31,31,31,118.23293040005956,,,,,,,119.71884590003174,119.21966800000519,119.22363170003518,119.22363170003518,119.71884590003174,119.71884590003174,119.71214459999464,120.82078900001943,120.82078900001943,120.82078900001943,z,0.5350870999973267,None,,,,,,,,CS_th,001,2025-03-07_12h36.40.965,MainFlow,2024.2.4,134.62247826376202,2025-03-07 12h36.52.491171 +0700,
1,26,0,word/wordth0261.png,image/False/imgf26.png,32,32,0,x,0.7914947000099346,None,0,32,32,32,121.3689268999733,,,,,,,122.85493280005176,122.35572690004483,122.35971740004607,122.35971740004607,122.85493280005176,122.85493280005176,122.84823690005578,123.95999800006393,123.95999800006393,123.95999800006393,x,0.7914947000099346,None,,,,,,,,CS_th,001,2025-03-07_12h36.40.965,MainFlow,2024.2.4,134.62247826376202,2025-03-07 12h36.52.491171 +0700,
1,59,0,word/wordth0591.png,image/False/imgf59.png,33,33,0,x,1.5277112000621855,None,0,33,33,33,124.76231530006044,,,,,,,126.24834819999523,125.74953360005748,125.75360439997166,125.75360439997166,126.24834819999523,126.24834819999523,126.24161530006677,127.32036020001397,127.32036020001397,127.32036020001397,x,1.5277112000621855,None,,,,,,,,CS_th,001,2025-03-07_12h36.40.965,MainFlow,2024.2.4,134.62247826376202,2025-03-07 12h36.52.491171 +0700,
1,8,1,word/wordth0081.png,image/True/img08.png,34,34,0,z,1.6653406999539584,None,0,34,34,34,128.85823150002398,,,,,,,130.3442447000416,129.8454656000249,129.8496076000156,129.8496076000156,130.3442447000416,130.3442447000416,130.33752230007667,131.42509580007754,131.42509580007754,131.42509580007754,z,1.6653406999539584,None,,,,,,,,CS_th,001,2025-03-07_12h36.40.965,MainFlow,2024.2.4,134.62247826376202,2025-03-07 12h36.52.491171 +0700,
1,66,1,word/wordth0661.png,image/True/img66.png,35,35,0,z,0.8213758000638336,None,0,35,35,35,133.10277350002434,,,,,,,134.58947010000702,134.0901707999874,134.0941174000036,134.0941174000036,134.58947010000702,134.58947010000702,134.5827232999727,135.6828519999981,135.6828519999981,135.6828519999981,z,0.8213758000638336,None,,,,,,,,CS_th,001,2025-03-07_12h36.40.965,MainFlow,2024.2.4,134.62247826376202,2025-03-07 12h36.52.491171 +0700,
1,24,0,word/wordth0241.png,image/False/imgf24.png,36,36,0,x,1.9504432000685483,None,0,36,36,36,136.5121278000297,,,,,,,137.99807470000815,137.49929359997623,137.50355790008325,137.50355790008325,137.99807470000815,137.99807470000815,137.991881199996,139.08473620004952,139.08473620004952,139.08473620004952,x,1.9504432000685483,None,,,,,,,,CS_th,001,2025-03-07_12h36.40.965,MainFlow,2024.2.4,134.62247826376202,2025-03-07 12h36.52.491171 +0700,
1,14,1,word/wordth0141.png,image/True/img14.png,37,37,0,z,1.4482215999159962,None,0,37,37,37,141.04281530005392,,,,,,,142.52861190005206,142.03024130000267,142.0342665000353,142.0342665000353,142.52861190005206,142.52861190005206,142.52195770002436,143.61953620007262,143.61953620007262,143.61953620007262,z,1.4482215999159962,None,,,,,,,,CS_th,001,2025-03-07_12h36.40.965,MainFlow,2024.2.4,134.62247826376202,2025-03-07 12h36.52.491171 +0700,
1,20,0,word/wordth0201.png,image/False/imgf20.png,38,38,0,x,0.9926853000652045,None,0,38,38,38,145.07796879997477,,,,,,,146.56412370002363,146.06530680006836,146.0690397999715,146.0690397999715,146.56412370002363,146.56412370002363,146.5574292000383,147.67689410003368,147.67689410003368,147.67689410003368,x,0.9926853000652045,None,,,,,,,,CS_th,001,2025-03-07_12h36.40.965,MainFlow,2024.2.4,134.62247826376202,2025-03-07 12h36.52.491171 +0700,
1,89,0,word/wordth0891.png,image/False/imgf89.png,39,39,0,x,1.0987838000291958,None,0,39,39,39,148.68332760001067,,,,,,,150.16918680001982,149.66997809999157,149.67433840001468,149.67433840001468,150.16918680001982,150.16918680001982,150.1625152999768,151.2537332000211,151.2537332000211,151.2537332000211,x,1.0987838000291958,None,,,,,,,,CS_th,001,2025-03-07_12h36.40.965,MainFlow,2024.2.4,134.62247826376202,2025-03-07 12h36.52.491171 +0700,
1,64,0,word/wordth0641.png,image/False/imgf64.png,40,40,0,x,0.6915253000333905,None,0,40,40,40,152.36629640008323,,,,,,,153.85232820000965,153.35341650003102,153.3579440000467,153.3579440000467,153.85232820000965,153.85232820000965,153.845741200028,154.91862030001357,154.91862030001357,154.91862030001357,x,0.6915253000333905,None,,,,,,,,CS_th,001,2025-03-07_12h36.40.965,MainFlow,2024.2.4,134.62247826376202,2025-03-07 12h36.52.491171 +0700,
1,56,1,word/wordth0561.png,image/True/img56.png,41,41,0,z,0.4843544000759721,None,0,41,41,41,155.62035710003693,,,,,,,157.10637400008272,156.60770120006055,156.6116772000678,156.6116772000678,157.10637400008272,157.10637400008272,157.0997094999766,158.19403270003386,158.19403270003386,158.19403270003386,z,0.4843544000759721,None,,,,,,,,CS_th,001,2025-03-07_12h36.40.965,MainFlow,2024.2.4,134.62247826376202,2025-03-07 12h36.52.491171 +0700,
1,15,1,word/wordth0151.png,image/True/img15.png,42,42,0,z,0.39723569992929697,None,0,42,42,42,158.6866022000322,,,,,,,160.1730256000301,159.67399420007132,159.67820259998553,159.67820259998553,160.1730256000301,160.1730256000301,160.16632130008657,161.2741533999797,161.2741533999797,161.2741533999797,z,0.39723569992929697,None,,,,,,,,CS_th,001,2025-03-07_12h36.40.965,MainFlow,2024.2.4,134.62247826376202,2025-03-07 12h36.52.491171 +0700,
1,88,0,word/wordth0881.png,image/False/imgf88.png,43,43,0,x,0.6547689000144601,None,0,43,43,43,161.6836535000475,,,,,,,163.16988579998724,162.67094700003508,162.67507610004395,162.67507610004395,163.16988579998724,163.16988579998724,163.16315919999033,164.25895360007416,164.25895360007416,164.25895360007416,x,0.6547689000144601,None,,,,,,,,CS_th,001,2025-03-07_12h36.40.965,MainFlow,2024.2.4,134.62247826376202,2025-03-07 12h36.52.491171 +0700,
1,94,1,word/wordth0941.png,image/True/img94.png,44,44,0,z,0.3698230000445619,None,0,44,44,44,164.92544410005212,,,,,,,166.41135990002658,165.91339920007158,165.91769590007607,165.91769590007607,166.41135990002658,166.41135990002658,166.40524390002247,167.49686800001655,167.49686800001655,167.49686800001655,z,0.3698230000445619,None,,,,,,,,CS_th,001,2025-03-07_12h36.40.965,MainFlow,2024.2.4,134.62247826376202,2025-03-07 12h36.52.491171 +0700,
1,40,0,word/wordth0401.png,image/False/imgf40.png,45,45,0,x,0.6368408999405801,None,0,45,45,45,167.87986310000997,,,,,,,169.3657666000072,168.86671139998361,168.87066290003713,168.87066290003713,169.3657666000072,169.3657666000072,169.3592673999956,170.45755599997938,170.45755599997938,170.45755599997938,x,0.6368408999405801,None,,,,,,,,CS_th,001,2025-03-07_12h36.40.965,MainFlow,2024.2.4,134.62247826376202,2025-03-07 12h36.52.491171 +0700,
1,41,0,word/wordth0411.png,image/False/imgf41.png,46,46,0,x,0.9630090999417007,None,0,46,46,46,171.10241789999418,,,,,,,172.5888593000127,172.0894857000094,172.09356030006893,172.09356030006893,172.5888593000127,172.5888593000127,172.58219380001538,173.65470289997756,173.65470289997756,173.65470289997756,x,0.9630090999417007,None,,,,,,,,CS_th,001,2025-03-07_12h36.40.965,MainFlow,2024.2.4,134.62247826376202,2025-03-07 12h36.52.491171 +0700,
1,7,1,word/wordth0071.png,image/True/img07.png,47,47,0,z,0.458247400005348,None,0,47,47,47,174.62700610002503,,,,,,,176.11357420007698,175.61409230006393,175.61818430002313,175.61818430002313,176.11357420007698,176.11357420007698,176.106948700035,177.20702309999615,177.20702309999615,177.20702309999615,z,0.458247400005348,None,,,,,,,,CS_th,001,2025-03-07_12h36.40.965,MainFlow,2024.2.4,134.62247826376202,2025-03-07 12h36.52.491171 +0700,
1,60,0,word/wordth0601.png,image/False/imgf60.png,48,48,0,x,0.9998249999480322,None,0,48,48,48,177.67500889999792,,,,,,,179.16146289999597,178.66268409998156,178.6669939000858,178.6669939000858,179.16146289999597,179.16146289999597,179.15477120003197,180.25250330008566,180.25250330008566,180.25250330008566,x,0.9998249999480322,None,,,,,,,,CS_th,001,2025-03-07_12h36.40.965,MainFlow,2024.2.4,134.62247826376202,2025-03-07 12h36.52.491171 +0700,
1,23,0,word/wordth0231.png,image/False/imgf23.png,49,49,0,x,3.3374670000048354,None,0,49,49,49,181.26580850000028,,,,,,,182.75231060001533,182.25309210002888,182.25722070003394,182.25722070003394,182.75231060001533,182.75231060001533,182.7457142000785,183.86568619997706,183.86568619997706,183.86568619997706,x,3.3374670000048354,None,,,,,,,,CS_th,001,2025-03-07_12h36.40.965,MainFlow,2024.2.4,134.62247826376202,2025-03-07 12h36.52.491171 +0700,
1,68,0,word/wordth0681.png,image/False/imgf68.png,50,50,0,x,0.9015851999865845,None,0,50,50,50,187.21121650002897,,,,,,,188.69772940000985,188.19869760004804,188.20275830000173,188.20275830000173,188.69772940000985,188.69772940000985,188.6910391000565,189.76989180000965,189.76989180000965,189.76989180000965,x,0.9015851999865845,None,,,,,,,,CS_th,001,2025-03-07_12h36.40.965,MainFlow,2024.2.4,134.62247826376202,2025-03-07 12h36.52.491171 +0700,
1,26,1,word/wordth0261.png,image/True/img26.png,51,51,0,z,0.8408501000376418,None,0,51,51,51,190.6822379999794,,,,,,,192.1684486999875,191.66934450005647,191.67350640008226,191.67350640008226,192.1684486999875,192.1684486999875,192.16179500008002,193.27325910003856,193.27325910003856,193.27325910003856,z,0.8408501000376418,None,,,,,,,,CS_th,001,2025-03-07_12h36.40.965,MainFlow,2024.2.4,134.62247826376202,2025-03-07 12h36.52.491171 +0700,
1,89,0,word/wordth0891.png,image/False/imgf89.png,52,52,0,x,0.6105531000066549,None,0,52,52,52,194.1242196999956,,,,,,,195.61024549999274,195.11129490006715,195.1155521000037,195.1155521000037,195.61024549999274,195.61024549999274,195.60371000005398,196.6939094000263,196.6939094000263,196.6939094000263,x,0.6105531000066549,None,,,,,,,,CS_th,001,2025-03-07_12h36.40.965,MainFlow,2024.2.4,134.62247826376202,2025-03-07 12h36.52.491171 +0700,
1,3,0,word/wordth0031.png,image/False/imgf03.png,53,53,0,x,0.6580928000621498,None,0,53,53,53,197.31431210006122,,,,,,,198.80029030004516,198.30087140004616,198.30499159998726,198.30499159998726,198.80029030004516,198.80029030004516,198.79366249998566,199.8865264999913,199.8865264999913,199.8865264999913,x,0.6580928000621498,None,,,,,,,,CS_th,001,2025-03-07_12h36.40.965,MainFlow,2024.2.4,134.62247826376202,2025-03-07 12h36.52.491171 +0700,
1,55,1,word/wordth0551.png,image/True/img55.png,54,54,0,z,0.40298850007820874,None,0,54,54,54,200.5533939000452,,,,,,,202.03928290004842,201.54032240004744,201.54439000005368,201.54439000005368,202.03928290004842,202.03928290004842,202.0326479000505,203.13975009997375,203.13975009997375,203.13975009997375,z,0.40298850007820874,None,,,,,,,,CS_th,001,2025-03-07_12h36.40.965,MainFlow,2024.2.4,134.62247826376202,2025-03-07 12h36.52.491171 +0700,
1,46,1,word/wordth0461.png,image/True/img46.png,55,55,0,z,0.5950103000504896,None,0,55,55,55,203.55620009999257,,,,,,,205.04218270001002,204.54316010000184,204.5474700999912,204.5474700999912,205.04218270001002,205.04218270001002,205.03544440004043,206.15036470000632,206.15036470000632,206.15036470000632,z,0.5950103000504896,None,,,,,,,,CS_th,001,2025-03-07_12h36.40.965,MainFlow,2024.2.4,134.62247826376202,2025-03-07 12h36.52.491171 +0700,
1,1,1,word/wordth0011.png,image/True/img01.png,56,56,0,z,0.5918593000387773,None,0,56,56,56,206.75427220005076,,,,,,,208.24026980006602,207.74126819998492,207.74510150006972,207.74510150006972,208.24026980006602,208.24026980006602,208.23359299998265,209.34142539999448,209.34142539999448,209.34142539999448,z,0.5918593000387773,None,,,,,,,,CS_th,001,2025-03-07_12h36.40.965,MainFlow,2024.2.4,134.62247826376202,2025-03-07 12h36.52.491171 +0700,
1,3,1,word/wordth0031.png,image/True/img03.png,57,57,0,z,0.5247062999987975,None,0,57,57,57,209.945341499988,,,,,,,211.4314192000311,210.93239550001454,210.9369259000523,210.9369259000523,211.4314192000311,211.4314192000311,211.4247034,212.5265372999711,212.5265372999711,212.5265372999711,z,0.5247062999987975,None,,,,,,,,CS_th,001,2025-03-07_12h36.40.965,MainFlow,2024.2.4,134.62247826376202,2025-03-07 12h36.52.491171 +0700,
1,76,1,word/wordth0761.png,image/True/img76.png,58,58,0,z,0.3680166000267491,None,0,58,58,58,213.06266649998724,,,,,,,214.54914320004173,214.0501897999784,214.05423440004233,214.05423440004233,214.54914320004173,214.54914320004173,214.54246959998272,215.6414297000738,215.6414297000738,215.6414297000738,z,0.3680166000267491,None,,,,,,,,CS_th,001,2025-03-07_12h36.40.965,MainFlow,2024.2.4,134.62247826376202,2025-03-07 12h36.52.491171 +0700,
1,52,0,word/wordth0521.png,image/False/imgf52.png,59,59,0,x,0.8831070000305772,None,0,59,59,59,216.02031270007137,,,,,,,217.50626860000193,217.00706460000947,217.01089650008362,217.01089650008362,217.50626860000193,217.50626860000193,217.49959370004945,218.5895448999945,218.5895448999945,218.5895448999945,x,0.8831070000305772,None,,,,,,,,CS_th,001,2025-03-07_12h36.40.965,MainFlow,2024.2.4,134.62247826376202,2025-03-07 12h36.52.491171 +0700,
1,14,0,word/wordth0141.png,image/False/imgf14.png,60,60,0,x,0.9272027999395505,None,0,60,60,60,219.48097899998538,,,,,,,220.9674556000391,220.46858450002037,220.47257159999572,220.47257159999572,220.9674556000391,220.9674556000391,220.96092620003037,222.0626365999924,222.0626365999924,222.0626365999924,x,0.9272027999395505,None,,,,,,,,CS_th,001,2025-03-07_12h36.40.965,MainFlow,2024.2.4,134.62247826376202,2025-03-07 12h36.52.491171 +0700,
1,61,1,word/wordth0611.png,image/True/img61.png,61,61,0,z,0.37873200001195073,None,0,61,61,61,223.00137780001387,,,,,,,224.48743720003404,223.98872430005576,223.99309880007058,223.99309880007058,224.48743720003404,224.48743720003404,224.48086140002124,225.58382000005804,225.58382000005804,225.58382000005804,z,0.37873200001195073,None,,,,,,,,CS_th,001,2025-03-07_12h36.40.965,MainFlow,2024.2.4,134.62247826376202,2025-03-07 12h36.52.491171 +0700,
1,93,0,word/wordth0931.png,image/False/imgf93.png,62,62,0,z,0.815229200059548,None,0,62,62,62,225.97319900000002,,,,,,,227.4592509000795,226.96001969999634,226.96464060002472,226.96464060002472,227.4592509000795,227.4592509000795,227.4526183999842,228.54014920000918,228.54014920000918,228.54014920000918,z,0.815229200059548,None,,,,,,,,CS_th,001,2025-03-07_12h36.40.965,MainFlow,2024.2.4,134.62247826376202,2025-03-07 12h36.52.491171 +0700,
1,37,1,word/wordth0371.png,image/True/img37.png,63,63,0,z,0.6737750000320375,None,0,63,63,63,229.3645335000474,,,,,,,230.8505465000635,230.3511535000289,230.35600080003496,230.35600080003496,230.8505465000635,230.8505465000635,230.84378120000474,231.96461360005196,231.96461360005196,231.96461360005196,z,0.6737750000320375,None,,,,,,,,CS_th,001,2025-03-07_12h36.40.965,MainFlow,2024.2.4,134.62247826376202,2025-03-07 12h36.52.491171 +0700,
1,79,0,word/wordth0791.png,image/False/imgf79.png,64,64,0,x,1.4569338998990133,None,0,64,64,64,232.6501060000155,,,,,,,234.1367251999909,233.63683420000598,233.64261320000514,233.64261320000514,234.1367251999909,234.1367251999909,234.1300145999994,235.23889260005672,235.23889260005672,235.23889260005672,x,1.4569338998990133,None,,,,,,,,CS_th,001,2025-03-07_12h36.40.965,MainFlow,2024.2.4,134.62247826376202,2025-03-07 12h36.52.491171 +0700,
1,37,0,word/wordth0371.png,image/False/imgf37.png,65,65,0,x,0.6474502000492066,None,0,65,65,65,236.70430940005463,,,,,,,238.18947290000506,237.69030690006912,237.6944370000856,237.6944370000856,238.18947290000506,238.18947290000506,238.18291089998093,239.30091119999997,239.30091119999997,239.30091119999997,x,0.6474502000492066,None,,,,,,,,CS_th,001,2025-03-07_12h36.40.965,MainFlow,2024.2.4,134.62247826376202,2025-03-07 12h36.52.491171 +0700,
1,3,1,word/wordth0031.png,image/True/img03.png,66,66,0,z,0.7448480000020936,None,0,66,66,66,239.9601207000669,,,,,,,241.4466697999742,240.94782070000656,240.95256440003868,240.95256440003868,241.4466697999742,241.4466697999742,241.44003340008203,242.5407833000645,242.5407833000645,242.5407833000645,z,0.7448480000020936,None,,,,,,,,CS_th,001,2025-03-07_12h36.40.965,MainFlow,2024.2.4,134.62247826376202,2025-03-07 12h36.52.491171 +0700,
1,93,0,word/wordth0931.png,image/False/imgf93.png,67,67,0,x,3.488648199941963,None,0,67,67,67,243.29325580003206,,,,,,,244.77914600004442,244.2803762999829,244.28410519997124,244.28410519997124,244.77914600004442,244.77914600004442,244.7724558999762,245.8583466000855,245.8583466000855,245.8583466000855,x,3.488648199941963,None,,,,,,,,CS_th,001,2025-03-07_12h36.40.965,MainFlow,2024.2.4,134.62247826376202,2025-03-07 12h36.52.491171 +0700,
1,30,1,word/wordth0301.png,image/True/img30.png,68,68,0,z,0.732344500022009,None,0,68,68,68,249.35880110005382,,,,,,,250.84476440004073,250.34616499999538,250.350306599983,250.350306599983,250.84476440004073,250.84476440004073,250.83806650002953,251.927054699976,251.927054699976,251.927054699976,z,0.732344500022009,None,,,,,,,,CS_th,001,2025-03-07_12h36.40.965,MainFlow,2024.2.4,134.62247826376202,2025-03-07 12h36.52.491171 +0700,
1,46,0,word/wordth0461.png,image/False/imgf46.png,69,69,0,x,1.5879274000180885,None,0,69,69,69,252.67340480000712,,,,,,,254.15931860008277,253.66038020001724,253.6646859999746,253.6646859999746,254.15931860008277,254.15931860008277,254.15268409997225,255.2639314000262,255.2639314000262,255.2639314000262,x,1.5879274000180885,None,,,,,,,,CS_th,001,2025-03-07_12h36.40.965,MainFlow,2024.2.4,134.62247826376202,2025-03-07 12h36.52.491171 +0700,
1,27,0,word/wordth0271.png,image/False/imgf27.png,70,70,0,x,0.841082000057213,None,0,70,70,70,256.8653941000812,,,,,,,258.35132050001994,257.85214890004136,257.85608699999284,257.85608699999284,258.35132050001994,258.35132050001994,258.3446176000871,259.43889730004594,259.43889730004594,259.43889730004594,x,0.841082000057213,None,,,,,,,,CS_th,001,2025-03-07_12h36.40.965,MainFlow,2024.2.4,134.62247826376202,2025-03-07 12h36.52.491171 +0700,
1,37,1,word/wordth0371.png,image/True/img37.png,71,71,0,z,0.812837400007993,None,0,71,71,71,260.29280609998386,,,,,,,261.7788626999827,261.27958209998906,261.28359650005586,261.28359650005586,261.7788626999827,261.7788626999827,261.77210340008605,262.8901898000622,262.8901898000622,262.8901898000622,z,0.812837400007993,None,,,,,,,,CS_th,001,2025-03-07_12h36.40.965,MainFlow,2024.2.4,134.62247826376202,2025-03-07 12h36.52.491171 +0700,
1,20,1,word/wordth0201.png,image/True/img20.png,72,72,0,z,1.1791010000742972,None,0,72,72,72,263.71627520001493,,,,,,,265.2021922999993,264.7028231000295,264.70724380004685,264.70724380004685,265.2021922999993,265.2021922999993,265.1955532000866,266.30095910001546,266.30095910001546,266.30095910001546,z,1.1791010000742972,None,,,,,,,,CS_th,001,2025-03-07_12h36.40.965,MainFlow,2024.2.4,134.62247826376202,2025-03-07 12h36.52.491171 +0700,
1,17,1,word/wordth0171.png,image/True/img17.png,73,73,0,z,0.6331183000002056,None,0,73,73,73,267.48787700000685,,,,,,,268.97375420003664,268.47480720002204,268.47892790008336,268.47892790008336,268.97375420003664,268.97375420003664,268.967710500001,270.0646293000318,270.0646293000318,270.0646293000318,z,0.6331183000002056,None,,,,,,,,CS_th,001,2025-03-07_12h36.40.965,MainFlow,2024.2.4,134.62247826376202,2025-03-07 12h36.52.491171 +0700,
1,10,0,word/wordth0101.png,image/False/imgf10.png,74,74,0,x,1.1537754000164568,None,0,74,74,74,270.71002870006487,,,,,,,272.19662280008197,271.6970431000227,271.70174070005305,271.70174070005305,272.19662280008197,272.19662280008197,272.18993840005714,273.2874476000434,273.2874476000434,273.2874476000434,x,1.1537754000164568,None,,,,,,,,CS_th,001,2025-03-07_12h36.40.965,MainFlow,2024.2.4,134.62247826376202,2025-03-07 12h36.52.491171 +0700,
1,68,1,word/wordth0681.png,image/True/img68.png,75,75,0,z,0.4507192000746727,None,0,75,75,75,274.453941600048,,,,,,,275.9399507000344,275.440718100057,275.4446732000215,275.4446732000215,275.9399507000344,275.9399507000344,275.9332767999731,277.0131642000051,277.0131642000051,277.0131642000051,z,0.4507192000746727,None,,,,,,,,CS_th,001,2025-03-07_12h36.40.965,MainFlow,2024.2.4,134.62247826376202,2025-03-07 12h36.52.491171 +0700,
1,82,0,word/wordth0821.png,image/False/imgf82.png,76,76,0,x,1.0868324000621215,None,0,76,76,76,277.4736677000765,,,,,,,278.9595657000318,278.4609969999874,278.4650665000081,278.4650665000081,278.9595657000318,278.9595657000318,278.9528410000494,280.0548580000177,280.0548580000177,280.0548580000177,x,1.0868324000621215,None,,,,,,,,CS_th,001,2025-03-07_12h36.40.965,MainFlow,2024.2.4,134.62247826376202,2025-03-07 12h36.52.491171 +0700,
1,42,1,word/wordth0421.png,image/True/img42.png,77,77,0,z,1.3561152999754995,None,0,77,77,77,281.1536812999984,,,,,,,282.63969840004575,282.1415882000001,282.14562059997115,282.14562059997115,282.63969840004575,282.63969840004575,282.6329948999919,283.74788270005956,283.74788270005956,283.74788270005956,z,1.3561152999754995,None,,,,,,,,CS_th,001,2025-03-07_12h36.40.965,MainFlow,2024.2.4,134.62247826376202,2025-03-07 12h36.52.491171 +0700,
1,59,1,word/wordth0591.png,image/True/img59.png,78,78,0,z,0.3741487000370398,None,0,78,78,78,285.11538299999665,,,,,,,286.60136700002477,286.1026212000288,286.10683140007313,286.10683140007313,286.60136700002477,286.60136700002477,286.59475920000114,287.68728820001706,287.68728820001706,287.68728820001706,z,0.3741487000370398,None,,,,,,,,CS_th,001,2025-03-07_12h36.40.965,MainFlow,2024.2.4,134.62247826376202,2025-03-07 12h36.52.491171 +0700,
1,18,1,word/wordth0181.png,image/True/img18.png,79,79,0,z,0.35853880003560334,None,0,79,79,79,288.06927510001697,,,,,,,289.55581290007103,289.0574997999938,289.06172580004204,289.06172580004204,289.55581290007103,289.55581290007103,289.5491985999979,290.6560097000329,290.6560097000329,290.6560097000329,z,0.35853880003560334,None,,,,,,,,CS_th,001,2025-03-07_12h36.40.965,MainFlow,2024.2.4,134.62247826376202,2025-03-07 12h36.52.491171 +0700,
1,63,1,word/wordth0631.png,image/True/img63.png,80,80,0,z,0.3377671999623999,None,0,80,80,80,291.0238887000596,,,,,,,292.50974660005886,292.01122550002765,292.0152077000821,292.0152077000821,292.50974660005886,292.50974660005886,292.5030506000621,293.63081680005416,293.63081680005416,293.63081680005416,z,0.3377671999623999,None,,,,,,,,CS_th,001,2025-03-07_12h36.40.965,MainFlow,2024.2.4,134.62247826376202,2025-03-07 12h36.52.491171 +0700,
1,40,0,word/wordth0401.png,image/False/imgf40.png,81,81,0,x,0.5063239000737667,None,0,81,81,81,293.9773093999829,,,,,,,295.4633427000372,294.96432180004194,294.96877939999104,294.96877939999104,295.4633427000372,295.4633427000372,295.4566170000471,296.56430530000944,296.56430530000944,296.56430530000944,x,0.5063239000737667,None,,,,,,,,CS_th,001,2025-03-07_12h36.40.965,MainFlow,2024.2.4,134.62247826376202,2025-03-07 12h36.52.491171 +0700,
1,55,0,word/wordth0551.png,image/False/imgf55.png,82,82,0,x,0.6913876999169588,None,0,82,82,82,297.0781791000627,,,,,,,298.56414799997583,298.06554950005375,298.06967800005805,298.06967800005805,298.56414799997583,298.56414799997583,298.55747410003096,299.6577336000046,299.6577336000046,299.6577336000046,x,0.6913876999169588,None,,,,,,,,CS_th,001,2025-03-07_12h36.40.965,MainFlow,2024.2.4,134.62247826376202,2025-03-07 12h36.52.491171 +0700,
1,26,1,word/wordth0261.png,image/True/img26.png,83,83,0,z,0.44966049992945045,None,0,83,83,83,300.3618094000267,,,,,,,301.8507139000576,301.3522414000472,301.35724869999103,301.35724869999103,301.8507139000576,301.8507139000576,301.8445640000282,302.9622133000521,302.9622133000521,302.9622133000521,z,0.44966049992945045,None,,,,,,,,CS_th,001,2025-03-07_12h36.40.965,MainFlow,2024.2.4,134.62247826376202,2025-03-07 12h36.52.491171 +0700,
1,28,0,word/wordth0281.png,image/False/imgf28.png,84,84,0,x,0.6897561999503523,None,0,84,84,84,303.41967259999365,,,,,,,304.90623820002656,304.40781930007506,304.4119044999825,304.4119044999825,304.90623820002656,304.90623820002656,304.8994946000166,305.99944180005696,305.99944180005696,305.99944180005696,x,0.6897561999503523,None,,,,,,,,CS_th,001,2025-03-07_12h36.40.965,MainFlow,2024.2.4,134.62247826376202,2025-03-07 12h36.52.491171 +0700,
1,8,0,word/wordth0081.png,image/False/imgf08.png,85,85,0,x,0.8349049999378622,None,0,85,85,85,306.6969190000091,,,,,,,308.1828045999864,307.68490330001805,307.6891419000458,307.6891419000458,308.1828045999864,308.1828045999864,308.17672290001065,309.2666123000672,309.2666123000672,309.2666123000672,x,0.8349049999378622,None,,,,,,,,CS_th,001,2025-03-07_12h36.40.965,MainFlow,2024.2.4,134.62247826376202,2025-03-07 12h36.52.491171 +0700,
1,9,1,word/wordth0091.png,image/True/img09.png,86,86,0,z,0.37922030000481755,None,0,86,86,86,310.1092949999729,,,,,,,311.5952296999749,311.09668150008656,311.1010805000551,311.1010805000551,311.5952296999749,311.5952296999749,311.58857560006436,312.6603953000158,312.6603953000158,312.6603953000158,z,0.37922030000481755,None,,,,,,,,CS_th,001,2025-03-07_12h36.40.965,MainFlow,2024.2.4,134.62247826376202,2025-03-07 12h36.52.491171 +0700,
1,78,1,word/wordth0781.png,image/True/img78.png,87,87,0,z,0.6156822999473661,None,0,87,87,87,313.0497867000522,,,,,,,314.5359979000641,314.0374126000097,314.04195109999273,314.04195109999273,314.5359979000641,314.5359979000641,314.5291813000804,315.6275651999749,315.6275651999749,315.6275651999749,z,0.6156822999473661,None,,,,,,,,CS_th,001,2025-03-07_12h36.40.965,MainFlow,2024.2.4,134.62247826376202,2025-03-07 12h36.52.491171 +0700,
1,1,0,word/wordth0011.png,image/False/imgf01.png,88,88,0,x,0.8365886000683531,None,0,88,88,88,316.2518393000355,,,,,,,317.737916400074,317.23955180007033,317.24379770003725,317.24379770003725,317.737916400074,317.737916400074,317.73126320005395,318.8141187999863,318.8141187999863,318.8141187999863,x,0.8365886000683531,None,,,,,,,,CS_th,001,2025-03-07_12h36.40.965,MainFlow,2024.2.4,134.62247826376202,2025-03-07 12h36.52.491171 +0700,
1,71,1,word/wordth0711.png,image/True/img71.png,89,89,0,z,0.7817208000924438,None,0,89,89,89,319.6613632000517,,,,,,,321.1473497999832,320.64892479998525,320.6529701000545,320.6529701000545,321.1473497999832,321.1473497999832,321.1407004999928,322.2413197000278,322.2413197000278,322.2413197000278,z,0.7817208000924438,None,,,,,,,,CS_th,001,2025-03-07_12h36.40.965,MainFlow,2024.2.4,134.62247826376202,2025-03-07 12h36.52.491171 +0700,
1,93,1,word/wordth0931.png,image/True/img93.png,90,90,0,z,0.4573326000245288,None,0,90,90,90,323.03492590005044,,,,,,,324.52177200000733,324.0231332000112,324.02726650005206,324.02726650005206,324.52177200000733,324.52177200000733,324.51506550004706,325.5988077999791,325.5988077999791,325.5988077999791,z,0.4573326000245288,None,,,,,,,,CS_th,001,2025-03-07_12h36.40.965,MainFlow,2024.2.4,134.62247826376202,2025-03-07 12h36.52.491171 +0700,
1,78,0,word/wordth0781.png,image/False/imgf78.png,91,91,0,x,0.7276186000090092,None,0,91,91,91,326.0639658999862,,,,,,,327.54987590003293,327.05161970003974,327.0556330999825,327.0556330999825,327.54987590003293,327.54987590003293,327.5437809000723,328.62254800007213,328.62254800007213,328.62254800007213,x,0.7276186000090092,None,,,,,,,,CS_th,001,2025-03-07_12h36.40.965,MainFlow,2024.2.4,134.62247826376202,2025-03-07 12h36.52.491171 +0700,
1,8,0,word/wordth0081.png,image/False/imgf08.png,92,92,0,x,0.9035457000136375,None,0,92,92,92,329.361315999995,,,,,,,330.84785590006504,330.3490277000237,330.3535881000571,330.3535881000571,330.84785590006504,330.84785590006504,330.8411113000475,331.9238701000577,331.9238701000577,331.9238701000577,x,0.9035457000136375,None,,,,,,,,CS_th,001,2025-03-07_12h36.40.965,MainFlow,2024.2.4,134.62247826376202,2025-03-07 12h36.52.491171 +0700,
1,9,0,word/wordth0091.png,image/False/imgf09.png,93,93,0,x,0.6191038000397384,None,0,93,93,93,332.8407586000394,,,,,,,334.32856060005724,333.82966819999274,333.834712699987,333.834712699987,334.32856060005724,334.32856060005724,334.32181710004807,335.39588480000384,335.39588480000384,335.39588480000384,x,0.6191038000397384,None,,,,,,,,CS_th,001,2025-03-07_12h36.40.965,MainFlow,2024.2.4,134.62247826376202,2025-03-07 12h36.52.491171 +0700,
1,75,1,word/wordth0751.png,image/True/img75.png,94,94,0,x,0.6565115000121295,None,0,94,94,94,336.0267438000301,,,,,,,337.51269640005194,337.013848099974,337.0182588000316,337.0182588000316,337.51269640005194,337.51269640005194,337.5060276000295,338.60092380002607,338.60092380002607,338.60092380002607,x,0.6565115000121295,None,,,,,,,,CS_th,001,2025-03-07_12h36.40.965,MainFlow,2024.2.4,134.62247826376202,2025-03-07 12h36.52.491171 +0700,
1,95,0,word/wordth0951.png,image/False/imgf95.png,95,95,0,x,0.8917252999963239,None,0,95,95,95,339.26728919998277,,,,,,,340.7531802000012,340.25407869997434,340.2583619999932,340.2583619999932,340.7531802000012,340.7531802000012,340.7465091000777,341.84899740002584,341.84899740002584,341.84899740002584,x,0.8917252999963239,None,,,,,,,,CS_th,001,2025-03-07_12h36.40.965,MainFlow,2024.2.4,134.62247826376202,2025-03-07 12h36.52.491171 +0700,
1,70,1,word/wordth0701.png,image/True/img70.png,96,96,0,z,1.3809685999294743,None,0,96,96,96,342.75293329998385,,,,,,,344.23878020001575,343.73965030000545,343.7434599000262,343.7434599000262,344.23878020001575,344.23878020001575,344.23214209999423,345.3316089999862,345.3316089999862,345.3316089999862,z,1.3809685999294743,None,,,,,,,,CS_th,001,2025-03-07_12h36.40.965,MainFlow,2024.2.4,134.62247826376202,2025-03-07 12h36.52.491171 +0700,
1,94,0,word/wordth0941.png,image/False/imgf94.png,97,97,0,x,1.194937500054948,None,0,97,97,97,346.72440260008443,,,,,,,348.21036070003174,347.71104910003487,347.71520840004086,347.71520840004086,348.21036070003174,348.21036070003174,348.2037540000165,349.3207867000019,349.3207867000019,349.3207867000019,x,1.194937500054948,None,,,,,,,,CS_th,001,2025-03-07_12h36.40.965,MainFlow,2024.2.4,134.62247826376202,2025-03-07 12h36.52.491171 +0700,
1,9,0,word/wordth0091.png,image/False/imgf09.png,98,98,0,x,0.9489236999070272,None,0,98,98,98,350.52859330002684,,,,,,,352.01458970003296,351.5154431000119,351.5198637000285,351.5198637000285,352.01458970003296,352.01458970003296,352.0078416999895,353.0842881000135,353.0842881000135,353.0842881000135,x,0.9489236999070272,None,,,,,,,,CS_th,001,2025-03-07_12h36.40.965,MainFlow,2024.2.4,134.62247826376202,2025-03-07 12h36.52.491171 +0700,
1,18,0,word/wordth0181.png,image/False/imgf18.png,99,99,0,x,1.5728402000386268,None,0,99,99,99,354.0405509000411,,,,,,,355.52707429998554,355.02837030007504,355.0328529999824,355.0328529999824,355.52707429998554,355.52707429998554,355.5203726000618,356.6132957000518,356.6132957000518,356.6132957000518,x,1.5728402000386268,None,,,,,,,,CS_th,001,2025-03-07_12h36.40.965,MainFlow,2024.2.4,134.62247826376202,2025-03-07 12h36.52.491171 +0700,
1,28,1,word/wordth0281.png,image/True/img28.png,100,100,0,z,0.8152879000408575,None,0,100,100,100,358.19639130006544,,,,,,,359.6824390999973,359.183355199988,359.18770140002016,359.18770140002016,359.6824390999973,359.6824390999973,359.67558729997836,360.7833048000466,360.7833048000466,360.7833048000466,z,0.8152879000408575,None,,,,,,,,CS_th,001,2025-03-07_12h36.40.965,MainFlow,2024.2.4,134.62247826376202,2025-03-07 12h36.52.491171 +0700,
1,23,1,word/wordth0231.png,image/True/img23.png,101,101,0,z,1.4184080000268295,None,0,101,101,101,361.6094673000043,,,,,,,363.095782999997,362.59669939999003,362.60061860003043,362.60061860003043,363.095782999997,363.095782999997,363.0889772999799,364.1873912999872,364.1873912999872,364.1873912999872,z,1.4184080000268295,None,,,,,,,,CS_th,001,2025-03-07_12h36.40.965,MainFlow,2024.2.4,134.62247826376202,2025-03-07 12h36.52.491171 +0700,
1,30,0,word/wordth0301.png,image/False/imgf30.png,102,102,0,x,0.9013661999488249,None,0,102,102,102,365.61676180001814,,,,,,,367.10327409999445,366.6041550000664,366.6082358000567,366.6082358000567,367.10327409999445,367.10327409999445,367.09658480004873,368.192688500043,368.192688500043,368.192688500043,x,0.9013661999488249,None,,,,,,,,CS_th,001,2025-03-07_12h36.40.965,MainFlow,2024.2.4,134.62247826376202,2025-03-07 12h36.52.491171 +0700,
1,11,1,word/wordth0111.png,image/True/img11.png,103,103,0,x,1.5722535999957472,None,0,103,103,103,369.1024145000847,,,,,,,370.5882482000161,370.0895883999765,370.09373339999,370.09373339999,370.5882482000161,370.5882482000161,370.5815418000566,371.69911210006103,371.69911210006103,371.69911210006103,x,1.5722535999957472,None,,,,,,,,CS_th,001,2025-03-07_12h36.40.965,MainFlow,2024.2.4,134.62247826376202,2025-03-07 12h36.52.491171 +0700,
1,75,0,word/wordth0751.png,image/False/imgf75.png,104,104,0,x,1.1439894000068307,None,0,104,104,104,373.28208450006787,,,,,,,374.7681424000766,374.26986640004907,374.27418970002327,374.27418970002327,374.7681424000766,374.7681424000766,374.76140580000356,375.8940904000774,375.8940904000774,375.8940904000774,x,1.1439894000068307,None,,,,,,,,CS_th,001,2025-03-07_12h36.40.965,MainFlow,2024.2.4,134.62247826376202,2025-03-07 12h36.52.491171 +0700,
1,6,0,word/wordth0061.png,image/False/imgf06.png,105,105,0,x,1.014489599969238,None,0,105,105,105,377.0513347000815,,,,,,,378.5373863000423,378.038423400023,378.0426161000505,378.0426161000505,378.5373863000423,378.5373863000423,378.5306046999758,379.6262364999857,379.6262364999857,379.6262364999857,x,1.014489599969238,None,,,,,,,,CS_th,001,2025-03-07_12h36.40.965,MainFlow,2024.2.4,134.62247826376202,2025-03-07 12h36.52.491171 +0700,
1,27,1,word/wordth0271.png,image/True/img27.png,106,106,0,z,0.460036400007084,None,0,106,106,106,380.6536265000468,,,,,,,382.14007610001136,381.6413884999929,381.6455622999929,381.6455622999929,382.14007610001136,382.14007610001136,382.1333609999856,383.2395112999948,383.2395112999948,383.2395112999948,z,0.460036400007084,None,,,,,,,,CS_th,001,2025-03-07_12h36.40.965,MainFlow,2024.2.4,134.62247826376202,2025-03-07 12h36.52.491171 +0700,
1,1,1,word/wordth0011.png,image/True/img01.png,107,107,0,z,0.48957370000425726,None,0,107,107,107,383.71130580001045,,,,,,,385.1972087000031,384.69859360007104,384.70256110001355,384.70256110001355,385.1972087000031,385.1972087000031,385.19068060000427,386.3123238000553,386.3123238000553,386.3123238000553,z,0.48957370000425726,None,,,,,,,,CS_th,001,2025-03-07_12h36.40.965,MainFlow,2024.2.4,134.62247826376202,2025-03-07 12h36.52.491171 +0700,
1,44,0,word/wordth0441.png,image/False/imgf44.png,108,108,0,x,0.9026833999669179,None,0,108,108,108,386.8100250000134,,,,,,,388.2959457000252,387.79758999997284,387.80163410003297,387.80163410003297,388.2959457000252,388.2959457000252,388.28935189999174,389.4181074000662,389.4181074000662,389.4181074000662,x,0.9026833999669179,None,,,,,,,,CS_th,001,2025-03-07_12h36.40.965,MainFlow,2024.2.4,134.62247826376202,2025-03-07 12h36.52.491171 +0700,
1,48,0,word/wordth0481.png,image/False/imgf48.png,109,109,0,x,0.65306599996984,None,0,109,109,109,390.33404380001593,,,,,,,391.8205334000522,391.3219542000443,391.32626720005646,391.32626720005646,391.8205334000522,391.8205334000522,391.8138689000625,392.93475320003927,392.93475320003927,392.93475320003927,x,0.65306599996984,None,,,,,,,,CS_th,001,2025-03-07_12h36.40.965,MainFlow,2024.2.4,134.62247826376202,2025-03-07 12h36.52.491171 +0700,
1,60,0,word/wordth0601.png,image/False/imgf60.png,110,110,0,x,1.3304058000212535,None,0,110,110,110,393.5992377999937,,,,,,,395.0851856999798,394.5863758000778,394.59061489999294,394.59061489999294,395.0851856999798,395.0851856999798,395.07850060006604,396.18958240002394,396.18958240002394,396.18958240002394,x,1.3304058000212535,None,,,,,,,,CS_th,001,2025-03-07_12h36.40.965,MainFlow,2024.2.4,134.62247826376202,2025-03-07 12h36.52.491171 +0700,
1,96,1,word/wordth0961.png,image/True/img96.png,111,111,0,z,1.0835693000117317,None,0,111,111,111,397.52751150005497,,,,,,,399.01343140006065,398.514887599973,398.51902820006944,398.51902820006944,399.01343140006065,399.01343140006065,399.0067884000018,400.1186710000038,400.1186710000038,400.1186710000038,z,1.0835693000117317,None,,,,,,,,CS_th,001,2025-03-07_12h36.40.965,MainFlow,2024.2.4,134.62247826376202,2025-03-07 12h36.52.491171 +0700,
1,79,0,word/wordth0791.png,image/False/imgf79.png,112,112,0,x,0.9657720000250265,None,0,112,112,112,401.21090399997775,,,,,,,402.6974131000461,402.19839620008133,402.20235949999187,402.20235949999187,402.6974131000461,402.6974131000461,402.69077460002154,403.8097484000027,403.8097484000027,403.8097484000027,x,0.9657720000250265,None,,,,,,,,CS_th,001,2025-03-07_12h36.40.965,MainFlow,2024.2.4,134.62247826376202,2025-03-07 12h36.52.491171 +0700,
1,7,0,word/wordth0071.png,image/False/imgf07.png,113,113,0,x,1.8564918000483885,None,0,113,113,113,404.78852350008674,,,,,,,406.2745570000261,405.77585830003954,405.78006050002296,405.78006050002296,406.2745570000261,406.2745570000261,406.26788130006753,407.37160180008505,407.37160180008505,407.37160180008505,x,1.8564918000483885,None,,,,,,,,CS_th,001,2025-03-07_12h36.40.965,MainFlow,2024.2.4,134.62247826376202,2025-03-07 12h36.52.491171 +0700,
1,36,0,word/wordth0361.png,image/False/imgf36.png,114,114,0,x,1.4627724000019953,None,0,114,114,114,409.23931319999974,,,,,,,410.72579729999416,410.227227400057,410.23157669999637,410.23157669999637,410.72579729999416,410.72579729999416,410.71909610007424,411.823120700079,411.823120700079,411.823120700079,x,1.4627724000019953,None,,,,,,,,CS_th,001,2025-03-07_12h36.40.965,MainFlow,2024.2.4,134.62247826376202,2025-03-07 12h36.52.491171 +0700,
1,71,0,word/wordth0711.png,image/False/imgf71.png,115,115,0,x,1.144417900010012,None,0,115,115,115,413.29478930006735,,,,,,,414.78083489998244,414.282392000081,414.28646660002414,414.28646660002414,414.78083489998244,414.78083489998244,414.7740657000104,415.89299510000274,415.89299510000274,415.89299510000274,x,1.144417900010012,None,,,,,,,,CS_th,001,2025-03-07_12h36.40.965,MainFlow,2024.2.4,134.62247826376202,2025-03-07 12h36.52.491171 +0700,
1,20,0,word/wordth0201.png,image/False/imgf20.png,116,116,0,x,1.1367334000533447,None,0,116,116,116,417.04530340002384,,,,,,,418.5317424000241,418.0332807999803,418.03775240003597,418.03775240003597,418.5317424000241,418.5317424000241,418.52506610006094,419.6482548000058,419.6482548000058,419.6482548000058,x,1.1367334000533447,None,,,,,,,,CS_th,001,2025-03-07_12h36.40.965,MainFlow,2024.2.4,134.62247826376202,2025-03-07 12h36.52.491171 +0700,
1,87,1,word/wordth0871.png,image/True/img87.png,117,117,0,z,0.6068390998989344,None,0,117,117,117,420.7969642999815,,,,,,,422.28304230002686,421.7842213000404,421.7886894000694,421.7886894000694,422.28304230002686,422.28304230002686,422.2763994000852,423.3862191999797,423.3862191999797,423.3862191999797,z,0.6068390998989344,None,,,,,,,,CS_th,001,2025-03-07_12h36.40.965,MainFlow,2024.2.4,134.62247826376202,2025-03-07 12h36.52.491171 +0700,
1,50,0,word/wordth0501.png,image/False/imgf50.png,118,118,0,x,1.0844900999218225,None,0,118,118,118,424.00259470008314,,,,,,,425.4891715000849,424.9904338000342,424.99530740000773,424.99530740000773,425.4891715000849,425.4891715000849,425.48263960005715,426.5812768000178,426.5812768000178,426.5812768000178,x,1.0844900999218225,None,,,,,,,,CS_th,001,2025-03-07_12h36.40.965,MainFlow,2024.2.4,134.62247826376202,2025-03-07 12h36.52.491171 +0700,
1,18,1,word/wordth0181.png,image/True/img18.png,119,119,0,z,0.6369162999326363,None,0,119,119,119,427.67725589999463,,,,,,,429.1632823999971,428.6648320000386,428.6692113999743,428.6692113999743,429.1632823999971,429.1632823999971,429.15658240008634,430.24658000003546,430.24658000003546,430.24658000003546,z,0.6369162999326363,None,,,,,,,,CS_th,001,2025-03-07_12h36.40.965,MainFlow,2024.2.4,134.62247826376202,2025-03-07 12h36.52.491171 +0700,
1,71,0,word/wordth0711.png,image/False/imgf71.png,120,120,0,x,0.7247288000071421,None,0,120,120,120,430.8947282000445,,,,,,,432.38197250000667,431.88261600001715,431.8872607999947,431.8872607999947,432.38197250000667,432.38197250000667,432.37458930001594,433.491381800035,433.491381800035,433.491381800035,x,0.7247288000071421,None,,,,,,,,CS_th,001,2025-03-07_12h36.40.965,MainFlow,2024.2.4,134.62247826376202,2025-03-07 12h36.52.491171 +0700,
1,46,1,word/wordth0461.png,image/True/img46.png,121,121,0,z,0.4917428999906406,None,0,121,121,121,434.22687030001543,,,,,,,435.7128730000695,435.21401650004555,435.2182473000139,435.2182473000139,435.7128730000695,435.7128730000695,435.70621039997786,436.8232508000219,436.8232508000219,436.8232508000219,z,0.4917428999906406,None,,,,,,,,CS_th,001,2025-03-07_12h36.40.965,MainFlow,2024.2.4,134.62247826376202,2025-03-07 12h36.52.491171 +0700,
1,10,1,word/wordth0101.png,image/True/img10.png,122,122,0,z,0.854672999936156,None,0,122,122,122,437.3216439000098,,,,,,,438.8078143000603,438.3085933000548,438.31254150008317,438.31254150008317,438.8078143000603,438.8078143000603,438.8010811000131,439.89730309997685,439.89730309997685,439.89730309997685,z,0.854672999936156,None,,,,,,,,CS_th,001,2025-03-07_12h36.40.965,MainFlow,2024.2.4,134.62247826376202,2025-03-07 12h36.52.491171 +0700,
1,16,0,word/wordth0161.png,image/False/imgf16.png,123,123,0,x,0.7425092000048608,None,0,123,123,123,440.76532970007975,,,,,,,442.2513153000036,441.75217810005415,441.756140600075,441.756140600075,442.2513153000036,442.2513153000036,442.2445963000646,443.35283119999804,443.35283119999804,443.35283119999804,x,0.7425092000048608,None,,,,,,,,CS_th,001,2025-03-07_12h36.40.965,MainFlow,2024.2.4,134.62247826376202,2025-03-07 12h36.52.491171 +0700,
1,15,0,word/wordth0151.png,image/False/imgf15.png,124,124,0,x,0.513732000021264,None,0,124,124,124,444.1027617000509,,,,,,,445.5887197999982,445.0899122999981,445.0940121000167,445.0940121000167,445.5887197999982,445.5887197999982,445.5820962000871,446.67459000006784,446.67459000006784,446.67459000006784,x,0.513732000021264,None,,,,,,,,CS_th,001,2025-03-07_12h36.40.965,MainFlow,2024.2.4,134.62247826376202,2025-03-07 12h36.52.491171 +0700,
1,59,0,word/wordth0591.png,image/False/imgf59.png,125,125,0,x,0.4208199999993667,None,0,125,125,125,447.1955990000861,,,,,,,448.68167670001276,448.1826471000677,448.1872876000125,448.1872876000125,448.68167670001276,448.68167670001276,448.6749813000206,449.7504415999865,449.7504415999865,449.7504415999865,x,0.4208199999993667,None,,,,,,,,CS_th,001,2025-03-07_12h36.40.965,MainFlow,2024.2.4,134.62247826376202,2025-03-07 12h36.52.491171 +0700,
1,11,0,word/wordth0111.png,image/False/imgf11.png,126,126,0,x,0.8602829000446945,None,0,126,126,126,450.1797436000779,,,,,,,451.66615880001336,451.1673043000046,451.17111860006116,451.17111860006116,451.66615880001336,451.66615880001336,451.6595275000436,452.76823440007865,452.76823440007865,452.76823440007865,x,0.8602829000446945,None,,,,,,,,CS_th,001,2025-03-07_12h36.40.965,MainFlow,2024.2.4,134.62247826376202,2025-03-07 12h36.52.491171 +0700,
1,75,1,word/wordth0751.png,image/True/img75.png,127,127,0,z,0.7417738999938592,None,0,127,127,127,453.6418941000011,,,,,,,455.1287922000047,454.6298354000319,454.6337639000267,454.6337639000267,455.1287922000047,455.1287922000047,455.1220899000764,456.2150159999728,456.2150159999728,456.2150159999728,z,0.7417738999938592,None,,,,,,,,CS_th,001,2025-03-07_12h36.40.965,MainFlow,2024.2.4,134.62247826376202,2025-03-07 12h36.52.491171 +0700,
1,33,1,word/wordth0331.png,image/True/img33.png,128,128,0,z,0.4526266000466421,None,0,128,128,128,456.9645807000343,,,,,,,458.4511300000595,457.95207830006257,457.9561954999808,457.9561954999808,458.4511300000595,458.4511300000595,458.4444279000163,459.5422100999858,459.5422100999858,459.5422100999858,z,0.4526266000466421,None,,,,,,,,CS_th,001,2025-03-07_12h36.40.965,MainFlow,2024.2.4,134.62247826376202,2025-03-07 12h36.52.491171 +0700,
1,66,0,word/wordth0661.png,image/False/imgf66.png,129,129,0,x,0.5163582999957725,None,0,129,129,129,460.00671310001053,,,,,,,461.493141700048,460.99412030004896,460.9979703000281,460.9979703000281,461.493141700048,461.493141700048,461.48639890004415,462.58604790002573,462.58604790002573,462.58604790002573,x,0.5163582999957725,None,,,,,,,,CS_th,001,2025-03-07_12h36.40.965,MainFlow,2024.2.4,134.62247826376202,2025-03-07 12h36.52.491171 +0700,
1,38,1,word/wordth0381.png,image/True/img38.png,130,130,0,z,0.7513374000554904,None,0,130,130,130,463.11028530006297,,,,,,,464.59625950001646,464.0978126000846,464.1018261000281,464.1018261000281,464.59625950001646,464.59625950001646,464.5895674000494,465.6791261000326,465.6791261000326,465.6791261000326,z,0.7513374000554904,None,,,,,,,,CS_th,001,2025-03-07_12h36.40.965,MainFlow,2024.2.4,134.62247826376202,2025-03-07 12h36.52.491171 +0700,
1,38,1,word/wordth0381.png,image/True/img38.png,131,131,0,z,0.6310137999244034,None,0,131,131,131,466.43886700004805,,,,,,,467.9253384000622,467.426234500017,467.43042340001557,467.43042340001557,467.9253384000622,467.9253384000622,467.9186300999718,469.00743130000774,469.00743130000774,469.00743130000774,z,0.6310137999244034,None,,,,,,,,CS_th,001,2025-03-07_12h36.40.965,MainFlow,2024.2.4,134.62247826376202,2025-03-07 12h36.52.491171 +0700,
1,63,1,word/wordth0631.png,image/True/img63.png,132,132,0,z,0.37184729997534305,None,0,132,132,132,469.64966790005565,,,,,,,471.13572440005373,470.6367470000405,470.64112290006597,470.64112290006597,471.13572440005373,471.13572440005373,471.1290353999939,472.22854679997545,472.22854679997545,472.22854679997545,z,0.37184729997534305,None,,,,,,,,CS_th,001,2025-03-07_12h36.40.965,MainFlow,2024.2.4,134.62247826376202,2025-03-07 12h36.52.491171 +0700,
1,33,0,word/wordth0331.png,image/False/imgf33.png,133,133,0,x,1.257609400083311,None,0,133,133,133,472.60728780005593,,,,,,,474.0934227000689,473.5942936000647,473.5982770000119,473.5982770000119,474.0934227000689,474.0934227000689,474.0866443000268,475.19041699997615,475.19041699997615,475.19041699997615,x,1.257609400083311,None,,,,,,,,CS_th,001,2025-03-07_12h36.40.965,MainFlow,2024.2.4,134.62247826376202,2025-03-07 12h36.52.491171 +0700,
1,52,1,word/wordth0521.png,image/True/img52.png,134,134,0,z,0.5996961999917403,None,0,134,134,134,476.4609214999946,,,,,,,477.94683240004815,477.448364000069,477.45246619998943,477.45246619998943,477.94683240004815,477.94683240004815,477.9407916000346,479.0458813000005,479.0458813000005,479.0458813000005,z,0.5996961999917403,None,,,,,,,,CS_th,001,2025-03-07_12h36.40.965,MainFlow,2024.2.4,134.62247826376202,2025-03-07 12h36.52.491171 +0700,
1,11,0,word/wordth0111.png,image/False/imgf11.png,135,135,0,x,1.0361855999799445,None,0,135,135,135,479.6567050999729,,,,,,,481.1426964000566,480.6435136999935,480.6474278999958,480.6474278999958,481.1426964000566,481.1426964000566,481.1360233000014,482.24775700003374,482.24775700003374,482.24775700003374,x,1.0361855999799445,None,,,,,,,,CS_th,001,2025-03-07_12h36.40.965,MainFlow,2024.2.4,134.62247826376202,2025-03-07 12h36.52.491171 +0700,
1,1,0,word/wordth0011.png,image/False/imgf01.png,136,136,0,x,1.569821699988097,None,0,136,136,136,483.2929175000172,,,,,,,484.77888690005057,484.2796066000592,484.28354580001906,484.28354580001906,484.77888690005057,484.77888690005057,484.77223980007693,485.8605493999785,485.8605493999785,485.8605493999785,x,1.569821699988097,None,,,,,,,,CS_th,001,2025-03-07_12h36.40.965,MainFlow,2024.2.4,134.62247826376202,2025-03-07 12h36.52.491171 +0700,
1,96,0,word/wordth0961.png,image/False/imgf96.png,137,137,0,x,1.13681669998914,None,0,137,137,137,487.44101990002673,,,,,,,488.92686290002894,488.428069400019,488.43231940001715,488.43231940001715,488.92686290002894,488.92686290002894,488.9207719999831,490.0217238999903,490.0217238999903,490.0217238999903,x,1.13681669998914,None,,,,,,,,CS_th,001,2025-03-07_12h36.40.965,MainFlow,2024.2.4,134.62247826376202,2025-03-07 12h36.52.491171 +0700,
1,57,1,word/wordth0571.png,image/True/img57.png,138,138,0,z,0.705702600069344,None,0,138,138,138,491.16961490001995,,,,,,,492.65577920002397,492.1570905999979,492.16135840001516,492.16135840001516,492.65577920002397,492.65577920002397,492.64908240002114,493.74999110004865,493.74999110004865,493.74999110004865,z,0.705702600069344,None,,,,,,,,CS_th,001,2025-03-07_12h36.40.965,MainFlow,2024.2.4,134.62247826376202,2025-03-07 12h36.52.491171 +0700,
1,30,1,word/wordth0301.png,image/True/img30.png,139,139,0,z,2.0036736000329256,None,0,139,139,139,494.4673971000593,,,,,,,495.95388140005525,495.45546790002845,495.4597697000718,495.4597697000718,495.95388140005525,495.95388140005525,495.94725149997976,497.03400530002546,497.03400530002546,497.03400530002546,z,2.0036736000329256,None,,,,,,,,CS_th,001,2025-03-07_12h36.40.965,MainFlow,2024.2.4,134.62247826376202,2025-03-07 12h36.52.491171 +0700,
1,41,1,word/wordth0411.png,image/True/img41.png,140,140,0,z,1.3284881999716163,None,0,140,140,140,499.0460994000314,,,,,,,500.53200070001185,500.03285890002735,500.0372575999936,500.0372575999936,500.53200070001185,500.53200070001185,500.52525780000724,501.63181629998144,501.63181629998144,501.63181629998144,z,1.3284881999716163,None,,,,,,,,CS_th,001,2025-03-07_12h36.40.965,MainFlow,2024.2.4,134.62247826376202,2025-03-07 12h36.52.491171 +0700,
1,50,1,word/wordth0501.png,image/True/img50.png,141,141,0,z,1.1467856999952346,None,0,141,141,141,502.9715818000259,,,,,,,504.4575748000061,503.9586559999734,503.96272329997737,503.96272329997737,504.4575748000061,504.4575748000061,504.45085250004195,505.5513924000552,505.5513924000552,505.5513924000552,z,1.1467856999952346,None,,,,,,,,CS_th,001,2025-03-07_12h36.40.965,MainFlow,2024.2.4,134.62247826376202,2025-03-07 12h36.52.491171 +0700,
1,3,0,word/wordth0031.png,image/False/imgf03.png,142,142,0,x,0.7696382000576705,None,0,142,142,142,506.70681070000865,,,,,,,508.1933821000857,507.694053000072,507.69810689997394,507.69810689997394,508.1933821000857,508.1933821000857,508.1866917000152,509.28026799997315,509.28026799997315,509.28026799997315,x,0.7696382000576705,None,,,,,,,,CS_th,001,2025-03-07_12h36.40.965,MainFlow,2024.2.4,134.62247826376202,2025-03-07 12h36.52.491171 +0700,
1,78,1,word/wordth0781.png,image/True/img78.png,143,143,0,z,1.3969957999652252,None,0,143,143,143,510.0572963000741,,,,,,,511.54440560005605,511.0448560999939,511.04902769997716,511.04902769997716,511.54440560005605,511.54440560005605,511.53716329997405,512.6307865000563,512.6307865000563,512.6307865000563,z,1.3969957999652252,None,,,,,,,,CS_th,001,2025-03-07_12h36.40.965,MainFlow,2024.2.4,134.62247826376202,2025-03-07 12h36.52.491171 +0700,
1,76,0,word/wordth0761.png,image/False/imgf76.png,144,144,0,x,1.2021849999437109,None,0,144,144,144,514.0399301000871,,,,,,,515.5264850000385,515.0280434000306,515.0324082999723,515.0324082999723,515.5264850000385,515.5264850000385,515.5199046999915,516.6333849000512,516.6333849000512,516.6333849000512,x,1.2021849999437109,None,,,,,,,,CS_th,001,2025-03-07_12h36.40.965,MainFlow,2024.2.4,134.62247826376202,2025-03-07 12h36.52.491171 +0700,
1,6,1,word/wordth0061.png,image/True/img06.png,145,145,0,z,0.5325530000263825,None,0,145,145,145,517.8491825000383,,,,,,,519.3350388000254,518.8364822000731,518.840495100012,518.840495100012,519.3350388000254,519.3350388000254,519.328325200011,520.431110000005,520.431110000005,520.431110000005,z,0.5325530000263825,None,,,,,,,,CS_th,001,2025-03-07_12h36.40.965,MainFlow,2024.2.4,134.62247826376202,2025-03-07 12h36.52.491171 +0700,
1,31,0,word/wordth0311.png,image/False/imgf31.png,146,146,0,x,1.3675172999501228,None,0,146,146,146,520.9735451000743,,,,,,,522.4599519000622,521.9614534000866,521.9655796000734,521.9655796000734,522.4599519000622,522.4599519000622,522.4536039000377,523.5379737999756,523.5379737999756,523.5379737999756,x,1.3675172999501228,None,,,,,,,,CS_th,001,2025-03-07_12h36.40.965,MainFlow,2024.2.4,134.62247826376202,2025-03-07 12h36.52.491171 +0700,
1,22,0,word/wordth0221.png,image/False/imgf22.png,147,147,0,x,0.7869718999136239,None,0,147,147,147,524.9133870999794,,,,,,,526.3993303000461,525.9012354000006,525.9053241000511,525.9053241000511,526.3993303000461,526.3993303000461,526.3926228000782,527.510755400057,527.510755400057,527.510755400057,x,0.7869718999136239,None,,,,,,,,CS_th,001,2025-03-07_12h36.40.965,MainFlow,2024.2.4,134.62247826376202,2025-03-07 12h36.52.491171 +0700,
1,28,0,word/wordth0281.png,image/False/imgf28.png,148,148,0,x,0.9894831000128761,None,0,148,148,148,528.309005600051,,,,,,,529.7949916999787,529.2964574000798,529.3004132000497,529.3004132000497,529.7949916999787,529.7949916999787,529.7882898000535,530.8930256000021,530.8930256000021,530.8930256000021,x,0.9894831000128761,None,,,,,,,,CS_th,001,2025-03-07_12h36.40.965,MainFlow,2024.2.4,134.62247826376202,2025-03-07 12h36.52.491171 +0700,
1,57,0,word/wordth0571.png,image/False/imgf57.png,149,149,0,x,1.0982180999126285,None,0,149,149,149,531.8927826000145,,,,,,,533.378611800028,532.8801691000117,532.8843119000085,532.8843119000085,533.378611800028,533.378611800028,533.3719407999888,534.4807773000794,534.4807773000794,534.4807773000794,x,1.0982180999126285,None,,,,,,,,CS_th,001,2025-03-07_12h36.40.965,MainFlow,2024.2.4,134.62247826376202,2025-03-07 12h36.52.491171 +0700,
1,7,0,word/wordth0071.png,image/False/imgf07.png,150,150,0,x,0.8042205000529066,None,0,150,150,150,535.5911243000301,,,,,,,537.0770216999808,536.5784721000819,536.5826158000855,536.5826158000855,537.0770216999808,537.0770216999808,537.0703356000595,538.1711665000767,538.1711665000767,538.1711665000767,x,0.8042205000529066,None,,,,,,,,CS_th,001,2025-03-07_12h36.40.965,MainFlow,2024.2.4,134.62247826376202,2025-03-07 12h36.52.491171 +0700,
1,56,1,word/wordth0561.png,image/True/img56.png,151,151,0,z,0.8651680999901146,None,0,151,151,151,538.986413900042,,,,,,,540.4723287000088,539.9741042000242,539.9781308000674,539.9781308000674,540.4723287000088,540.4723287000088,540.465648900019,541.5630299000768,541.5630299000768,541.5630299000768,z,0.8651680999901146,None,,,,,,,,CS_th,001,2025-03-07_12h36.40.965,MainFlow,2024.2.4,134.62247826376202,2025-03-07 12h36.52.491171 +0700,
1,6,0,word/wordth0061.png,image/False/imgf06.png,152,152,0,x,1.1738624999998137,None,0,152,152,152,542.4373320000013,,,,,,,543.9238736000843,543.4250652000774,543.4295646999963,543.4295646999963,543.9238736000843,543.9238736000843,543.9172085999744,545.0078824000666,545.0078824000666,545.0078824000666,x,1.1738624999998137,None,,,,,,,,CS_th,001,2025-03-07_12h36.40.965,MainFlow,2024.2.4,134.62247826376202,2025-03-07 12h36.52.491171 +0700,
1,36,0,word/wordth0361.png,image/False/imgf36.png,153,153,0,x,2.408674899954349,None,0,153,153,153,546.1902455000672,,,,,,,547.6770128000062,547.1783827000763,547.1830928000854,547.1830928000854,547.6770128000062,547.6770128000062,547.6703252000734,548.7692733000731,548.7692733000731,548.7692733000731,x,2.408674899954349,None,,,,,,,,CS_th,001,2025-03-07_12h36.40.965,MainFlow,2024.2.4,134.62247826376202,2025-03-07 12h36.52.491171 +0700,
1,79,1,word/wordth0791.png,image/True/img79.png,154,154,0,z,0.6128030000254512,None,0,154,154,154,551.1898348000832,,,,,,,552.6758524000179,552.1770619000308,552.1814323000144,552.1814323000144,552.6758524000179,552.6758524000179,552.6700606000377,553.7675403000321,553.7675403000321,553.7675403000321,z,0.6128030000254512,None,,,,,,,,CS_th,001,2025-03-07_12h36.40.965,MainFlow,2024.2.4,134.62247826376202,2025-03-07 12h36.52.491171 +0700,
1,52,0,word/wordth0521.png,image/False/imgf52.png,155,155,0,x,1.514409099938348,None,0,155,155,155,554.3918728000717,,,,,,,555.8778731999919,555.3788077000063,555.3827020999743,555.3827020999743,555.8778731999919,555.8778731999919,555.8711108000716,556.9576904000714,556.9576904000714,556.9576904000714,x,1.514409099938348,None,,,,,,,,CS_th,001,2025-03-07_12h36.40.965,MainFlow,2024.2.4,134.62247826376202,2025-03-07 12h36.52.491171 +0700,
1,18,0,word/wordth0181.png,image/False/imgf18.png,156,156,0,x,1.0092356000095606,None,0,156,156,156,558.485820800066,,,,,,,559.9718245000113,559.4727075999836,559.4764973000856,559.4764973000856,559.9718245000113,559.9718245000113,559.965120100067,561.0555502000498,561.0555502000498,561.0555502000498,x,1.0092356000095606,None,,,,,,,,CS_th,001,2025-03-07_12h36.40.965,MainFlow,2024.2.4,134.62247826376202,2025-03-07 12h36.52.491171 +0700,
1,23,1,word/wordth0231.png,image/True/img23.png,157,157,0,z,0.8501469000475481,None,0,157,157,157,562.0716014000354,,,,,,,563.5576187000843,563.0586328000063,563.0631386999739,563.0631386999739,563.5576187000843,563.5576187000843,563.5509293000214,564.6474325000308,564.6474325000308,564.6474325000308,z,0.8501469000475481,None,,,,,,,,CS_th,001,2025-03-07_12h36.40.965,MainFlow,2024.2.4,134.62247826376202,2025-03-07 12h36.52.491171 +0700,
1,61,1,word/wordth0611.png,image/True/img61.png,158,158,0,z,0.550812300061807,None,0,158,158,158,565.5083860000595,,,,,,,566.9943488000426,566.4956384000834,566.499639900052,566.499639900052,566.9943488000426,566.9943488000426,566.9876711000688,568.084331799997,568.084331799997,568.084331799997,z,0.550812300061807,None,,,,,,,,CS_th,001,2025-03-07_12h36.40.965,MainFlow,2024.2.4,134.62247826376202,2025-03-07 12h36.52.491171 +0700,
1,44,1,word/wordth0441.png,image/True/img44.png,159,159,0,z,1.0942767999367788,None,0,159,159,159,568.6465020000469,,,,,,,570.1330347000621,569.633834599983,569.6379558000481,569.6379558000481,570.1330347000621,570.1330347000621,570.1263312000083,571.213481200044,571.213481200044,571.213481200044,z,1.0942767999367788,None,,,,,,,,CS_th,001,2025-03-07_12h36.40.965,MainFlow,2024.2.4,134.62247826376202,2025-03-07 12h36.52.491171 +0700,
1,10,1,word/wordth0101.png,image/True/img10.png,160,160,0,z,0.5106322000501677,None,0,160,160,160,572.3154500999954,,,,,,,573.8012965000235,573.3022228999762,573.3061283000279,573.3061283000279,573.8012965000235,573.8012965000235,573.7946194000542,574.8851262000389,574.8851262000389,574.8851262000389,z,0.5106322000501677,None,,,,,,,,CS_th,001,2025-03-07_12h36.40.965,MainFlow,2024.2.4,134.62247826376202,2025-03-07 12h36.52.491171 +0700,
1,31,1,word/wordth0311.png,image/True/img31.png,161,161,0,z,0.9238919999916106,None,0,161,161,161,575.4082559000235,,,,,,,576.8942805000115,576.3951836000197,576.3989851999795,576.3989851999795,576.8942805000115,576.8942805000115,576.8875837000087,577.9741193000227,577.9741193000227,577.9741193000227,z,0.9238919999916106,None,,,,,,,,CS_th,001,2025-03-07_12h36.40.965,MainFlow,2024.2.4,134.62247826376202,2025-03-07 12h36.52.491171 +0700,
1,14,0,word/wordth0141.png,image/False/imgf14.png,162,162,0,z,1.4661887000547722,None,0,162,162,162,578.9050184000516,,,,,,,580.3909218000481,579.8918635000009,579.8957183000166,579.8957183000166,580.3909218000481,580.3909218000481,580.3843229999766,581.4797352000605,581.4797352000605,581.4797352000605,z,1.4661887000547722,None,,,,,,,,CS_th,001,2025-03-07_12h36.40.965,MainFlow,2024.2.4,134.62247826376202,2025-03-07 12h36.52.491171 +0700,
1,15,0,word/wordth0151.png,image/False/imgf15.png,163,163,0,x,0.6379221000242978,None,0,163,163,163,582.9587567000417,,,,,,,584.4446572000161,583.9457018000539,583.9499112999765,583.9499112999765,584.4446572000161,584.4446572000161,584.4378910000669,585.5314344000071,585.5314344000071,585.5314344000071,x,0.6379221000242978,None,,,,,,,,CS_th,001,2025-03-07_12h36.40.965,MainFlow,2024.2.4,134.62247826376202,2025-03-07 12h36.52.491171 +0700,
1,51,1,word/wordth0511.png,image/True/img51.png,164,164,0,z,0.6088864000048488,None,0,164,164,164,586.1769706000341,,,,,,,587.6628330000676,587.1639438000275,587.168111099978,587.168111099978,587.6628330000676,587.6628330000676,587.6560659999959,588.7528625000268,588.7528625000268,588.7528625000268,z,0.6088864000048488,None,,,,,,,,CS_th,001,2025-03-07_12h36.40.965,MainFlow,2024.2.4,134.62247826376202,2025-03-07 12h36.52.491171 +0700,
1,82,1,word/wordth0821.png,image/True/img82.png,165,165,0,z,0.6607658000430092,None,0,165,165,165,589.3709528000327,,,,,,,590.8568859000225,590.3576318999985,590.3617688000668,590.3617688000668,590.8568859000225,590.8568859000225,590.8502288999734,591.9230211999966,591.9230211999966,591.9230211999966,z,0.6607658000430092,None,,,,,,,,CS_th,001,2025-03-07_12h36.40.965,MainFlow,2024.2.4,134.62247826376202,2025-03-07 12h36.52.491171 +0700,
1,27,0,word/wordth0271.png,image/False/imgf27.png,166,166,0,x,0.813953600008972,None,0,166,166,166,592.5970529000042,,,,,,,594.0829655000707,593.5836607000092,593.5877755000256,593.5877755000256,594.0829655000707,594.0829655000707,594.0763066000072,595.1678989999928,595.1678989999928,595.1678989999928,x,0.813953600008972,None,,,,,,,,CS_th,001,2025-03-07_12h36.40.965,MainFlow,2024.2.4,134.62247826376202,2025-03-07 12h36.52.491171 +0700,
1,78,0,word/wordth0781.png,image/False/imgf78.png,167,167,0,x,0.694760899990797,None,0,167,167,167,595.9955930999713,,,,,,,597.481550800032,596.9824875000631,596.9865948000224,596.9865948000224,597.481550800032,597.481550800032,597.474879299989,598.5545615999727,598.5545615999727,598.5545615999727,x,0.694760899990797,None,,,,,,,,CS_th,001,2025-03-07_12h36.40.965,MainFlow,2024.2.4,134.62247826376202,2025-03-07 12h36.52.491171 +0700,
1,89,1,word/wordth0891.png,image/True/img89.png,168,168,0,z,0.5668142000213265,None,0,168,168,168,599.2579557000427,,,,,,,600.7439513000427,600.2454687000718,600.2497255000053,600.2497255000053,600.7439513000427,600.7439513000427,600.7372337999986,601.8158794000046,601.8158794000046,601.8158794000046,z,0.5668142000213265,None,,,,,,,,CS_th,001,2025-03-07_12h36.40.965,MainFlow,2024.2.4,134.62247826376202,2025-03-07 12h36.52.491171 +0700,
1,76,1,word/wordth0761.png,image/True/img76.png,169,169,0,z,0.5270859999582171,None,0,169,169,169,602.395733900019,,,,,,,603.8816852000309,603.3829343999969,603.3870911999838,603.3870911999838,603.8816852000309,603.8816852000309,603.8749746000394,604.9685980000068,604.9685980000068,604.9685980000068,z,0.5270859999582171,None,,,,,,,,CS_th,001,2025-03-07_12h36.40.965,MainFlow,2024.2.4,134.62247826376202,2025-03-07 12h36.52.491171 +0700,
1,17,0,word/wordth0171.png,image/False/imgf17.png,170,170,0,x,1.3088606999954209,None,0,170,170,170,605.5030972000677,,,,,,,606.9888596000383,606.489646299975,606.4936232999898,606.4936232999898,606.9888596000383,606.9888596000383,606.9821922000265,608.0887752000708,608.0887752000708,608.0887752000708,x,1.3088606999954209,None,,,,,,,,CS_th,001,2025-03-07_12h36.40.965,MainFlow,2024.2.4,134.62247826376202,2025-03-07 12h36.52.491171 +0700,
1,95,1,word/wordth0951.png,image/True/img95.png,171,171,0,z,0.44160380004905164,None,0,171,171,171,609.4081229000585,,,,,,,610.8940964000067,610.3952046000632,610.399039800046,610.399039800046,610.8940964000067,610.8940964000067,610.8874093000777,611.9982324000448,611.9982324000448,611.9982324000448,z,0.44160380004905164,None,,,,,,,,CS_th,001,2025-03-07_12h36.40.965,MainFlow,2024.2.4,134.62247826376202,2025-03-07 12h36.52.491171 +0700,
1,61,0,word/wordth0611.png,image/False/imgf61.png,172,172,0,x,0.926079299999401,None,0,172,172,172,612.447057500016,,,,,,,613.9331393999746,613.4341747000581,613.4383453000337,613.4383453000337,613.9331393999746,613.9331393999746,613.9264293999877,615.0312417000532,615.0312417000532,615.0312417000532,x,0.926079299999401,None,,,,,,,,CS_th,001,2025-03-07_12h36.40.965,MainFlow,2024.2.4,134.62247826376202,2025-03-07 12h36.52.491171 +0700,
1,82,1,word/wordth0821.png,image/True/img82.png,173,173,0,z,0.5993447999935597,None,0,173,173,173,615.9679803000763,,,,,,,617.4538566999836,616.9546182000777,616.9584846000653,616.9584846000653,617.4538566999836,617.4538566999836,617.4471382000484,618.5165302000241,618.5165302000241,618.5165302000241,z,0.5993447999935597,None,,,,,,,,CS_th,001,2025-03-07_12h36.40.965,MainFlow,2024.2.4,134.62247826376202,2025-03-07 12h36.52.491171 +0700,
1,14,1,word/wordth0141.png,image/True/img14.png,174,174,0,z,0.356103099999018,None,0,174,174,174,619.1226402000757,,,,,,,620.6088272000197,620.1102787000127,620.1147303000325,620.1147303000325,620.6088272000197,620.6088272000197,620.6022545000305,621.6976582000498,621.6976582000498,621.6976582000498,z,0.356103099999018,None,,,,,,,,CS_th,001,2025-03-07_12h36.40.965,MainFlow,2024.2.4,134.62247826376202,2025-03-07 12h36.52.491171 +0700,
1,38,0,word/wordth0381.png,image/False/imgf38.png,175,175,0,x,0.6117801000364125,None,0,175,175,175,622.0656832000241,,,,,,,623.5515437000431,623.0528647999745,623.0569248000393,623.0569248000393,623.5515437000431,623.5515437000431,623.5449695000425,624.6593782000709,624.6593782000709,624.6593782000709,x,0.6117801000364125,None,,,,,,,,CS_th,001,2025-03-07_12h36.40.965,MainFlow,2024.2.4,134.62247826376202,2025-03-07 12h36.52.491171 +0700,
1,17,0,word/wordth0171.png,image/False/imgf17.png,176,176,0,x,0.5403327000094578,None,0,176,176,176,625.2844292999944,,,,,,,626.7705587000819,626.2714228000259,626.275595300016,626.275595300016,626.7705587000819,626.7705587000819,626.7638574000448,627.8645699999761,627.8645699999761,627.8645699999761,x,0.5403327000094578,None,,,,,,,,CS_th,001,2025-03-07_12h36.40.965,MainFlow,2024.2.4,134.62247826376202,2025-03-07 12h36.52.491171 +0700,
1,42,0,word/wordth0421.png,image/False/imgf42.png,177,177,0,x,0.4848807000089437,None,0,177,177,177,628.4157443000004,,,,,,,629.9016767999856,629.4031518000411,629.4070101000834,629.4070101000834,629.9016767999856,629.9016767999856,629.8949779000832,631.0026780000189,631.0026780000189,631.0026780000189,x,0.4848807000089437,None,,,,,,,,CS_th,001,2025-03-07_12h36.40.965,MainFlow,2024.2.4,134.62247826376202,2025-03-07 12h36.52.491171 +0700,
1,24,1,word/wordth0241.png,image/True/img24.png,178,178,0,z,0.6444767999928445,None,0,178,178,178,631.4955391000258,,,,,,,632.9814566000132,632.4826505000237,632.4867733999854,632.4867733999854,632.9814566000132,632.9814566000132,632.9747564999852,634.0458071000176,634.0458071000176,634.0458071000176,z,0.6444767999928445,None,,,,,,,,CS_th,001,2025-03-07_12h36.40.965,MainFlow,2024.2.4,134.62247826376202,2025-03-07 12h36.52.491171 +0700,
1,51,1,word/wordth0511.png,image/True/img51.png,179,179,0,z,0.3616962000960484,None,0,179,179,179,634.6988806000445,,,,,,,636.1849401000654,635.6861612000503,635.6901573999785,635.6901573999785,636.1849401000654,636.1849401000654,636.1786744000856,637.2764769999776,637.2764769999776,637.2764769999776,z,0.3616962000960484,None,,,,,,,,CS_th,001,2025-03-07_12h36.40.965,MainFlow,2024.2.4,134.62247826376202,2025-03-07 12h36.52.491171 +0700,
1,24,0,word/wordth0241.png,image/False/imgf24.png,180,180,0,x,1.0904839999275282,None,0,180,180,180,637.6505992000457,,,,,,,639.1374827000545,638.6382727000164,638.6438157000812,638.6438157000812,639.1374827000545,639.1374827000545,639.1313420999795,640.2202834000345,640.2202834000345,640.2202834000345,x,1.0904839999275282,None,,,,,,,,CS_th,001,2025-03-07_12h36.40.965,MainFlow,2024.2.4,134.62247826376202,2025-03-07 12h36.52.491171 +0700,
1,23,0,word/wordth0231.png,image/False/imgf23.png,181,181,0,x,0.9561634999699891,None,0,181,181,181,641.3206244000467,,,,,,,642.8065007000696,642.307397800032,642.3116996000754,642.3116996000754,642.8065007000696,642.8065007000696,642.8003470000112,643.9173387000337,643.9173387000337,643.9173387000337,x,0.9561634999699891,None,,,,,,,,CS_th,001,2025-03-07_12h36.40.965,MainFlow,2024.2.4,134.62247826376202,2025-03-07 12h36.52.491171 +0700,
1,6,1,word/wordth0061.png,image/True/img06.png,182,182,0,z,0.9365367999998853,None,0,182,182,182,644.8821911000414,,,,,,,646.3681890000589,645.8690294000553,645.8729381000157,645.8729381000157,646.3681890000589,646.3681890000589,646.361438699998,647.4449070000555,647.4449070000555,647.4449070000555,z,0.9365367999998853,None,,,,,,,,CS_th,001,2025-03-07_12h36.40.965,MainFlow,2024.2.4,134.62247826376202,2025-03-07 12h36.52.491171 +0700,
1,93,1,word/wordth0931.png,image/True/img93.png,183,183,0,z,1.025997000047937,None,0,183,183,183,648.3891921000322,,,,,,,649.8756417999975,649.3767874999903,649.3806763000321,649.3806763000321,649.8756417999975,649.8756417999975,649.8689583999803,650.9529302000301,650.9529302000301,650.9529302000301,z,1.025997000047937,None,,,,,,,,CS_th,001,2025-03-07_12h36.40.965,MainFlow,2024.2.4,134.62247826376202,2025-03-07 12h36.52.491171 +0700,
1,38,0,word/wordth0381.png,image/False/imgf38.png,184,184,0,x,0.7232844999525696,None,0,184,184,184,651.9878264999716,,,,,,,653.4739345000125,652.9749458000297,652.979039400001,652.979039400001,653.4739345000125,653.4739345000125,653.4670713000232,654.5828285000753,654.5828285000753,654.5828285000753,x,0.7232844999525696,None,,,,,,,,CS_th,001,2025-03-07_12h36.40.965,MainFlow,2024.2.4,134.62247826376202,2025-03-07 12h36.52.491171 +0700,
1,57,1,word/wordth0571.png,image/True/img57.png,185,185,0,z,0.8556198000442237,None,0,185,185,185,655.3182244000491,,,,,,,656.8042380000697,656.3050590000348,656.3088823000435,656.3088823000435,656.8042380000697,656.8042380000697,656.7975025000051,657.8931715000654,657.8931715000654,657.8931715000654,z,0.8556198000442237,None,,,,,,,,CS_th,001,2025-03-07_12h36.40.965,MainFlow,2024.2.4,134.62247826376202,2025-03-07 12h36.52.491171 +0700,
1,40,1,word/wordth0401.png,image/True/img40.png,186,186,0,z,0.7735683000646532,None,0,186,186,186,658.7609836000483,,,,,,,660.2469334000489,659.7479019999737,659.7521198000759,659.7521198000759,660.2469334000489,660.2469334000489,660.2401835999917,661.3590663999785,661.3590663999785,661.3590663999785,z,0.7735683000646532,None,,,,,,,,CS_th,001,2025-03-07_12h36.40.965,MainFlow,2024.2.4,134.62247826376202,2025-03-07 12h36.52.491171 +0700,
1,50,0,word/wordth0501.png,image/False/imgf50.png,187,187,0,x,1.1715819000964984,None,0,187,187,187,662.1433705000672,,,,,,,663.6293543999782,663.1304355000611,663.1345025000628,663.1345025000628,663.6293543999782,663.6293543999782,663.6226970000425,664.7120998000028,664.7120998000028,664.7120998000028,x,1.1715819000964984,None,,,,,,,,CS_th,001,2025-03-07_12h36.40.965,MainFlow,2024.2.4,134.62247826376202,2025-03-07 12h36.52.491171 +0700,
1,66,0,word/wordth0661.png,image/False/imgf66.png,188,188,0,x,0.7825008999789134,None,0,188,188,188,665.8957379000494,,,,,,,667.3815289000049,666.8830935000442,666.887094900012,666.887094900012,667.3815289000049,667.3815289000049,667.3748170000035,668.4694037999725,668.4694037999725,668.4694037999725,x,0.7825008999789134,None,,,,,,,,CS_th,001,2025-03-07_12h36.40.965,MainFlow,2024.2.4,134.62247826376202,2025-03-07 12h36.52.491171 +0700,
1,44,0,word/wordth0441.png,image/False/imgf44.png,189,189,0,x,0.8708208999596536,None,0,189,189,189,669.260797200026,,,,,,,670.7468468999723,670.2479952999856,670.2519835000858,670.2519835000858,670.7468468999723,670.7468468999723,670.7401278000325,671.8485726000508,671.8485726000508,671.8485726000508,x,0.8708208999596536,None,,,,,,,,CS_th,001,2025-03-07_12h36.40.965,MainFlow,2024.2.4,134.62247826376202,2025-03-07 12h36.52.491171 +0700,
1,75,0,word/wordth0751.png,image/False/imgf75.png,190,190,0,x,0.6379589000716805,None,0,190,190,190,672.7304575999733,,,,,,,674.2163797999965,673.7174465000862,673.7212433000095,673.7212433000095,674.2163797999965,674.2163797999965,674.2097543000709,675.2993401000276,675.2993401000276,675.2993401000276,x,0.6379589000716805,None,,,,,,,,CS_th,001,2025-03-07_12h36.40.965,MainFlow,2024.2.4,134.62247826376202,2025-03-07 12h36.52.491171 +0700,
1,31,0,word/wordth0311.png,image/False/imgf31.png,191,191,0,x,1.7648080999497324,None,0,191,191,191,675.9478061000118,,,,,,,677.4338417000836,676.9346328000538,676.9387472000672,676.9387472000672,677.4338417000836,677.4338417000836,677.4277669000439,678.4944819000084,678.4944819000084,678.4944819000084,x,1.7648080999497324,None,,,,,,,,CS_th,001,2025-03-07_12h36.40.965,MainFlow,2024.2.4,134.62247826376202,2025-03-07 12h36.52.491171 +0700,
1,87,1,word/wordth0871.png,image/True/img87.png,192,192,0,z,1.756558799999766,None,0,192,192,192,680.2690507000079,,,,,,,681.7549800000852,681.2558188000694,681.2601964999922,681.2601964999922,681.7549800000852,681.7549800000852,681.7482427000068,682.8497524000704,682.8497524000704,682.8497524000704,z,1.756558799999766,None,,,,,,,,CS_th,001,2025-03-07_12h36.40.965,MainFlow,2024.2.4,134.62247826376202,2025-03-07 12h36.52.491171 +0700,
1,33,1,word/wordth0331.png,image/True/img33.png,193,193,0,z,2.495691500022076,None,0,193,193,193,684.6155613000738,,,,,,,686.1019960000413,685.6034910000162,685.6076432000846,685.6076432000846,686.1019960000413,686.1019960000413,686.0952663000207,687.1922329000663,687.1922329000663,687.1922329000663,z,2.495691500022076,None,,,,,,,,CS_th,001,2025-03-07_12h36.40.965,MainFlow,2024.2.4,134.62247826376202,2025-03-07 12h36.52.491171 +0700,
1,70,0,word/wordth0701.png,image/False/imgf70.png,194,194,0,x,1.0533571999985725,None,0,194,194,194,689.6992284000153,,,,,,,691.1861118000234,690.6874431000324,690.6925838000607,690.6925838000607,691.1861118000234,691.1861118000234,691.1793354999973,692.2669416000135,692.2669416000135,692.2669416000135,x,1.0533571999985725,None,,,,,,,,CS_th,001,2025-03-07_12h36.40.965,MainFlow,2024.2.4,134.62247826376202,2025-03-07 12h36.52.491171 +0700,
1,27,1,word/wordth0271.png,image/True/img27.png,195,195,0,z,0.6833610000321642,None,0,195,195,195,693.3340596000198,,,,,,,694.8200533000054,694.3207883000141,694.3247626000084,694.3247626000084,694.8200533000054,694.8200533000054,694.8133696999867,695.8999242000282,695.8999242000282,695.8999242000282,z,0.6833610000321642,None,,,,,,,,CS_th,001,2025-03-07_12h36.40.965,MainFlow,2024.2.4,134.62247826376202,2025-03-07 12h36.52.491171 +0700,
1,88,1,word/wordth0881.png,image/True/img88.png,196,196,0,z,1.8423503999365494,None,0,196,196,196,696.5942965000868,,,,,,,698.0802038999973,697.5814470000332,697.5855316000525,697.5855316000525,698.0802038999973,698.0802038999973,698.073466300033,699.1781711999793,699.1781711999793,699.1781711999793,z,1.8423503999365494,None,,,,,,,,CS_th,001,2025-03-07_12h36.40.965,MainFlow,2024.2.4,134.62247826376202,2025-03-07 12h36.52.491171 +0700,
1,87,0,word/wordth0871.png,image/False/imgf87.png,197,197,0,z,1.1667581000365317,None,0,197,197,197,701.0320964000421,,,,,,,702.517755900044,702.0187822000589,702.0230452000396,702.0230452000396,702.517755900044,702.517755900044,702.5110561000183,703.600675499998,703.600675499998,703.600675499998,z,1.1667581000365317,None,,,,,,,,CS_th,001,2025-03-07_12h36.40.965,MainFlow,2024.2.4,134.62247826376202,2025-03-07 12h36.52.491171 +0700,
1,11,1,word/wordth0111.png,image/True/img11.png,198,198,0,z,0.7826475000474602,None,0,198,198,198,704.7770723000867,,,,,,,706.2635574999731,705.7646149999928,705.7685566999717,705.7685566999717,706.2635574999731,706.2635574999731,706.2568582000677,707.3688559000148,707.3688559000148,707.3688559000148,z,0.7826475000474602,None,,,,,,,,CS_th,001,2025-03-07_12h36.40.965,MainFlow,2024.2.4,134.62247826376202,2025-03-07 12h36.52.491171 +0700,
1,61,0,word/wordth0611.png,image/False/imgf61.png,199,199,0,x,1.8335234998958185,None,0,199,199,199,708.162390200072,,,,,,,709.6483502000337,709.1497951999772,709.1537576999981,709.1537576999981,709.6483502000337,709.6483502000337,709.6417030000594,710.7442825000035,710.7442825000035,710.7442825000035,x,1.8335234998958185,None,,,,,,,,CS_th,001,2025-03-07_12h36.40.965,MainFlow,2024.2.4,134.62247826376202,2025-03-07 12h36.52.491171 +0700,
1,15,1,word/wordth0151.png,image/True/img15.png,200,200,0,z,0.8308320000069216,None,0,200,200,200,712.5857678999892,,,,,,,714.0717301000841,713.5727196000516,713.5766144000227,713.5766144000227,714.0717301000841,714.0717301000841,714.065057400032,715.1744560999796,715.1744560999796,715.1744560999796,z,0.8308320000069216,None,,,,,,,,CS_th,001,2025-03-07_12h36.40.965,MainFlow,2024.2.4,134.62247826376202,2025-03-07 12h36.52.491171 +0700,
1,16,0,word/wordth0161.png,image/False/imgf16.png,201,201,0,x,3.5977616999298334,None,0,201,201,201,716.0134515999816,,,,,,,717.4994314999785,717.0005176999839,717.0046398000559,717.0046398000559,717.4994314999785,717.4994314999785,717.4927571000298,718.5932964000385,718.5932964000385,718.5932964000385,x,3.5977616999298334,None,,,,,,,,CS_th,001,2025-03-07_12h36.40.965,MainFlow,2024.2.4,134.62247826376202,2025-03-07 12h36.52.491171 +0700,
1,63,0,word/wordth0631.png,image/False/imgf63.png,202,202,0,x,1.551897499943152,None,0,202,202,202,722.2002035999903,,,,,,,723.6862516000401,723.1876264000311,723.1916498000501,723.1916498000501,723.6862516000401,723.6862516000401,723.6796784000471,724.7801589000737,724.7801589000737,724.7801589000737,x,1.551897499943152,None,,,,,,,,CS_th,001,2025-03-07_12h36.40.965,MainFlow,2024.2.4,134.62247826376202,2025-03-07 12h36.52.491171 +0700,
1,28,1,word/wordth0281.png,image/True/img28.png,203,203,0,z,0.5989801000105217,None,0,203,203,203,726.3453082999913,,,,,,,727.8312196000479,727.3321663000388,727.3360399000812,727.3360399000812,727.8312196000479,727.8312196000479,727.8246464000549,728.9322030000621,728.9322030000621,728.9322030000621,z,0.5989801000105217,None,,,,,,,,CS_th,001,2025-03-07_12h36.40.965,MainFlow,2024.2.4,134.62247826376202,2025-03-07 12h36.52.491171 +0700,
1,89,1,word/wordth0891.png,image/True/img89.png,204,204,0,z,0.7429315999615937,None,0,204,204,204,729.5432629000861,,,,,,,731.0291250000009,730.5303509000223,730.5345667999936,730.5345667999936,731.0291250000009,731.0291250000009,731.0224711999763,732.1000617999816,732.1000617999816,732.1000617999816,z,0.7429315999615937,None,,,,,,,,CS_th,001,2025-03-07_12h36.40.965,MainFlow,2024.2.4,134.62247826376202,2025-03-07 12h36.52.491171 +0700,
1,76,0,word/wordth0761.png,image/False/imgf76.png,205,205,0,x,0.9366742999991402,None,0,205,205,205,732.853913399973,,,,,,,734.3403819000814,733.8420244000154,733.8461620999733,733.8461620999733,734.3403819000814,734.3403819000814,734.33375910006,735.4433943000622,735.4433943000622,735.4433943000622,x,0.9366742999991402,None,,,,,,,,CS_th,001,2025-03-07_12h36.40.965,MainFlow,2024.2.4,134.62247826376202,2025-03-07 12h36.52.491171 +0700,
1,51,0,word/wordth0511.png,image/False/imgf51.png,206,206,0,x,0.7652105999877676,None,0,206,206,206,736.3933167000068,,,,,,,737.8793434000108,737.3802542000776,737.384087900049,737.384087900049,737.8793434000108,737.8793434000108,737.8726273999782,738.9576675000135,738.9576675000135,738.9576675000135,x,0.7652105999877676,None,,,,,,,,CS_th,001,2025-03-07_12h36.40.965,MainFlow,2024.2.4,134.62247826376202,2025-03-07 12h36.52.491171 +0700,
1,26,0,word/wordth0261.png,image/False/imgf26.png,207,207,0,x,0.5631161000346765,None,0,207,207,207,739.7357285000617,,,,,,,741.2217404000694,740.7228171000024,740.7266550000058,740.7266550000058,741.2217404000694,741.2217404000694,741.2150309000863,742.3227370000677,742.3227370000677,742.3227370000677,x,0.5631161000346765,None,,,,,,,,CS_th,001,2025-03-07_12h36.40.965,MainFlow,2024.2.4,134.62247826376202,2025-03-07 12h36.52.491171 +0700,
1,16,1,word/wordth0161.png,image/True/img16.png,208,208,0,x,1.3311508999904618,None,0,208,208,208,742.898927400005,,,,,,,744.3848749999888,743.8860738000367,743.8903228000272,743.8903228000272,744.3848749999888,744.3848749999888,744.3781983000226,745.4865521000465,745.4865521000465,745.4865521000465,x,1.3311508999904618,None,,,,,,,,CS_th,001,2025-03-07_12h36.40.965,MainFlow,2024.2.4,134.62247826376202,2025-03-07 12h36.52.491171 +0700,
1,64,1,word/wordth0641.png,image/True/img64.png,209,209,0,z,0.7948450999101624,None,0,209,209,209,746.8265249000397,,,,,,,748.3124536999967,747.8133982999716,747.8171770999907,747.8171770999907,748.3124536999967,748.3124536999967,748.3058461999753,749.3803497999907,749.3803497999907,749.3803497999907,z,0.7948450999101624,None,,,,,,,,CS_th,001,2025-03-07_12h36.40.965,MainFlow,2024.2.4,134.62247826376202,2025-03-07 12h36.52.491171 +0700,
1,7,1,word/wordth0071.png,image/True/img07.png,210,210,0,z,1.478181999991648,None,0,210,210,210,750.1846982000861,,,,,,,751.6706891000504,751.1717830999987,751.1759749000194,751.1759749000194,751.6706891000504,751.6706891000504,751.6639861000003,752.7587508000433,752.7587508000433,752.7587508000433,z,1.478181999991648,None,,,,,,,,CS_th,001,2025-03-07_12h36.40.965,MainFlow,2024.2.4,134.62247826376202,2025-03-07 12h36.52.491171 +0700,
1,10,0,word/wordth0101.png,image/False/imgf10.png,211,211,0,x,4.770563600002788,None,0,211,211,211,754.2446835000301,,,,,,,755.7306579999859,755.2317261000862,755.2358816000633,755.2358816000633,755.7306579999859,755.7306579999859,755.7239951000083,756.816340600024,756.816340600024,756.816340600024,x,4.770563600002788,None,,,,,,,,CS_th,001,2025-03-07_12h36.40.965,MainFlow,2024.2.4,134.62247826376202,2025-03-07 12h36.52.491171 +0700,
1,22,1,word/wordth0221.png,image/True/img22.png,212,212,0,z,0.7791241999948397,None,0,212,212,212,761.5946308000712,,,,,,,763.0806835000403,762.5822438000469,762.5866758000338,762.5866758000338,763.0806835000403,763.0806835000403,763.0739633999765,764.189828600036,764.189828600036,764.189828600036,z,0.7791241999948397,None,,,,,,,,CS_th,001,2025-03-07_12h36.40.965,MainFlow,2024.2.4,134.62247826376202,2025-03-07 12h36.52.491171 +0700,
1,40,1,word/wordth0401.png,image/True/img40.png,213,213,0,z,0.8171385999303311,None,0,213,213,213,764.9810477000428,,,,,,,766.4669775000075,765.9676993000321,765.9715774999931,765.9715774999931,766.4669775000075,766.4669775000075,766.4602172999876,767.5796505999751,767.5796505999751,767.5796505999751,z,0.8171385999303311,None,,,,,,,,CS_th,001,2025-03-07_12h36.40.965,MainFlow,2024.2.4,134.62247826376202,2025-03-07 12h36.52.491171 +0700,
1,57,0,word/wordth0571.png,image/False/imgf57.png,214,214,0,x,1.7403444999363273,None,0,214,214,214,768.4049374000169,,,,,,,769.8914620000869,769.3920095000649,769.3961597000016,769.3961597000016,769.8914620000869,769.8914620000869,769.8848371000495,771.0080325000454,771.0080325000454,771.0080325000454,x,1.7403444999363273,None,,,,,,,,CS_th,001,2025-03-07_12h36.40.965,MainFlow,2024.2.4,134.62247826376202,2025-03-07 12h36.52.491171 +0700,
1,50,1,word/wordth0501.png,image/True/img50.png,215,215,0,z,0.5907350999768823,None,0,215,215,215,772.7610063999891,,,,,,,774.246978500043,773.748085499974,773.7522078000475,773.7522078000475,774.246978500043,774.246978500043,774.240265200031,775.3350698000286,775.3350698000286,775.3350698000286,z,0.5907350999768823,None,,,,,,,,CS_th,001,2025-03-07_12h36.40.965,MainFlow,2024.2.4,134.62247826376202,2025-03-07 12h36.52.491171 +0700,
1,64,0,word/wordth0641.png,image/False/imgf64.png,216,216,0,x,0.745558200054802,None,0,216,216,216,775.9391085000243,,,,,,,777.4251303999918,776.9261319000507,776.9298371999757,776.9298371999757,777.4251303999918,777.4251303999918,777.4184397000354,778.4876721000765,778.4876721000765,778.4876721000765,x,0.745558200054802,None,,,,,,,,CS_th,001,2025-03-07_12h36.40.965,MainFlow,2024.2.4,134.62247826376202,2025-03-07 12h36.52.491171 +0700,
1,42,1,word/wordth0421.png,image/True/img42.png,217,217,0,x,2.629723499994725,None,0,217,217,217,779.2465586999897,,,,,,,780.7325116000138,780.2337135000853,780.2377487000776,780.2377487000776,780.7325116000138,780.7325116000138,780.7257629000815,781.8203693000833,781.8203693000833,781.8203693000833,x,2.629723499994725,None,,,,,,,,CS_th,001,2025-03-07_12h36.40.965,MainFlow,2024.2.4,134.62247826376202,2025-03-07 12h36.52.491171 +0700,
1,56,0,word/wordth0561.png,image/False/imgf56.png,218,218,0,x,0.7707480000099167,None,0,218,218,218,784.4586281999946,,,,,,,785.9452380000148,785.4465343999909,785.4508568000747,785.4508568000747,785.9452380000148,785.9452380000148,785.9385067999829,787.0513794000726,787.0513794000726,787.0513794000726,x,0.7707480000099167,None,,,,,,,,CS_th,001,2025-03-07_12h36.40.965,MainFlow,2024.2.4,134.62247826376202,2025-03-07 12h36.52.491171 +0700,
1,22,1,word/wordth0221.png,image/True/img22.png,219,219,0,z,0.9882657999405637,None,0,219,219,219,787.8301841000794,,,,,,,789.316625699983,788.8176385000115,788.821578299976,788.821578299976,789.316625699983,789.316625699983,789.3099484000122,790.425980900065,790.425980900065,790.425980900065,z,0.9882657999405637,None,,,,,,,,CS_th,001,2025-03-07_12h36.40.965,MainFlow,2024.2.4,134.62247826376202,2025-03-07 12h36.52.491171 +0700,
1,82,0,word/wordth0821.png,image/False/imgf82.png,220,220,0,x,3.207953999983147,None,0,220,220,220,791.4249961000169,,,,,,,792.9125643000007,792.4131423999788,792.4194118999876,792.4194118999876,792.9125643000007,792.9125643000007,792.9058208999922,794.0026126999874,794.0026126999874,794.0026126999874,x,3.207953999983147,None,,,,,,,,CS_th,001,2025-03-07_12h36.40.965,MainFlow,2024.2.4,134.62247826376202,2025-03-07 12h36.52.491171 +0700,
1,54,1,word/wordth0541.png,image/True/img54.png,221,221,0,z,0.49153450003359467,None,0,221,221,221,797.2179342000745,,,,,,,798.7039129000623,798.2049365000566,798.2090768000344,798.2090768000344,798.7039129000623,798.7039129000623,798.6971995000495,799.810919700074,799.810919700074,799.810919700074,z,0.49153450003359467,None,,,,,,,,CS_th,001,2025-03-07_12h36.40.965,MainFlow,2024.2.4,134.62247826376202,2025-03-07 12h36.52.491171 +0700,
1,55,0,word/wordth0551.png,image/False/imgf55.png,222,222,0,x,1.7613583999918774,None,0,222,222,222,800.3115957999835,,,,,,,801.7976752000395,801.2989669999806,801.3030237000203,801.3030237000203,801.7976752000395,801.7976752000395,801.7910136000719,802.8828036000486,802.8828036000486,802.8828036000486,x,1.7613583999918774,None,,,,,,,,CS_th,001,2025-03-07_12h36.40.965,MainFlow,2024.2.4,134.62247826376202,2025-03-07 12h36.52.491171 +0700,
1,48,1,word/wordth0481.png,image/True/img48.png,223,223,0,z,0.708944300073199,None,0,223,223,223,804.6543952000793,,,,,,,806.1408171000658,805.6418742000824,805.6458659999771,805.6458659999771,806.1408171000658,806.1408171000658,806.134168800083,807.2383185999934,807.2383185999934,807.2383185999934,z,0.708944300073199,None,,,,,,,,CS_th,001,2025-03-07_12h36.40.965,MainFlow,2024.2.4,134.62247826376202,2025-03-07 12h36.52.491171 +0700,
