lang,langpair,sequence,pairid,firstdir,seconddir,thisN,thisTrialN,thisRepN,key_resp.keys,key_resp.rt,key_resp.duration,trials.thisRepN,trials.thisTrialN,trials.thisN,trials.thisIndex,thisRow.t,notes,tutorial.started,tutorial.stopped,key_instruct.keys,key_instruct.rt,key_instruct.duration,image_first.started,letterselect.started,instruct.started,key_resp.started,letterselect.stopped,trials.key_resp.keys,trials.key_resp.rt,trials.key_resp.duration,blanknext.started,instruct_2.started,blanknext.stopped,image_first.stopped,ending.started,text_3.started,ending_key.started,ending.stopped,ending_key.keys,ending_key.rt,ending_key.duration,participant,session,date,expName,psychopyVersion,frameRate,expStart,
,,,,,,,,,,,,,,,,,,0.007493600000088918,2.1988082000000304,space,2.145626199999924,None,,,,,,,,,,,,,,,,,,,,GSR_th,001,2025-03-07_11h07.26.425,MainFlow,2024.2.4,141.43571393205298,2025-03-07 11h07.42.080386 +0700,
1,1,2,1,letter/letten092.png,letter/lettth022.png,0,0,0,x,3.4633073999998487,None,0,0,0,0,2.4372203000000354,,,,,,,2.4372203000000354,3.227254500000072,3.23797310000009,3.23797310000009,6.709720300000072,x,3.4633073999998487,None,6.722174900000027,6.732860000000073,6.895082600000023,,,,,,,,,GSR_th,001,2025-03-07_11h07.26.425,MainFlow,2024.2.4,141.43571393205298,2025-03-07 11h07.42.080386 +0700,
1,3,2,8,letter/lettgr153.png,letter/lettth013.png,1,1,0,x,1.1739355999998224,None,0,1,1,1,6.930414000000155,,,,,,,6.930414000000155,7.916097700000137,7.922286700000086,7.922286700000086,9.09882330000005,x,1.1739355999998224,None,9.099034500000016,9.105342100000144,9.284874700000046,,,,,,,,,GSR_th,001,2025-03-07_11h07.26.425,MainFlow,2024.2.4,141.43571393205298,2025-03-07 11h07.42.080386 +0700,
1,1,2,1,letter/letten092.png,letter/lettth022.png,2,2,0,x,0.22825929999999062,None,0,2,2,2,9.306799899999987,,,,,,,9.306799899999987,10.292304300000069,10.297644800000171,10.297644800000171,10.529357000000118,x,0.22825929999999062,None,10.52957420000007,10.536639100000002,10.715126700000155,10.297644800000171,,,,,,,,GSR_th,001,2025-03-07_11h07.26.425,MainFlow,2024.2.4,141.43571393205298,2025-03-07 11h07.42.080386 +0700,
1,2,2,4,letter/lettkh034.png,letter/lettth153.png,3,3,0,x,1.223773299999948,None,0,3,3,3,10.771852600000102,,,,,,,10.771852600000102,11.735463299999992,11.741555400000152,11.741555400000152,12.974619200000006,x,1.223773299999948,None,12.974830099999963,12.982871500000101,13.160274100000152,,,,,,,,,GSR_th,001,2025-03-07_11h07.26.425,MainFlow,2024.2.4,141.43571393205298,2025-03-07 11h07.42.080386 +0700,
1,2,2,4,letter/lettkh034.png,letter/lettth153.png,4,4,0,x,0.20283900000003996,None,0,4,4,4,13.186168599999974,,,,,,,13.186168599999974,14.173746200000096,14.179337000000032,14.179337000000032,14.391264699999965,x,0.20283900000003996,None,14.39148050000017,14.398745200000121,14.57600720000005,14.179337000000032,,,,,,,,GSR_th,001,2025-03-07_11h07.26.425,MainFlow,2024.2.4,141.43571393205298,2025-03-07 11h07.42.080386 +0700,
1,2,1,7,letter/lettth072.png,letter/lettkh033.png,5,5,0,z,0.16197510000006332,None,0,5,5,5,14.629740300000094,,,,,,,14.629740300000094,15.59616700000015,15.602278900000101,15.602278900000101,15.770182500000146,z,0.16197510000006332,None,15.770317800000157,15.77554710000004,15.956655800000135,,,,,,,,,GSR_th,001,2025-03-07_11h07.26.425,MainFlow,2024.2.4,141.43571393205298,2025-03-07 11h07.42.080386 +0700,
1,2,1,2,letter/lettth032.png,letter/lettkh032.png,6,6,0,z,0.6392946000000848,None,0,6,6,6,15.991243700000041,,,,,,,15.991243700000041,16.970918500000153,16.977003100000047,16.977003100000047,17.619409900000164,z,0.6392946000000848,None,17.619626000000153,17.626040600000124,17.804580800000167,,,,,,,,,GSR_th,001,2025-03-07_11h07.26.425,MainFlow,2024.2.4,141.43571393205298,2025-03-07 11h07.42.080386 +0700,
1,3,1,4,letter/lettth024.png,letter/lettgr064.png,7,7,0,z,0.20230689999993956,None,0,7,7,7,17.857201000000032,,,,,,,17.857201000000032,18.824595799999997,18.830730500000072,18.830730500000072,19.042116100000158,z,0.20230689999993956,None,19.042375300000003,19.04807700000015,19.227763399999958,,,,,,,,,GSR_th,001,2025-03-07_11h07.26.425,MainFlow,2024.2.4,141.43571393205298,2025-03-07 11h07.42.080386 +0700,
1,2,1,5,letter/lettth024.png,letter/lettkh023.png,8,8,0,z,0.11605749999989712,None,0,8,8,8,19.251100899999983,,,,,,,19.251100899999983,20.241302099999984,20.24682299999995,20.24682299999995,20.366434000000027,z,0.11605749999989712,None,20.366579,20.37182759999996,20.55332659999999,20.24682299999995,,,,,,,,GSR_th,001,2025-03-07_11h07.26.425,MainFlow,2024.2.4,141.43571393205298,2025-03-07 11h07.42.080386 +0700,
1,1,2,5,letter/letten041.png,letter/lettth152.png,9,9,0,x,0.14690619999987575,None,0,9,9,9,20.56878840000013,,,,,,,20.56878840000013,21.553516400000035,21.55845670000008,21.55845670000008,21.71402050000006,x,0.14690619999987575,None,21.714251600000125,21.718928500000175,21.899903200000153,21.55845670000008,,,,,,,,GSR_th,001,2025-03-07_11h07.26.425,MainFlow,2024.2.4,141.43571393205298,2025-03-07 11h07.42.080386 +0700,
1,2,2,6,letter/lettkh033.png,letter/lettth161.png,10,10,0,x,0.22607059999995727,None,0,10,10,10,21.953038600000127,,,,,,,21.953038600000127,22.920110300000033,22.926305400000047,22.926305400000047,23.158039000000144,x,0.22607059999995727,None,23.158271100000093,23.164272700000083,23.34422059999997,,,,,,,,,GSR_th,001,2025-03-07_11h07.26.425,MainFlow,2024.2.4,141.43571393205298,2025-03-07 11h07.42.080386 +0700,
1,3,2,7,letter/lettgr072.png,letter/lettth025.png,11,11,0,x,0.20549630000004981,None,0,11,11,11,23.398881100000153,,,,,,,23.398881100000153,24.364442499999996,24.370498200000156,24.370498200000156,24.581401700000015,x,0.20549630000004981,None,24.581635900000038,24.587860399999954,24.766688899999963,,,,,,,,,GSR_th,001,2025-03-07_11h07.26.425,MainFlow,2024.2.4,141.43571393205298,2025-03-07 11h07.42.080386 +0700,
1,1,2,2,letter/letten062.png,letter/lettth061.png,12,12,0,x,0.2102605999998559,None,0,12,12,12,24.78123380000011,,,,,,,24.78123380000011,25.767817500000092,25.77278799999999,25.77278799999999,25.990577900000062,x,0.2102605999998559,None,25.990792300000066,25.995469800000137,26.176810899999964,25.77278799999999,,,,,,,,GSR_th,001,2025-03-07_11h07.26.425,MainFlow,2024.2.4,141.43571393205298,2025-03-07 11h07.42.080386 +0700,
1,2,2,8,letter/lettkh031.png,letter/lettth153.png,13,13,0,x,0.27100049999990006,None,0,13,13,13,26.229417900000044,,,,,,,26.229417900000044,27.197146400000065,27.20322320000014,27.20322320000014,27.47733949999997,x,0.27100049999990006,None,27.477594500000123,27.48384380000016,27.663478599999962,,,,,,,,,GSR_th,001,2025-03-07_11h07.26.425,MainFlow,2024.2.4,141.43571393205298,2025-03-07 11h07.42.080386 +0700,
1,2,2,2,letter/lettkh032.png,letter/lettth032.png,14,14,0,x,1.885893200000055,None,0,14,14,14,27.717611600000055,,,,,,,27.717611600000055,28.683046399999967,28.689121399999976,28.689121399999976,30.579954000000043,x,1.885893200000055,None,30.58016970000017,30.586447800000087,30.766486600000007,,,,,,,,,GSR_th,001,2025-03-07_11h07.26.425,MainFlow,2024.2.4,141.43571393205298,2025-03-07 11h07.42.080386 +0700,
1,3,2,1,letter/lettgr143.png,letter/lettth132.png,15,15,0,x,0.18050410000000738,None,0,15,15,15,30.817793000000165,,,,,,,30.817793000000165,31.786419799999976,31.792686200000162,31.792686200000162,31.976442600000155,x,0.18050410000000738,None,31.97671090000017,31.982807200000025,32.16203889999997,,,,,,,,,GSR_th,001,2025-03-07_11h07.26.425,MainFlow,2024.2.4,141.43571393205298,2025-03-07 11h07.42.080386 +0700,
1,3,2,6,letter/lettgr061.png,letter/lettth082.png,16,16,0,x,0.20511899999996785,None,0,16,16,16,32.184476399999994,,,,,,,32.184476399999994,33.169396100000085,33.17443060000005,33.17443060000005,33.38508830000001,x,0.20511899999996785,None,33.385300300000154,33.39078380000001,33.570421500000066,33.17443060000005,,,,,,,,GSR_th,001,2025-03-07_11h07.26.425,MainFlow,2024.2.4,141.43571393205298,2025-03-07 11h07.42.080386 +0700,
1,2,2,6,letter/lettkh033.png,letter/lettth161.png,17,17,0,x,0.2052932999999939,None,0,17,17,17,33.5845647000001,,,,,,,33.5845647000001,34.57167879999997,34.576675499999965,34.576675499999965,34.78720339999995,x,0.2052932999999939,None,34.78741439999999,34.79274220000002,34.973870499999975,34.576675499999965,,,,,,,,GSR_th,001,2025-03-07_11h07.26.425,MainFlow,2024.2.4,141.43571393205298,2025-03-07 11h07.42.080386 +0700,
1,3,1,3,letter/lettth155.png,letter/lettgr153.png,18,18,0,z,0.24730349999981627,None,0,18,18,18,35.02107010000009,,,,,,,35.02107010000009,35.993926800000054,36.00029080000013,36.00029080000013,36.252430300000015,z,0.24730349999981627,None,36.25264200000015,36.25868820000005,36.438999100000046,,,,,,,,,GSR_th,001,2025-03-07_11h07.26.425,MainFlow,2024.2.4,141.43571393205298,2025-03-07 11h07.42.080386 +0700,
1,3,2,1,letter/lettgr143.png,letter/lettth132.png,19,19,0,x,0.18393889999993007,None,0,19,19,19,36.46109730000012,,,,,,,36.46109730000012,37.44642910000016,37.45130250000011,37.45130250000011,37.64106430000015,x,0.18393889999993007,None,37.64127690000009,37.64709549999998,37.82757820000006,37.45130250000011,,,,,,,,GSR_th,001,2025-03-07_11h07.26.425,MainFlow,2024.2.4,141.43571393205298,2025-03-07 11h07.42.080386 +0700,
1,3,1,1,letter/lettth132.png,letter/lettgr143.png,20,20,0,z,0.16658259999985603,None,0,20,20,20,37.85026700000003,,,,,,,37.85026700000003,38.835072699999955,38.839746200000036,38.839746200000036,39.0098117,z,0.16658259999985603,None,39.01003200000014,39.01572690000012,39.19525480000016,38.839746200000036,,,,,,,,GSR_th,001,2025-03-07_11h07.26.425,MainFlow,2024.2.4,141.43571393205298,2025-03-07 11h07.42.080386 +0700,
1,1,2,8,letter/letten031.png,letter/lettth161.png,21,21,0,x,0.19438660000014352,None,0,21,21,21,39.24349419999999,,,,,,,39.24349419999999,40.21550490000004,40.22151750000012,40.22151750000012,40.41927439999995,x,0.19438660000014352,None,40.41948840000009,40.42504740000004,40.60472430000004,,,,,,,,,GSR_th,001,2025-03-07_11h07.26.425,MainFlow,2024.2.4,141.43571393205298,2025-03-07 11h07.42.080386 +0700,
1,1,1,5,letter/lettth152.png,letter/letten041.png,22,22,0,z,0.22922859999994216,None,0,22,22,22,40.6270128000001,,,,,,,40.6270128000001,41.61179489999995,41.61697990000016,41.61697990000016,41.84904849999998,z,0.22922859999994216,None,41.8492619000001,41.854811500000096,42.03501619999997,41.61697990000016,,,,,,,,GSR_th,001,2025-03-07_11h07.26.425,MainFlow,2024.2.4,141.43571393205298,2025-03-07 11h07.42.080386 +0700,
1,1,2,6,letter/letten153.png,letter/lettth024.png,23,23,0,x,0.2342036999998527,None,0,23,23,23,42.0569316000001,,,,,,,42.0569316000001,43.04242780000004,43.04726619999997,43.04726619999997,43.28573580000011,x,0.2342036999998527,None,43.285946200000126,43.29178270000011,43.47212600000012,43.04726619999997,,,,,,,,GSR_th,001,2025-03-07_11h07.26.425,MainFlow,2024.2.4,141.43571393205298,2025-03-07 11h07.42.080386 +0700,
1,1,1,8,letter/lettth161.png,letter/letten031.png,24,24,0,z,0.2291639000000032,None,0,24,24,24,43.53585459999999,,,,,,,43.53585459999999,44.492263300000104,44.49848199999997,44.49848199999997,44.73100950000003,z,0.2291639000000032,None,44.731224999999995,44.73708680000004,44.916289100000085,,,,,,,,,GSR_th,001,2025-03-07_11h07.26.425,MainFlow,2024.2.4,141.43571393205298,2025-03-07 11h07.42.080386 +0700,
1,3,1,1,letter/lettth132.png,letter/lettgr143.png,25,25,0,z,0.15916379999998753,None,0,25,25,25,44.93961980000017,,,,,,,44.93961980000017,45.92365910000012,45.92865260000008,45.92865260000008,46.091302799999994,z,0.15916379999998753,None,46.091536200000064,46.09710229999996,46.276942599999984,45.92865260000008,,,,,,,,GSR_th,001,2025-03-07_11h07.26.425,MainFlow,2024.2.4,141.43571393205298,2025-03-07 11h07.42.080386 +0700,
1,3,2,4,letter/lettgr064.png,letter/lettth024.png,26,26,0,x,0.15508460000000923,None,0,26,26,26,46.333127200000035,,,,,,,46.333127200000035,47.296721800000114,47.303083100000094,47.303083100000094,47.46632210000007,x,0.15508460000000923,None,47.46653480000009,47.471147599999995,47.65189970000006,,,,,,,,,GSR_th,001,2025-03-07_11h07.26.425,MainFlow,2024.2.4,141.43571393205298,2025-03-07 11h07.42.080386 +0700,
1,2,1,6,letter/lettth161.png,letter/lettkh033.png,27,27,0,z,0.21595699999988938,None,0,27,27,27,47.68004029999997,,,,,,,47.68004029999997,48.66627319999998,48.67131549999999,48.67131549999999,48.88974680000001,z,0.21595699999988938,None,48.88998670000001,48.89553010000009,49.07550000000015,48.67131549999999,,,,,,,,GSR_th,001,2025-03-07_11h07.26.425,MainFlow,2024.2.4,141.43571393205298,2025-03-07 11h07.42.080386 +0700,
1,2,1,1,letter/lettth061.png,letter/lettkh034.png,28,28,0,z,0.24866789999987304,None,0,28,28,28,49.130529000000024,,,,,,,49.130529000000024,50.09568940000008,50.101663099999996,50.101663099999996,50.354476200000136,z,0.24866789999987304,None,50.354680500000086,50.36029660000008,50.5406273000001,,,,,,,,,GSR_th,001,2025-03-07_11h07.26.425,MainFlow,2024.2.4,141.43571393205298,2025-03-07 11h07.42.080386 +0700,
1,1,2,7,letter/letten051.png,letter/lettth025.png,29,29,0,x,0.1716857000001255,None,0,29,29,29,50.56360900000004,,,,,,,50.56360900000004,51.54731179999999,51.55285630000003,51.55285630000003,51.72784420000016,x,0.1716857000001255,None,51.72797979999996,51.73329660000013,51.91553390000013,51.55285630000003,,,,,,,,GSR_th,001,2025-03-07_11h07.26.425,MainFlow,2024.2.4,141.43571393205298,2025-03-07 11h07.42.080386 +0700,
1,2,2,7,letter/lettkh033.png,letter/lettth072.png,30,30,0,x,0.2529172000001836,None,0,30,30,30,51.93943730000001,,,,,,,51.93943730000001,52.92891140000006,52.93513280000002,52.93513280000002,53.19484499999999,x,0.2529172000001836,None,53.19508459999997,53.201349500000106,53.380971199999976,,,,,,,,,GSR_th,001,2025-03-07_11h07.26.425,MainFlow,2024.2.4,141.43571393205298,2025-03-07 11h07.42.080386 +0700,
1,2,1,8,letter/lettth153.png,letter/lettkh031.png,31,31,0,z,0.22921089999999822,None,0,31,31,31,53.43689880000011,,,,,,,53.43689880000011,54.400107700000035,54.40634829999999,54.40634829999999,54.638951099999986,z,0.22921089999999822,None,54.63916080000013,54.64480760000015,54.82420569999999,,,,,,,,,GSR_th,001,2025-03-07_11h07.26.425,MainFlow,2024.2.4,141.43571393205298,2025-03-07 11h07.42.080386 +0700,
1,1,1,2,letter/lettth061.png,letter/letten062.png,32,32,0,z,0.2857183000000987,None,0,32,32,32,54.84858650000001,,,,,,,54.84858650000001,55.83850050000001,55.84353720000013,55.84353720000013,56.136199499999975,z,0.2857183000000987,None,56.13630980000016,56.14177790000008,56.323503300000084,55.84353720000013,,,,,,,,GSR_th,001,2025-03-07_11h07.26.425,MainFlow,2024.2.4,141.43571393205298,2025-03-07 11h07.42.080386 +0700,
1,3,1,7,letter/lettth025.png,letter/lettgr072.png,33,33,0,z,0.23209269999983917,None,0,33,33,33,56.364131199999974,,,,,,,56.364131199999974,57.33727390000013,57.343327300000055,57.343327300000055,57.58238110000002,z,0.23209269999983917,None,57.58263150000016,57.58848460000013,57.76825750000012,,,,,,,,,GSR_th,001,2025-03-07_11h07.26.425,MainFlow,2024.2.4,141.43571393205298,2025-03-07 11h07.42.080386 +0700,
1,1,1,3,letter/lettth092.png,letter/letten041.png,34,34,0,z,0.20655809999993835,None,0,34,34,34,57.82327340000006,,,,,,,57.82327340000006,58.78850570000009,58.794531400000096,58.794531400000096,59.00533710000013,z,0.20655809999993835,None,59.00555110000005,59.01206850000017,59.19183500000008,,,,,,,,,GSR_th,001,2025-03-07_11h07.26.425,MainFlow,2024.2.4,141.43571393205298,2025-03-07 11h07.42.080386 +0700,
1,3,1,5,letter/lettth052.png,letter/lettgr141.png,35,35,0,z,0.2010642000000189,None,0,35,35,35,59.242860600000085,,,,,,,59.242860600000085,60.211900400000104,60.218133999999964,60.218133999999964,60.422294700000066,z,0.2010642000000189,None,60.42250590000003,60.429546200000004,60.60757780000017,,,,,,,,,GSR_th,001,2025-03-07_11h07.26.425,MainFlow,2024.2.4,141.43571393205298,2025-03-07 11h07.42.080386 +0700,
1,1,1,6,letter/lettth024.png,letter/letten153.png,36,36,0,z,0.2474359000000277,None,0,36,36,36,60.62249750000001,,,,,,,60.62249750000001,61.60912750000011,61.61459630000013,61.61459630000013,61.8666204000001,z,0.2474359000000277,None,61.86684379999997,61.87334090000013,62.05280460000017,61.61459630000013,,,,,,,,GSR_th,001,2025-03-07_11h07.26.425,MainFlow,2024.2.4,141.43571393205298,2025-03-07 11h07.42.080386 +0700,
1,1,1,3,letter/lettth092.png,letter/letten041.png,37,37,0,z,0.20334420000017417,None,0,37,37,37,62.07700799999998,,,,,,,62.07700799999998,63.067113800000016,63.07262530000003,63.07262530000003,63.283553900000015,z,0.20334420000017417,None,63.28376560000015,63.29078520000007,63.4694813000001,63.07262530000003,,,,,,,,GSR_th,001,2025-03-07_11h07.26.425,MainFlow,2024.2.4,141.43571393205298,2025-03-07 11h07.42.080386 +0700,
1,1,1,7,letter/lettth025.png,letter/letten051.png,38,38,0,z,0.22985130000006393,None,0,38,38,38,63.493309700000054,,,,,,,63.493309700000054,64.48358080000003,64.48905750000017,64.48905750000017,64.72877870000002,z,0.22985130000006393,None,64.72900560000016,64.73491379999996,64.91259960000002,64.48905750000017,,,,,,,,GSR_th,001,2025-03-07_11h07.26.425,MainFlow,2024.2.4,141.43571393205298,2025-03-07 11h07.42.080386 +0700,
1,3,1,6,letter/lettth082.png,letter/lettgr061.png,39,39,0,z,0.23881869999991068,None,0,39,39,39,64.94840910000016,,,,,,,64.94840910000016,65.93246550000003,65.93867509999995,65.93867509999995,66.18555779999997,z,0.23881869999991068,None,66.18577200000004,66.1906606,66.37050750000003,,,,,,,,,GSR_th,001,2025-03-07_11h07.26.425,MainFlow,2024.2.4,141.43571393205298,2025-03-07 11h07.42.080386 +0700,
1,2,1,4,letter/lettth153.png,letter/lettkh034.png,40,40,0,z,0.2069902999999158,None,0,40,40,40,66.39188839999997,,,,,,,66.39188839999997,67.37777950000009,67.3828896,67.3828896,67.59370350000017,z,0.2069902999999158,None,67.59396100000004,67.59945259999995,67.78012310000008,67.3828896,,,,,,,,GSR_th,001,2025-03-07_11h07.26.425,MainFlow,2024.2.4,141.43571393205298,2025-03-07 11h07.42.080386 +0700,
1,3,2,8,letter/lettgr153.png,letter/lettth013.png,41,41,0,x,0.2372063000000253,None,0,41,41,41,67.80095660000006,,,,,,,67.80095660000006,68.78741330000003,68.79239570000004,68.79239570000004,69.03756940000017,x,0.2372063000000253,None,69.03782320000005,69.0426351000001,69.2240299,68.79239570000004,,,,,,,,GSR_th,001,2025-03-07_11h07.26.425,MainFlow,2024.2.4,141.43571393205298,2025-03-07 11h07.42.080386 +0700,
1,1,1,4,letter/lettth041.png,letter/letten091.png,42,42,0,z,0.23866580000003523,None,0,42,42,42,69.2712825000001,,,,,,,69.2712825000001,70.24424060000001,70.25036760000012,70.25036760000012,70.49579000000017,z,0.23866580000003523,None,70.49600710000004,70.50025019999998,70.68216120000011,,,,,,,,,GSR_th,001,2025-03-07_11h07.26.425,MainFlow,2024.2.4,141.43571393205298,2025-03-07 11h07.42.080386 +0700,
1,3,1,8,letter/lettth013.png,letter/lettgr153.png,43,43,0,z,0.247022300000026,None,0,43,43,43,70.7327064000001,,,,,,,70.7327064000001,71.7024288,71.70849620000013,71.70849620000013,71.9608945,z,0.247022300000026,None,71.9611066,71.96687750000001,72.14721310000004,,,,,,,,,GSR_th,001,2025-03-07_11h07.26.425,MainFlow,2024.2.4,141.43571393205298,2025-03-07 11h07.42.080386 +0700,
1,2,1,3,letter/lettth112.png,letter/lettkh031.png,44,44,0,z,0.22184389999983978,None,0,44,44,44,72.19988510000007,,,,,,,72.19988510000007,73.16758000000004,73.17361100000016,73.17361100000016,73.39914810000005,z,0.22184389999983978,None,73.39937210000016,73.4051035,73.58486349999998,,,,,,,,,GSR_th,001,2025-03-07_11h07.26.425,MainFlow,2024.2.4,141.43571393205298,2025-03-07 11h07.42.080386 +0700,
1,1,2,2,letter/letten062.png,letter/lettth061.png,45,45,0,x,0.18705019999993056,None,0,45,45,45,73.60841159999995,,,,,,,73.60841159999995,74.59885600000007,74.60378700000001,74.60378700000001,74.79434070000002,x,0.18705019999993056,None,74.79455570000005,74.80072519999999,74.97989490000009,74.60378700000001,,,,,,,,GSR_th,001,2025-03-07_11h07.26.425,MainFlow,2024.2.4,141.43571393205298,2025-03-07 11h07.42.080386 +0700,
1,3,1,7,letter/lettth025.png,letter/lettgr072.png,46,46,0,z,0.2383374000000913,None,0,46,46,46,75.00313440000014,,,,,,,75.00313440000014,75.98723229999996,75.99255080000012,75.99255080000012,76.2377954000001,z,0.2383374000000913,None,76.2380478,76.24402080000004,76.42413660000011,75.99255080000012,,,,,,,,GSR_th,001,2025-03-07_11h07.26.425,MainFlow,2024.2.4,141.43571393205298,2025-03-07 11h07.42.080386 +0700,
1,1,1,7,letter/lettth025.png,letter/letten051.png,47,47,0,z,0.20960790000003726,None,0,47,47,47,76.44700929999999,,,,,,,76.44700929999999,77.43162920000009,77.43661629999997,77.43661629999997,77.65434249999998,z,0.20960790000003726,None,77.65455580000003,77.65944710000008,77.84078169999998,77.43661629999997,,,,,,,,GSR_th,001,2025-03-07_11h07.26.425,MainFlow,2024.2.4,141.43571393205298,2025-03-07 11h07.42.080386 +0700,
1,2,2,5,letter/lettkh023.png,letter/lettth024.png,48,48,0,x,0.19119039999986853,None,0,48,48,48,77.88670470000011,,,,,,,77.88670470000011,78.86095880000016,78.86721590000002,78.86721590000002,79.06372669999996,x,0.19119039999986853,None,79.06397790000005,79.07003269999996,79.25032450000003,,,,,,,,,GSR_th,001,2025-03-07_11h07.26.425,MainFlow,2024.2.4,141.43571393205298,2025-03-07 11h07.42.080386 +0700,
1,2,1,5,letter/lettth024.png,letter/lettkh023.png,49,49,0,z,0.20080200000006698,None,0,49,49,49,79.27439720000007,,,,,,,79.27439720000007,80.26480620000007,80.26993349999998,80.26993349999998,80.4738033000001,z,0.20080200000006698,None,80.47405570000001,80.48399990000007,80.66010819999997,80.26993349999998,,,,,,,,GSR_th,001,2025-03-07_11h07.26.425,MainFlow,2024.2.4,141.43571393205298,2025-03-07 11h07.42.080386 +0700,
1,3,2,5,letter/lettgr141.png,letter/lettth052.png,50,50,0,x,0.1734054000000924,None,0,50,50,50,80.71059520000017,,,,,,,80.71059520000017,81.6805402,81.68665260000012,81.68665260000012,81.86336690000007,x,0.1734054000000924,None,81.8635796000001,81.87042810000003,82.04902540000012,,,,,,,,,GSR_th,001,2025-03-07_11h07.26.425,MainFlow,2024.2.4,141.43571393205298,2025-03-07 11h07.42.080386 +0700,
1,2,2,8,letter/lettkh031.png,letter/lettth153.png,51,51,0,x,0.2924189000000297,None,0,51,51,51,82.07326190000003,,,,,,,82.07326190000003,83.06161599999996,83.06724880000002,83.06724880000002,83.36247830000002,x,0.2924189000000297,None,83.36268990000008,83.36833000000001,83.54769820000001,83.06724880000002,,,,,,,,GSR_th,001,2025-03-07_11h07.26.425,MainFlow,2024.2.4,141.43571393205298,2025-03-07 11h07.42.080386 +0700,
1,1,2,5,letter/letten041.png,letter/lettth152.png,52,52,0,x,0.24979549999989104,None,0,52,52,52,83.5694261000001,,,,,,,83.5694261000001,84.55557520000002,84.56081480000012,84.56081480000012,84.81338870000013,x,0.24979549999989104,None,84.81360020000011,84.81940370000007,84.99896850000005,84.56081480000012,,,,,,,,GSR_th,001,2025-03-07_11h07.26.425,MainFlow,2024.2.4,141.43571393205298,2025-03-07 11h07.42.080386 +0700,
1,1,1,1,letter/lettth022.png,letter/letten092.png,53,53,0,z,0.21387029999982587,None,0,53,53,53,85.02142780000008,,,,,,,85.02142780000008,86.00629290000006,86.01136070000007,86.01136070000007,86.22890040000016,z,0.21387029999982587,None,86.22911250000016,86.23460969999996,86.41524260000006,86.01136070000007,,,,,,,,GSR_th,001,2025-03-07_11h07.26.425,MainFlow,2024.2.4,141.43571393205298,2025-03-07 11h07.42.080386 +0700,
1,2,1,1,letter/lettth061.png,letter/lettkh034.png,54,54,0,z,0.2478104000001622,None,0,54,54,54,86.43743170000016,,,,,,,86.43743170000016,87.42170830000009,87.42731460000005,87.42731460000005,87.68028640000011,z,0.2478104000001622,None,87.68049810000002,87.68621340000004,87.86649860000011,87.42731460000005,,,,,,,,GSR_th,001,2025-03-07_11h07.26.425,MainFlow,2024.2.4,141.43571393205298,2025-03-07 11h07.42.080386 +0700,
1,3,2,4,letter/lettgr064.png,letter/lettth024.png,55,55,0,x,0.23486780000007457,None,0,55,55,55,87.88901420000002,,,,,,,87.88901420000002,88.87358240000003,88.87875040000017,88.87875040000017,89.11735680000015,x,0.23486780000007457,None,89.1175733,89.12317819999998,89.30473210000014,88.87875040000017,,,,,,,,GSR_th,001,2025-03-07_11h07.26.425,MainFlow,2024.2.4,141.43571393205298,2025-03-07 11h07.42.080386 +0700,
1,3,1,5,letter/lettth052.png,letter/lettgr141.png,56,56,0,z,0.19654940000009447,None,0,56,56,56,89.32703400000014,,,,,,,89.32703400000014,90.31108990000007,90.31625750000012,90.31625750000012,90.52123800000004,z,0.19654940000009447,None,90.52145380000002,90.52619950000008,90.7061020000001,90.31625750000012,,,,,,,,GSR_th,001,2025-03-07_11h07.26.425,MainFlow,2024.2.4,141.43571393205298,2025-03-07 11h07.42.080386 +0700,
1,1,1,8,letter/lettth161.png,letter/letten031.png,57,57,0,z,0.1748592000001281,None,0,57,57,57,90.72830020000015,,,,,,,90.72830020000015,91.71265340000014,91.71825220000005,91.71825220000005,91.90031190000013,z,0.1748592000001281,None,91.90044890000013,91.9056892000001,92.08774370000015,91.71825220000005,,,,,,,,GSR_th,001,2025-03-07_11h07.26.425,MainFlow,2024.2.4,141.43571393205298,2025-03-07 11h07.42.080386 +0700,
1,1,1,4,letter/lettth041.png,letter/letten091.png,58,58,0,z,0.19792600000005223,None,0,58,58,58,92.10870470000009,,,,,,,92.10870470000009,93.09511870000006,93.10024090000002,93.10024090000002,93.30507150000017,z,0.19792600000005223,None,93.30528630000003,93.31020250000006,93.49016610000012,93.10024090000002,,,,,,,,GSR_th,001,2025-03-07_11h07.26.425,MainFlow,2024.2.4,141.43571393205298,2025-03-07 11h07.42.080386 +0700,
1,2,1,4,letter/lettth153.png,letter/lettkh034.png,59,59,0,z,0.16795490000004065,None,0,59,59,59,93.51129390000006,,,,,,,93.51129390000006,94.4977980000001,94.50275880000004,94.50275880000004,94.6787303000001,z,0.16795490000004065,None,94.67894309999997,94.68406849999997,94.86521240000002,94.50275880000004,,,,,,,,GSR_th,001,2025-03-07_11h07.26.425,MainFlow,2024.2.4,141.43571393205298,2025-03-07 11h07.42.080386 +0700,
1,1,2,3,letter/letten041.png,letter/lettth092.png,60,60,0,x,0.1564146000000619,None,0,60,60,60,94.88806820000013,,,,,,,94.88806820000013,95.87278300000003,95.87773579999998,95.87773579999998,96.04136190000008,x,0.1564146000000619,None,96.04157469999996,96.04789849999997,96.2256238,95.87773579999998,,,,,,,,GSR_th,001,2025-03-07_11h07.26.425,MainFlow,2024.2.4,141.43571393205298,2025-03-07 11h07.42.080386 +0700,
1,3,2,2,letter/lettgr072.png,letter/lettth052.png,61,61,0,x,0.21551720000002206,None,0,61,61,61,96.23980540000002,,,,,,,96.23980540000002,97.22694000000001,97.2321836000001,97.2321836000001,97.45075369999995,x,0.21551720000002206,None,97.45096780000017,97.45693389999997,97.63534030000005,97.2321836000001,,,,,,,,GSR_th,001,2025-03-07_11h07.26.425,MainFlow,2024.2.4,141.43571393205298,2025-03-07 11h07.42.080386 +0700,
1,1,2,8,letter/letten031.png,letter/lettth161.png,62,62,0,x,0.18768240000008518,None,0,62,62,62,97.65758200000005,,,,,,,97.65758200000005,98.64266829999997,98.6476318,98.6476318,98.83866060000014,x,0.18768240000008518,None,98.83896219999997,98.84453410000015,99.02420740000002,98.6476318,,,,,,,,GSR_th,001,2025-03-07_11h07.26.425,MainFlow,2024.2.4,141.43571393205298,2025-03-07 11h07.42.080386 +0700,
1,1,1,5,letter/lettth152.png,letter/letten041.png,63,63,0,z,0.21220119999998133,None,0,63,63,63,99.04784659999996,,,,,,,99.04784659999996,100.03831480000008,100.04318409999996,100.04318409999996,100.26084119999996,z,0.21220119999998133,None,100.26105510000002,100.26659749999999,100.44740610000008,100.04318409999996,,,,,,,,GSR_th,001,2025-03-07_11h07.26.425,MainFlow,2024.2.4,141.43571393205298,2025-03-07 11h07.42.080386 +0700,
1,2,2,2,letter/lettkh032.png,letter/lettth032.png,64,64,0,x,0.1324192999998104,None,0,64,64,64,100.4709229,,,,,,,100.4709229,101.46159409999996,101.46664699999997,101.46664699999997,101.60186250000015,x,0.1324192999998104,None,101.60207700000001,101.60753309999996,101.78736800000001,101.46664699999997,,,,,,,,GSR_th,001,2025-03-07_11h07.26.425,MainFlow,2024.2.4,141.43571393205298,2025-03-07 11h07.42.080386 +0700,
1,3,1,2,letter/lettth052.png,letter/lettgr072.png,65,65,0,z,0.1756080000000111,None,0,65,65,65,101.81240900000012,,,,,,,101.81240900000012,102.80177019999996,102.80688929999997,102.80688929999997,102.98982709999996,z,0.1756080000000111,None,102.9900556,102.99636669999995,103.17625339999995,102.80688929999997,,,,,,,,GSR_th,001,2025-03-07_11h07.26.425,MainFlow,2024.2.4,141.43571393205298,2025-03-07 11h07.42.080386 +0700,
1,1,2,4,letter/letten091.png,letter/lettth041.png,66,66,0,x,0.2328498000001673,None,0,66,66,66,103.19872150000015,,,,,,,103.19872150000015,104.18382259999998,104.18924379999999,104.18924379999999,104.42905270000006,x,0.2328498000001673,None,104.42928189999998,104.43499100000008,104.61359519999996,104.18924379999999,,,,,,,,GSR_th,001,2025-03-07_11h07.26.425,MainFlow,2024.2.4,141.43571393205298,2025-03-07 11h07.42.080386 +0700,
1,3,2,5,letter/lettgr141.png,letter/lettth052.png,67,67,0,x,0.17322779999994964,None,0,67,67,67,104.63605060000009,,,,,,,104.63605060000009,105.62136929999997,105.62672859999998,105.62672859999998,105.80295070000011,x,0.17322779999994964,None,105.80318800000009,105.81151180000006,105.98896940000009,105.62672859999998,,,,,,,,GSR_th,001,2025-03-07_11h07.26.425,MainFlow,2024.2.4,141.43571393205298,2025-03-07 11h07.42.080386 +0700,
1,2,2,3,letter/lettkh031.png,letter/lettth112.png,68,68,0,x,0.2390050000001338,None,0,68,68,68,106.01368410000009,,,,,,,106.01368410000009,107.00309800000014,107.00845530000015,107.00845530000015,107.25332320000007,x,0.2390050000001338,None,107.25354020000009,107.26102730000002,107.44005360000006,107.00845530000015,,,,,,,,GSR_th,001,2025-03-07_11h07.26.425,MainFlow,2024.2.4,141.43571393205298,2025-03-07 11h07.42.080386 +0700,
1,3,2,7,letter/lettgr072.png,letter/lettth025.png,69,69,0,x,0.29289569999991727,None,0,69,69,69,107.46254290000002,,,,,,,107.46254290000002,108.44743749999998,108.45293460000016,108.45293460000016,108.75340619999997,x,0.29289569999991727,None,108.75362010000003,108.76016010000012,108.9403119000001,108.45293460000016,,,,,,,,GSR_th,001,2025-03-07_11h07.26.425,MainFlow,2024.2.4,141.43571393205298,2025-03-07 11h07.42.080386 +0700,
1,3,2,2,letter/lettgr072.png,letter/lettth052.png,70,70,0,x,0.2255096000001231,None,0,70,70,70,108.9630489000001,,,,,,,108.9630489000001,109.95305819999999,109.95797660000017,109.95797660000017,110.1901299000001,x,0.2255096000001231,None,110.19034529999999,110.19634710000014,110.37614770000005,109.95797660000017,,,,,,,,GSR_th,001,2025-03-07_11h07.26.425,MainFlow,2024.2.4,141.43571393205298,2025-03-07 11h07.42.080386 +0700,
1,1,1,1,letter/lettth022.png,letter/letten092.png,71,71,0,z,0.20065019999992728,None,0,71,71,71,110.39858430000004,,,,,,,110.39858430000004,111.38312270000006,111.38823150000007,111.38823150000007,111.59221539999999,z,0.20065019999992728,None,111.59242949999998,111.59767980000015,111.77841660000013,111.38823150000007,,,,,,,,GSR_th,001,2025-03-07_11h07.26.425,MainFlow,2024.2.4,141.43571393205298,2025-03-07 11h07.42.080386 +0700,
1,3,1,6,letter/lettth082.png,letter/lettgr061.png,72,72,0,z,0.2158567999999832,None,0,72,72,72,111.80131630000005,,,,,,,111.80131630000005,112.78609470000015,112.79083270000001,112.79083270000001,113.00992510000015,z,0.2158567999999832,None,113.01015410000014,113.01587880000011,113.19498420000014,112.79083270000001,,,,,,,,GSR_th,001,2025-03-07_11h07.26.425,MainFlow,2024.2.4,141.43571393205298,2025-03-07 11h07.42.080386 +0700,
1,2,1,7,letter/lettth072.png,letter/lettkh033.png,73,73,0,z,0.1700905000000148,None,0,73,73,73,113.21876180000004,,,,,,,113.21876180000004,114.20859850000011,114.21406900000011,114.21406900000011,114.3908735,z,0.1700905000000148,None,114.39108550000014,114.39627370000017,114.57674770000017,114.21406900000011,,,,,,,,GSR_th,001,2025-03-07_11h07.26.425,MainFlow,2024.2.4,141.43571393205298,2025-03-07 11h07.42.080386 +0700,
1,3,2,6,letter/lettgr061.png,letter/lettth082.png,74,74,0,x,0.187768799999958,None,0,74,74,74,114.59950019999997,,,,,,,114.59950019999997,115.58442720000016,115.58940060000009,115.58940060000009,115.77972260000001,x,0.187768799999958,None,115.77993839999999,115.7857669,115.96540870000013,115.58940060000009,,,,,,,,GSR_th,001,2025-03-07_11h07.26.425,MainFlow,2024.2.4,141.43571393205298,2025-03-07 11h07.42.080386 +0700,
1,1,2,6,letter/letten153.png,letter/lettth024.png,75,75,0,x,0.2403219000000263,None,0,75,75,75,115.98755380000011,,,,,,,115.98755380000011,116.97324830000002,116.97859040000003,116.97859040000003,117.2237328000001,x,0.2403219000000263,None,117.2239449000001,117.23038880000013,117.41008810000017,116.97859040000003,,,,,,,,GSR_th,001,2025-03-07_11h07.26.425,MainFlow,2024.2.4,141.43571393205298,2025-03-07 11h07.42.080386 +0700,
1,2,2,1,letter/lettkh034.png,letter/lettth061.png,76,76,0,x,0.22652620000008028,None,0,76,76,76,117.43370049999999,,,,,,,117.43370049999999,118.42267349999997,118.42834860000016,118.42834860000016,118.65888229999996,x,0.22652620000008028,None,118.65901830000007,118.66435410000008,118.84674259999997,118.42834860000016,,,,,,,,GSR_th,001,2025-03-07_11h07.26.425,MainFlow,2024.2.4,141.43571393205298,2025-03-07 11h07.42.080386 +0700,
1,2,1,6,letter/lettth161.png,letter/lettkh033.png,77,77,0,z,0.21514629999978752,None,0,77,77,77,118.8694309,,,,,,,118.8694309,119.85394599999995,119.86013460000004,119.86013460000004,120.0834542,z,0.21514629999978752,None,120.08366460000002,120.08839379999995,120.26978140000006,119.86013460000004,,,,,,,,GSR_th,001,2025-03-07_11h07.26.425,MainFlow,2024.2.4,141.43571393205298,2025-03-07 11h07.42.080386 +0700,
1,2,2,7,letter/lettkh033.png,letter/lettth072.png,78,78,0,x,0.22912990000008904,None,0,78,78,78,120.29288610000003,,,,,,,120.29288610000003,121.27754460000006,121.28282170000011,121.28282170000011,121.51458150000008,x,0.22912990000008904,None,121.51479840000002,121.52057579999996,121.70027670000013,121.28282170000011,,,,,,,,GSR_th,001,2025-03-07_11h07.26.425,MainFlow,2024.2.4,141.43571393205298,2025-03-07 11h07.42.080386 +0700,
1,2,1,8,letter/lettth153.png,letter/lettkh031.png,79,79,0,z,0.17106749999993554,None,0,79,79,79,121.72288820000017,,,,,,,121.72288820000017,122.70772669999997,122.71270350000009,122.71270350000009,122.88736870000002,z,0.17106749999993554,None,122.88746319999996,122.8931192,123.07445529999995,122.71270350000009,,,,,,,,GSR_th,001,2025-03-07_11h07.26.425,MainFlow,2024.2.4,141.43571393205298,2025-03-07 11h07.42.080386 +0700,
1,3,1,2,letter/lettth052.png,letter/lettgr072.png,80,80,0,z,0.1379747999999381,None,0,80,80,80,123.08985490000009,,,,,,,123.08985490000009,124.0758499000001,124.08081000000016,124.08081000000016,124.22238170000014,z,0.1379747999999381,None,124.22259800000006,124.229018,124.40873020000004,124.08081000000016,,,,,,,,GSR_th,001,2025-03-07_11h07.26.425,MainFlow,2024.2.4,141.43571393205298,2025-03-07 11h07.42.080386 +0700,
1,2,1,2,letter/lettth032.png,letter/lettkh032.png,81,81,0,z,0.2220793000001322,None,0,81,81,81,124.43058780000001,,,,,,,124.43058780000001,125.41611710000006,125.42145330000017,125.42145330000017,125.64648499999998,z,0.2220793000001322,None,125.64669879999997,125.65325770000004,125.83226130000003,125.42145330000017,,,,,,,,GSR_th,001,2025-03-07_11h07.26.425,MainFlow,2024.2.4,141.43571393205298,2025-03-07 11h07.42.080386 +0700,
1,1,2,7,letter/letten051.png,letter/lettth025.png,82,82,0,x,0.12923320000004423,None,0,82,82,82,125.85505420000004,,,,,,,125.85505420000004,126.84529999999995,126.85051450000014,126.85051450000014,126.98486160000016,x,0.12923320000004423,None,126.9850735,126.99106000000006,127.17147569999997,126.85051450000014,,,,,,,,GSR_th,001,2025-03-07_11h07.26.425,MainFlow,2024.2.4,141.43571393205298,2025-03-07 11h07.42.080386 +0700,
1,3,1,4,letter/lettth024.png,letter/lettgr064.png,83,83,0,z,0.1539900000000216,None,0,83,83,83,127.19475690000013,,,,,,,127.19475690000013,128.17881980000016,128.18382640000004,128.18382640000004,128.34569639999995,z,0.1539900000000216,None,128.34590709999998,128.35186940000017,128.53209770000012,128.18382640000004,,,,,,,,GSR_th,001,2025-03-07_11h07.26.425,MainFlow,2024.2.4,141.43571393205298,2025-03-07 11h07.42.080386 +0700,
1,3,2,3,letter/lettgr153.png,letter/lettth155.png,84,84,0,x,0.1775214000001597,None,0,84,84,84,128.5535347,,,,,,,128.5535347,129.54002800000012,129.54515349999997,129.54515349999997,129.72810260000006,x,0.1775214000001597,None,129.72831650000012,129.73421589999998,129.9140029,129.54515349999997,,,,,,,,GSR_th,001,2025-03-07_11h07.26.425,MainFlow,2024.2.4,141.43571393205298,2025-03-07 11h07.42.080386 +0700,
1,1,1,6,letter/lettth024.png,letter/letten153.png,85,85,0,z,0.14632589999996526,None,0,85,85,85,129.93611920000012,,,,,,,129.93611920000012,130.92129720000003,130.926105,130.926105,131.07554960000016,z,0.14632589999996526,None,131.07578430000012,131.08105369999998,131.26092130000006,130.926105,,,,,,,,GSR_th,001,2025-03-07_11h07.26.425,MainFlow,2024.2.4,141.43571393205298,2025-03-07 11h07.42.080386 +0700,
1,1,2,3,letter/letten041.png,letter/lettth092.png,86,86,0,x,0.21260310000002391,None,0,86,86,86,131.2860157,,,,,,,131.2860157,132.27500020000002,132.2800704000001,132.2800704000001,132.49783049999996,x,0.21260310000002391,None,132.49804130000007,132.50405769999998,132.68577019999998,132.2800704000001,,,,,,,,GSR_th,001,2025-03-07_11h07.26.425,MainFlow,2024.2.4,141.43571393205298,2025-03-07 11h07.42.080386 +0700,
1,2,2,1,letter/lettkh034.png,letter/lettth061.png,87,87,0,x,0.2272697999999309,None,0,87,87,87,132.70904040000005,,,,,,,132.70904040000005,133.69851059999996,133.70350129999997,133.70350129999997,133.9352355000001,x,0.2272697999999309,None,133.9354482000001,133.94133269999998,134.12178070000004,133.70350129999997,,,,,,,,GSR_th,001,2025-03-07_11h07.26.425,MainFlow,2024.2.4,141.43571393205298,2025-03-07 11h07.42.080386 +0700,
1,3,1,3,letter/lettth155.png,letter/lettgr153.png,88,88,0,z,0.090947000000142,None,0,88,88,88,134.14317900000015,,,,,,,134.14317900000015,135.12895060000005,135.133867,135.133867,135.22810879999997,z,0.090947000000142,None,135.22832270000004,135.23397109999996,135.4129871,135.133867,,,,,,,,GSR_th,001,2025-03-07_11h07.26.425,MainFlow,2024.2.4,141.43571393205298,2025-03-07 11h07.42.080386 +0700,
1,2,1,3,letter/lettth112.png,letter/lettkh031.png,89,89,0,z,0.22187159999998585,None,0,89,89,89,135.43470019999995,,,,,,,135.43470019999995,136.41965170000003,136.42524879999996,136.42524879999996,136.65041740000015,z,0.22187159999998585,None,136.65062680000005,136.65663560000007,136.83659740000007,136.42524879999996,,,,,,,,GSR_th,001,2025-03-07_11h07.26.425,MainFlow,2024.2.4,141.43571393205298,2025-03-07 11h07.42.080386 +0700,
1,2,2,5,letter/lettkh023.png,letter/lettth024.png,90,90,0,x,0.25055410000004485,None,0,90,90,90,136.85924980000004,,,,,,,136.85924980000004,137.84407650000003,137.84935340000015,137.84935340000015,138.10289050000006,x,0.25055410000004485,None,138.10310400000003,138.1097132,138.2881476,137.84935340000015,,,,,,,,GSR_th,001,2025-03-07_11h07.26.425,MainFlow,2024.2.4,141.43571393205298,2025-03-07 11h07.42.080386 +0700,
1,1,2,4,letter/letten091.png,letter/lettth041.png,91,91,0,x,0.08745460000000094,None,0,91,91,91,138.3144416,,,,,,,138.3144416,139.30127960000004,139.30641370000012,139.30641370000012,139.39889430000017,x,0.08745460000000094,None,139.3991043000001,139.4043411,139.58552480000003,139.30641370000012,,,,,,,,GSR_th,001,2025-03-07_11h07.26.425,MainFlow,2024.2.4,141.43571393205298,2025-03-07 11h07.42.080386 +0700,
1,2,2,3,letter/lettkh031.png,letter/lettth112.png,92,92,0,x,0.26025849999996353,None,0,92,92,92,139.60824219999995,,,,,,,139.60824219999995,140.5927332000001,140.59781010000006,140.59781010000006,140.86307050000005,x,0.26025849999996353,None,140.86322170000017,140.86844659999997,141.0500502,140.59781010000006,,,,,,,,GSR_th,001,2025-03-07_11h07.26.425,MainFlow,2024.2.4,141.43571393205298,2025-03-07 11h07.42.080386 +0700,
1,3,1,8,letter/lettth013.png,letter/lettgr153.png,93,93,0,z,0.27758849999986523,None,0,93,93,93,141.06562929999996,,,,,,,141.06562929999996,142.0510081,142.0560485000001,142.0560485000001,142.33715080000002,z,0.27758849999986523,None,142.33736350000004,142.34306020000008,142.52270190000013,142.0560485000001,,,,,,,,GSR_th,001,2025-03-07_11h07.26.425,MainFlow,2024.2.4,141.43571393205298,2025-03-07 11h07.42.080386 +0700,
1,1,1,2,letter/lettth061.png,letter/letten062.png,94,94,0,z,0.23052460000008068,None,0,94,94,94,142.54517529999998,,,,,,,142.54517529999998,143.5293127,143.5346465,143.5346465,143.77219260000015,z,0.23052460000008068,None,143.7723301000001,143.7776229000001,143.96008370000004,143.5346465,,,,,,,,GSR_th,001,2025-03-07_11h07.26.425,MainFlow,2024.2.4,141.43571393205298,2025-03-07 11h07.42.080386 +0700,
1,3,2,3,letter/lettgr153.png,letter/lettth155.png,95,95,0,x,0.28701279999995677,None,0,95,95,95,143.98246289999997,,,,,,,143.98246289999997,144.96695969999996,144.9721380000001,144.9721380000001,145.2649804,x,0.28701279999995677,None,145.26511630000005,145.27037659999996,145.45193489999997,144.9721380000001,,,,,,,,GSR_th,001,2025-03-07_11h07.26.425,MainFlow,2024.2.4,141.43571393205298,2025-03-07 11h07.42.080386 +0700,
,,,,,,,,,,,,,,,,,,,,,,,,,,,,,,,,,,,145.45209369999998,145.4580916,145.4580916,146.4197626,space,0.9586401999999907,None,GSR_th,001,2025-03-07_11h07.26.425,MainFlow,2024.2.4,141.43571393205298,2025-03-07 11h07.42.080386 +0700,
