lang,langpair,sequence,pairid,firstdir,seconddir,thisN,thisTrialN,thisRepN,key_resp.keys,key_resp.rt,key_resp.duration,trials.thisRepN,trials.thisTrialN,trials.thisN,trials.thisIndex,thisRow.t,notes,tutorial.started,tutorial.stopped,key_instruct.keys,key_instruct.rt,key_instruct.duration,image_first.started,letterselect.started,instruct.started,key_resp.started,letterselect.stopped,trials.key_resp.keys,trials.key_resp.rt,trials.key_resp.duration,blanknext.started,instruct_2.started,blanknext.stopped,image_first.stopped,ending.started,text_3.started,ending_key.started,ending.stopped,ending_key.keys,ending_key.rt,ending_key.duration,participant,session,date,expName,psychopyVersion,frameRate,expStart,
,,,,,,,,,,,,,,,,,,0.007433500000161075,5.602894300000116,space,5.551966799999946,None,,,,,,,,,,,,,,,,,,,,GSR_en,001,2025-03-07_11h03.49.435,MainFlow,2024.2.4,154.53275476289124,2025-03-07 11h04.21.127261 +0700,
2,2,1,6,letter/letten061.png,letter/lettkh155.png,0,0,0,z,0.9427173000001403,None,0,0,0,0,5.815627400000039,,,,,,,5.815627400000039,6.6330385000001115,6.643541000000141,6.643541000000141,7.590067500000032,z,0.9427173000001403,None,7.597547400000167,7.60559400000011,7.777235000000019,,,,,,,,,GSR_en,001,2025-03-07_11h03.49.435,MainFlow,2024.2.4,154.53275476289124,2025-03-07 11h04.21.127261 +0700,
2,1,2,2,letter/lettth142.png,letter/letten181.png,1,1,0,x,1.002258200000142,None,0,1,1,1,7.798192700000072,,,,,,,7.798192700000072,8.784679300000107,8.789575200000172,8.789575200000172,9.798699899999974,x,1.002258200000142,None,9.798908800000163,9.803607900000088,9.985289899999998,8.789575200000172,,,,,,,,GSR_en,001,2025-03-07_11h03.49.435,MainFlow,2024.2.4,154.53275476289124,2025-03-07 11h04.21.127261 +0700,
2,1,1,2,letter/letten181.png,letter/lettth142.png,2,2,0,z,0.4528208000001541,None,0,2,2,2,10.006254800000079,,,,,,,10.006254800000079,10.992475900000045,10.997541400000046,10.997541400000046,11.458818999999949,z,0.4528208000001541,None,11.459053199999971,11.465170899999976,11.644408200000044,10.997541400000046,,,,,,,,GSR_en,001,2025-03-07_11h03.49.435,MainFlow,2024.2.4,154.53275476289124,2025-03-07 11h04.21.127261 +0700,
2,2,1,8,letter/letten051.png,letter/lettkh035.png,3,3,0,z,0.3033828000000085,None,0,3,3,3,11.666500900000074,,,,,,,11.666500900000074,12.652132299999948,12.657075500000019,12.657075500000019,12.965241900000137,z,0.3033828000000085,None,12.965492199999971,12.971152999999958,13.151565699999992,12.657075500000019,,,,,,,,GSR_en,001,2025-03-07_11h03.49.435,MainFlow,2024.2.4,154.53275476289124,2025-03-07 11h04.21.127261 +0700,
2,3,2,2,letter/lettgr061.png,letter/letten061.png,4,4,0,x,0.2763025000001562,None,0,4,4,4,13.173511800000142,,,,,,,13.173511800000142,14.158910099999957,14.16399690000003,14.16399690000003,14.445402000000058,x,0.2763025000001562,None,14.445615000000089,14.451411600000029,14.63061400000015,14.16399690000003,,,,,,,,GSR_en,001,2025-03-07_11h03.49.435,MainFlow,2024.2.4,154.53275476289124,2025-03-07 11h04.21.127261 +0700,
2,3,1,7,letter/letten062.png,letter/lettgr065.png,5,5,0,z,0.2600886000000173,None,0,5,5,5,14.653342500000008,,,,,,,14.653342500000008,15.638537000000042,15.643878500000028,15.643878500000028,15.90988450000009,z,0.2600886000000173,None,15.910095200000114,15.917389100000037,16.09581019999996,15.643878500000028,,,,,,,,GSR_en,001,2025-03-07_11h03.49.435,MainFlow,2024.2.4,154.53275476289124,2025-03-07 11h04.21.127261 +0700,
2,2,1,7,letter/letten112.png,letter/lettkh083.png,6,6,0,z,0.24637579999989612,None,0,6,6,6,16.120714800000087,,,,,,,16.120714800000087,17.110419200000024,17.116019900000083,17.116019900000083,17.366215499999953,z,0.24637579999989612,None,17.366424600000073,17.373200400000087,17.554116700000122,17.116019900000083,,,,,,,,GSR_en,001,2025-03-07_11h03.49.435,MainFlow,2024.2.4,154.53275476289124,2025-03-07 11h04.21.127261 +0700,
2,1,1,1,letter/letten041.png,letter/lettth022.png,7,7,0,z,0.3132256999999754,None,0,7,7,7,17.57694790000005,,,,,,,17.57694790000005,18.561452099999997,18.566953900000044,18.566953900000044,18.889025200000106,z,0.3132256999999754,None,18.889237100000173,18.895921799999996,19.07480970000006,18.566953900000044,,,,,,,,GSR_en,001,2025-03-07_11h03.49.435,MainFlow,2024.2.4,154.53275476289124,2025-03-07 11h04.21.127261 +0700,
2,3,1,6,letter/letten061.png,letter/lettgr066.png,8,8,0,z,0.28153500000007625,None,0,8,8,8,19.097942800000055,,,,,,,19.097942800000055,20.08194720000006,20.08747510000012,20.08747510000012,20.37403130000007,z,0.28153500000007625,None,20.37426389999996,20.381681200000003,20.560205700000097,20.08747510000012,,,,,,,,GSR_en,001,2025-03-07_11h03.49.435,MainFlow,2024.2.4,154.53275476289124,2025-03-07 11h04.21.127261 +0700,
2,2,2,6,letter/lettkh155.png,letter/letten061.png,9,9,0,x,0.30523980000020856,None,0,9,9,9,20.584561500000063,,,,,,,20.584561500000063,21.575069100000064,21.580892200000108,21.580892200000108,21.895033799999965,x,0.30523980000020856,None,21.895244400000138,21.90103720000002,22.08103700000015,21.580892200000108,,,,,,,,GSR_en,001,2025-03-07_11h03.49.435,MainFlow,2024.2.4,154.53275476289124,2025-03-07 11h04.21.127261 +0700,
2,1,2,6,letter/lettth132.png,letter/letten091.png,10,10,0,x,0.21225410000010925,None,0,10,10,10,22.105343400000038,,,,,,,22.105343400000038,23.09547190000012,23.10100650000004,23.10100650000004,23.317859,x,0.21225410000010925,None,23.318071300000156,23.325152200000048,23.5043055000001,23.10100650000004,,,,,,,,GSR_en,001,2025-03-07_11h03.49.435,MainFlow,2024.2.4,154.53275476289124,2025-03-07 11h04.21.127261 +0700,
2,2,1,5,letter/letten051.png,letter/lettkh157.png,11,11,0,z,0.18439040000021123,None,0,11,11,11,23.5299050000001,,,,,,,23.5299050000001,24.518563300000096,24.524041099999977,24.524041099999977,24.713906299999962,z,0.18439040000021123,None,24.714161300000114,24.721379999999954,24.901537700000063,24.524041099999977,,,,,,,,GSR_en,001,2025-03-07_11h03.49.435,MainFlow,2024.2.4,154.53275476289124,2025-03-07 11h04.21.127261 +0700,
2,3,1,3,letter/letten061.png,letter/lettgr063.png,12,12,0,z,0.26675509999995484,None,0,12,12,12,24.926787600000125,,,,,,,24.926787600000125,25.91439349999996,25.92030650000015,25.92030650000015,26.19622530000015,z,0.26675509999995484,None,26.196434100000033,26.202427599999965,26.385811399999966,25.92030650000015,,,,,,,,GSR_en,001,2025-03-07_11h03.49.435,MainFlow,2024.2.4,154.53275476289124,2025-03-07 11h04.21.127261 +0700,
2,2,2,8,letter/lettkh035.png,letter/letten051.png,13,13,0,x,0.23159789999999703,None,0,13,13,13,26.40955030000009,,,,,,,26.40955030000009,27.398909500000173,27.405005200000005,27.405005200000005,27.641791400000102,x,0.23159789999999703,None,27.642002100000127,27.649087200000167,27.829874000000018,,,,,,,,,GSR_en,001,2025-03-07_11h03.49.435,MainFlow,2024.2.4,154.53275476289124,2025-03-07 11h04.21.127261 +0700,
2,1,2,3,letter/lettth152.png,letter/letten142.png,14,14,0,x,0.2530466000000615,None,0,14,14,14,27.854401800000005,,,,,,,27.854401800000005,28.84330829999999,28.84833780000008,28.84833780000008,29.108506700000135,x,0.2530466000000615,None,29.108722800000123,29.113735800000086,29.294034499999952,28.84833780000008,,,,,,,,GSR_en,001,2025-03-07_11h03.49.435,MainFlow,2024.2.4,154.53275476289124,2025-03-07 11h04.21.127261 +0700,
2,2,2,6,letter/lettkh155.png,letter/letten061.png,15,15,0,x,0.19618609999997716,None,0,15,15,15,29.316655900000114,,,,,,,29.316655900000114,30.30141709999998,30.30633160000002,30.30633160000002,30.510828400000037,x,0.19618609999997716,None,30.511036200000035,30.515774500000134,30.696482900000092,30.30633160000002,,,,,,,,GSR_en,001,2025-03-07_11h03.49.435,MainFlow,2024.2.4,154.53275476289124,2025-03-07 11h04.21.127261 +0700,
2,3,1,1,letter/letten021.png,letter/lettgr021.png,16,16,0,z,0.21858359999987442,None,0,16,16,16,30.748355599999968,,,,,,,30.748355599999968,31.716622700000016,31.722767500000145,31.722767500000145,31.948866500000122,z,0.21858359999987442,None,31.94907830000011,31.954755100000057,32.13376040000003,,,,,,,,,GSR_en,001,2025-03-07_11h03.49.435,MainFlow,2024.2.4,154.53275476289124,2025-03-07 11h04.21.127261 +0700,
2,3,1,3,letter/letten061.png,letter/lettgr063.png,17,17,0,z,0.24197589999994307,None,0,17,17,17,32.156036300000096,,,,,,,32.156036300000096,33.14104659999998,33.146768700000166,33.146768700000166,33.3920442000001,z,0.24197589999994307,None,33.39225260000012,33.39874310000005,33.57781480000017,33.146768700000166,,,,,,,,GSR_en,001,2025-03-07_11h03.49.435,MainFlow,2024.2.4,154.53275476289124,2025-03-07 11h04.21.127261 +0700,
2,2,1,1,letter/letten153.png,letter/lettkh159.png,18,18,0,z,0.22450230000004012,None,0,18,18,18,33.62783360000003,,,,,,,33.62783360000003,34.59794920000013,34.60413130000006,34.60413130000006,34.8355633000001,z,0.22450230000004012,None,34.83577330000003,34.84086909999996,35.022106699999995,,,,,,,,,GSR_en,001,2025-03-07_11h03.49.435,MainFlow,2024.2.4,154.53275476289124,2025-03-07 11h04.21.127261 +0700,
2,1,1,6,letter/letten091.png,letter/lettth132.png,19,19,0,z,0.24484979999988354,None,0,19,19,19,35.07041960000015,,,,,,,35.07041960000015,36.042265199999974,36.04839609999999,36.04839609999999,36.300749100000075,z,0.24484979999988354,None,36.30095960000017,36.305909000000156,36.48702800000001,,,,,,,,,GSR_en,001,2025-03-07_11h03.49.435,MainFlow,2024.2.4,154.53275476289124,2025-03-07 11h04.21.127261 +0700,
2,3,2,5,letter/lettgr012.png,letter/letten011.png,20,20,0,x,0.38881499999979496,None,0,20,20,20,36.53794779999998,,,,,,,36.53794779999998,37.50757429999999,37.51350240000011,37.51350240000011,37.905368599999974,x,0.38881499999979496,None,37.90560440000013,37.911453000000165,38.09147030000008,,,,,,,,,GSR_en,001,2025-03-07_11h03.49.435,MainFlow,2024.2.4,154.53275476289124,2025-03-07 11h04.21.127261 +0700,
2,1,1,2,letter/letten181.png,letter/lettth142.png,21,21,0,z,0.22633459999997285,None,0,21,21,21,38.11499600000002,,,,,,,38.11499600000002,39.10574510000015,39.11094920000005,39.11094920000005,39.34244980000017,z,0.22633459999997285,None,39.34265359999995,39.34857750000015,39.5287816,39.11094920000005,,,,,,,,GSR_en,001,2025-03-07_11h03.49.435,MainFlow,2024.2.4,154.53275476289124,2025-03-07 11h04.21.127261 +0700,
2,2,1,5,letter/letten051.png,letter/lettkh157.png,22,22,0,z,0.27501429999983884,None,0,22,22,22,39.55272940000009,,,,,,,39.55272940000009,40.54347890000008,40.54911949999996,40.54911949999996,40.828545100000156,z,0.27501429999983884,None,40.82875850000005,40.8352625,41.01496650000013,40.54911949999996,,,,,,,,GSR_en,001,2025-03-07_11h03.49.435,MainFlow,2024.2.4,154.53275476289124,2025-03-07 11h04.21.127261 +0700,
2,3,1,4,letter/letten062.png,letter/lettgr063.png,23,23,0,z,0.19783860000006825,None,0,23,23,23,41.03799660000004,,,,,,,41.03799660000004,42.02823179999996,42.0330864,42.0330864,42.23739610000007,z,0.19783860000006825,None,42.237603100000115,42.24475000000007,42.423336800000016,42.0330864,,,,,,,,GSR_en,001,2025-03-07_11h03.49.435,MainFlow,2024.2.4,154.53275476289124,2025-03-07 11h04.21.127261 +0700,
2,3,2,3,letter/lettgr063.png,letter/letten061.png,24,24,0,x,0.2863033999999516,None,0,24,24,24,42.47505390000015,,,,,,,42.47505390000015,43.44315890000007,43.44942850000007,43.44942850000007,43.744319399999995,x,0.2863033999999516,None,43.74454370000012,43.75080830000002,43.92995010000004,,,,,,,,,GSR_en,001,2025-03-07_11h03.49.435,MainFlow,2024.2.4,154.53275476289124,2025-03-07 11h04.21.127261 +0700,
2,2,2,5,letter/lettkh157.png,letter/letten051.png,25,25,0,x,0.288172300000042,None,0,25,25,25,43.989846599999964,,,,,,,43.989846599999964,44.95013860000017,44.9563591000001,44.9563591000001,45.2509113000001,x,0.288172300000042,None,45.251118099999985,45.25753640000016,45.43724350000002,,,,,,,,,GSR_en,001,2025-03-07_11h03.49.435,MainFlow,2024.2.4,154.53275476289124,2025-03-07 11h04.21.127261 +0700,
2,3,1,5,letter/letten011.png,letter/lettgr012.png,26,26,0,z,0.24773690000006354,None,0,26,26,26,45.48839390000012,,,,,,,45.48839390000012,46.45686139999998,46.46289539999998,46.46289539999998,46.71556620000001,z,0.24773690000006354,None,46.71577960000013,46.72126679999997,46.90167990000009,,,,,,,,,GSR_en,001,2025-03-07_11h03.49.435,MainFlow,2024.2.4,154.53275476289124,2025-03-07 11h04.21.127261 +0700,
2,3,1,1,letter/letten021.png,letter/lettgr021.png,27,27,0,z,0.25706960000002255,None,0,27,27,27,46.923332600000094,,,,,,,46.923332600000094,47.90912760000015,47.914301199999954,47.914301199999954,48.174048100000164,z,0.25706960000002255,None,48.17425980000007,48.18116430000009,48.35958260000007,47.914301199999954,,,,,,,,GSR_en,001,2025-03-07_11h03.49.435,MainFlow,2024.2.4,154.53275476289124,2025-03-07 11h04.21.127261 +0700,
2,2,1,8,letter/letten051.png,letter/lettkh035.png,28,28,0,z,0.22779590000004646,None,0,28,28,28,48.38099390000002,,,,,,,48.38099390000002,49.36722170000007,49.37235120000014,49.37235120000014,49.60367889999998,z,0.22779590000004646,None,49.60389260000011,49.60972700000002,49.79020270000001,49.37235120000014,,,,,,,,GSR_en,001,2025-03-07_11h03.49.435,MainFlow,2024.2.4,154.53275476289124,2025-03-07 11h04.21.127261 +0700,
2,3,1,4,letter/letten062.png,letter/lettgr063.png,29,29,0,z,0.2321361000001616,None,0,29,29,29,49.81388740000011,,,,,,,49.81388740000011,50.80453179999995,50.809592400000156,50.809592400000156,51.04823740000006,z,0.2321361000001616,None,51.04844930000013,51.05468840000003,51.2345636,50.809592400000156,,,,,,,,GSR_en,001,2025-03-07_11h03.49.435,MainFlow,2024.2.4,154.53275476289124,2025-03-07 11h04.21.127261 +0700,
2,1,2,8,letter/lettth022.png,letter/letten131.png,30,30,0,x,0.19586759999992864,None,0,30,30,30,51.285622900000135,,,,,,,51.285622900000135,52.25451700000008,52.26081999999997,52.26081999999997,52.46730070000012,x,0.19586759999992864,None,52.46768799999995,52.47445579999999,52.65111640000009,,,,,,,,,GSR_en,001,2025-03-07_11h03.49.435,MainFlow,2024.2.4,154.53275476289124,2025-03-07 11h04.21.127261 +0700,
2,2,1,1,letter/letten153.png,letter/lettkh159.png,31,31,0,z,0.21909419999997226,None,0,31,31,31,52.67275560000007,,,,,,,52.67275560000007,53.6588412000001,53.66437380000002,53.66437380000002,53.88847090000013,z,0.21909419999997226,None,53.8886844000001,53.895153300000175,54.07474750000006,53.66437380000002,,,,,,,,GSR_en,001,2025-03-07_11h03.49.435,MainFlow,2024.2.4,154.53275476289124,2025-03-07 11h04.21.127261 +0700,
2,2,1,4,letter/letten071.png,letter/lettkh055.png,32,32,0,z,0.30265049999979965,None,0,32,32,32,54.135455600000114,,,,,,,54.135455600000114,55.09492440000008,55.101033700000016,55.101033700000016,55.40901810000014,z,0.30265049999979965,None,55.40932290000001,55.41598769999996,55.59538999999995,,,,,,,,,GSR_en,001,2025-03-07_11h03.49.435,MainFlow,2024.2.4,154.53275476289124,2025-03-07 11h04.21.127261 +0700,
2,1,1,5,letter/letten121.png,letter/lettth101.png,33,33,0,z,0.26465110000003733,None,0,33,33,33,55.64732849999996,,,,,,,55.64732849999996,56.61506520000012,56.62133790000007,56.62133790000007,56.88858870000013,z,0.26465110000003733,None,56.88880160000008,56.89535799999999,57.07464670000013,,,,,,,,,GSR_en,001,2025-03-07_11h03.49.435,MainFlow,2024.2.4,154.53275476289124,2025-03-07 11h04.21.127261 +0700,
2,2,2,4,letter/lettkh055.png,letter/letten071.png,34,34,0,x,0.22727439999994203,None,0,34,34,34,57.123657500000036,,,,,,,57.123657500000036,58.094341400000076,58.100457700000106,58.100457700000106,58.33204430000001,x,0.22727439999994203,None,58.332260600000154,58.33940010000015,58.51828810000006,,,,,,,,,GSR_en,001,2025-03-07_11h03.49.435,MainFlow,2024.2.4,154.53275476289124,2025-03-07 11h04.21.127261 +0700,
2,1,1,5,letter/letten121.png,letter/lettth101.png,35,35,0,z,0.26952060000007805,None,0,35,35,35,58.54147160000002,,,,,,,58.54147160000002,59.52613059999999,59.53206050000017,59.53206050000017,59.8048960000001,z,0.26952060000007805,None,59.80510980000008,59.811762000000044,59.991118500000084,59.53206050000017,,,,,,,,GSR_en,001,2025-03-07_11h03.49.435,MainFlow,2024.2.4,154.53275476289124,2025-03-07 11h04.21.127261 +0700,
2,2,2,3,letter/lettkh091.png,letter/letten071.png,36,36,0,x,0.24690049999981056,None,0,36,36,36,60.047433100000035,,,,,,,60.047433100000035,61.01011029999995,61.016358900000114,61.016358900000114,61.26814430000013,x,0.24690049999981056,None,61.268281000000115,61.27355650000004,61.45534610000004,,,,,,,,,GSR_en,001,2025-03-07_11h03.49.435,MainFlow,2024.2.4,154.53275476289124,2025-03-07 11h04.21.127261 +0700,
2,2,1,6,letter/letten061.png,letter/lettkh155.png,37,37,0,z,0.28287909999994554,None,0,37,37,37,61.479259200000115,,,,,,,61.479259200000115,62.468576500000154,62.47538240000017,62.47538240000017,62.76295360000017,z,0.28287909999994554,None,62.76315629999999,62.769809099999975,62.948143600000094,,,,,,,,,GSR_en,001,2025-03-07_11h03.49.435,MainFlow,2024.2.4,154.53275476289124,2025-03-07 11h04.21.127261 +0700,
2,1,1,4,letter/letten101.png,letter/lettth011.png,38,38,0,z,0.23052680000000692,None,0,38,38,38,62.9971329,,,,,,,62.9971329,63.96820279999997,63.97432290000006,63.97432290000006,64.21413819999998,z,0.23052680000000692,None,64.21434790000012,64.21998460000009,64.39920989999996,,,,,,,,,GSR_en,001,2025-03-07_11h03.49.435,MainFlow,2024.2.4,154.53275476289124,2025-03-07 11h04.21.127261 +0700,
2,3,2,4,letter/lettgr063.png,letter/letten062.png,39,39,0,x,0.1545074000000568,None,0,39,39,39,64.42264130000012,,,,,,,64.42264130000012,65.40657180000017,65.41252469999995,65.41252469999995,65.57560269999999,x,0.1545074000000568,None,65.57582040000011,65.58198930000003,65.75988129999996,65.41252469999995,,,,,,,,GSR_en,001,2025-03-07_11h03.49.435,MainFlow,2024.2.4,154.53275476289124,2025-03-07 11h04.21.127261 +0700,
2,3,1,2,letter/letten061.png,letter/lettgr061.png,40,40,0,z,0.18456639999999425,None,0,40,40,40,65.78291290000016,,,,,,,65.78291290000016,66.76736330000017,66.77305630000001,66.77305630000001,66.96217790000014,z,0.18456639999999425,None,66.96239160000005,66.96983320000004,67.14850539999998,66.77305630000001,,,,,,,,GSR_en,001,2025-03-07_11h03.49.435,MainFlow,2024.2.4,154.53275476289124,2025-03-07 11h04.21.127261 +0700,
2,2,2,7,letter/lettkh083.png,letter/letten112.png,41,41,0,x,0.23510409999994408,None,0,41,41,41,67.19929820000016,,,,,,,67.19929820000016,68.16894339999999,68.17552230000001,68.17552230000001,68.4134282,x,0.23510409999994408,None,68.41364270000008,68.42160110000009,68.60186680000015,,,,,,,,,GSR_en,001,2025-03-07_11h03.49.435,MainFlow,2024.2.4,154.53275476289124,2025-03-07 11h04.21.127261 +0700,
2,1,2,2,letter/lettth142.png,letter/letten181.png,42,42,0,x,0.23607250000009117,None,0,42,42,42,68.62748250000004,,,,,,,68.62748250000004,69.61412840000003,69.61949750000008,69.61949750000008,69.85806030000003,x,0.23607250000009117,None,69.85827089999998,69.8656899,70.04386590000013,69.61949750000008,,,,,,,,GSR_en,001,2025-03-07_11h03.49.435,MainFlow,2024.2.4,154.53275476289124,2025-03-07 11h04.21.127261 +0700,
2,2,1,7,letter/letten112.png,letter/lettkh083.png,43,43,0,z,0.23675869999988208,None,0,43,43,43,70.06721570000013,,,,,,,70.06721570000013,71.05144659999996,71.05700030000003,71.05700030000003,71.30330920000006,z,0.23675869999988208,None,71.30352289999996,71.30985370000008,71.48792430000003,71.05700030000003,,,,,,,,GSR_en,001,2025-03-07_11h03.49.435,MainFlow,2024.2.4,154.53275476289124,2025-03-07 11h04.21.127261 +0700,
2,2,2,3,letter/lettkh091.png,letter/letten071.png,44,44,0,x,0.24125619999995251,None,0,44,44,44,71.51218410000001,,,,,,,71.51218410000001,72.50312989999998,72.50868890000015,72.50868890000015,72.75895250000008,x,0.24125619999995251,None,72.75916280000001,72.76562669999998,72.94592669999997,72.50868890000015,,,,,,,,GSR_en,001,2025-03-07_11h03.49.435,MainFlow,2024.2.4,154.53275476289124,2025-03-07 11h04.21.127261 +0700,
2,2,2,5,letter/lettkh157.png,letter/letten051.png,45,45,0,x,0.23984710000013365,None,0,45,45,45,72.97013360000005,,,,,,,72.97013360000005,73.95930930000009,73.96441140000002,73.96441140000002,74.21016710000004,x,0.23984710000013365,None,74.21037640000009,74.21602989999997,74.39699070000006,73.96441140000002,,,,,,,,GSR_en,001,2025-03-07_11h03.49.435,MainFlow,2024.2.4,154.53275476289124,2025-03-07 11h04.21.127261 +0700,
2,1,2,3,letter/lettth152.png,letter/letten142.png,46,46,0,x,0.27710739999997713,None,0,46,46,46,74.42027830000006,,,,,,,74.42027830000006,75.4104999000001,75.4155902,75.4155902,75.6961851000001,x,0.27710739999997713,None,75.69639690000008,75.70291240000006,75.88215409999998,75.4155902,,,,,,,,GSR_en,001,2025-03-07_11h03.49.435,MainFlow,2024.2.4,154.53275476289124,2025-03-07 11h04.21.127261 +0700,
2,2,2,2,letter/lettkh013.png,letter/letten121.png,47,47,0,x,0.24453859999994165,None,0,47,47,47,75.93639440000015,,,,,,,75.93639440000015,76.90229450000015,76.90842829999997,76.90842829999997,77.16140889999997,x,0.24453859999994165,None,77.16162440000016,77.16664579999997,77.34733619999997,,,,,,,,,GSR_en,001,2025-03-07_11h03.49.435,MainFlow,2024.2.4,154.53275476289124,2025-03-07 11h04.21.127261 +0700,
2,1,2,6,letter/lettth132.png,letter/letten091.png,48,48,0,x,0.22967480000011165,None,0,48,48,48,77.37205760000006,,,,,,,77.37205760000006,78.3614864000001,78.366397,78.366397,78.59847379999997,x,0.22967480000011165,None,78.59868340000003,78.60483139999997,78.78431230000001,78.366397,,,,,,,,GSR_en,001,2025-03-07_11h03.49.435,MainFlow,2024.2.4,154.53275476289124,2025-03-07 11h04.21.127261 +0700,
2,1,2,1,letter/lettth022.png,letter/letten041.png,49,49,0,x,0.23766070000010586,None,0,49,49,49,78.80655769999998,,,,,,,78.80655769999998,79.7916616,79.79668730000003,79.79668730000003,80.04313390000016,x,0.23766070000010586,None,80.04334080000012,80.0482062000001,80.22873170000003,79.79668730000003,,,,,,,,GSR_en,001,2025-03-07_11h03.49.435,MainFlow,2024.2.4,154.53275476289124,2025-03-07 11h04.21.127261 +0700,
2,1,1,3,letter/letten142.png,letter/lettth152.png,50,50,0,z,0.22502629999985402,None,0,50,50,50,80.27405620000013,,,,,,,80.27405620000013,81.24873649999995,81.25484940000001,81.25484940000001,81.48679310000011,z,0.22502629999985402,None,81.48703290000003,81.49290700000006,81.67281539999999,,,,,,,,,GSR_en,001,2025-03-07_11h03.49.435,MainFlow,2024.2.4,154.53275476289124,2025-03-07 11h04.21.127261 +0700,
2,1,2,8,letter/lettth022.png,letter/letten131.png,51,51,0,x,0.09107080000012502,None,0,51,51,51,81.69802479999998,,,,,,,81.69802479999998,82.68736439999998,82.69229459999997,82.69229459999997,82.78622510000014,x,0.09107080000012502,None,82.78645589999996,82.79241130000014,82.97154650000016,82.69229459999997,,,,,,,,GSR_en,001,2025-03-07_11h03.49.435,MainFlow,2024.2.4,154.53275476289124,2025-03-07 11h04.21.127261 +0700,
2,2,1,2,letter/letten121.png,letter/lettkh013.png,52,52,0,z,0.21092029999999795,None,0,52,52,52,82.99425829999996,,,,,,,82.99425829999996,83.9786368,83.98380680000014,83.98380680000014,84.20231409999997,z,0.21092029999999795,None,84.20252449999998,84.20791720000011,84.38806910000017,83.98380680000014,,,,,,,,GSR_en,001,2025-03-07_11h03.49.435,MainFlow,2024.2.4,154.53275476289124,2025-03-07 11h04.21.127261 +0700,
2,3,1,2,letter/letten061.png,letter/lettgr061.png,53,53,0,z,0.19996099999980288,None,0,53,53,53,84.41094840000005,,,,,,,84.41094840000005,85.39600700000005,85.40154350000012,85.40154350000012,85.60483120000004,z,0.19996099999980288,None,85.60508140000002,85.61151810000001,85.79010760000006,85.40154350000012,,,,,,,,GSR_en,001,2025-03-07_11h03.49.435,MainFlow,2024.2.4,154.53275476289124,2025-03-07 11h04.21.127261 +0700,
2,2,2,1,letter/lettkh159.png,letter/letten153.png,54,54,0,x,0.1666050000001178,None,0,54,54,54,85.84103900000014,,,,,,,85.84103900000014,86.81010730000003,86.81622289999996,86.81622289999996,86.98570300000006,x,0.1666050000001178,None,86.98591090000014,86.99251720000007,87.17156190000014,,,,,,,,,GSR_en,001,2025-03-07_11h03.49.435,MainFlow,2024.2.4,154.53275476289124,2025-03-07 11h04.21.127261 +0700,
2,1,1,4,letter/letten101.png,letter/lettth011.png,55,55,0,z,0.21673680000003515,None,0,55,55,55,87.19262690000005,,,,,,,87.19262690000005,88.17823020000014,88.1838623000001,88.1838623000001,88.40394300000003,z,0.21673680000003515,None,88.40415550000012,88.40962230000014,88.58819779999999,88.1838623000001,,,,,,,,GSR_en,001,2025-03-07_11h03.49.435,MainFlow,2024.2.4,154.53275476289124,2025-03-07 11h04.21.127261 +0700,
2,3,1,8,letter/letten152.png,letter/lettgr152.png,56,56,0,z,0.20963610000012523,None,0,56,56,56,88.63855820000003,,,,,,,88.63855820000003,89.6083900000001,89.61444419999998,89.61444419999998,89.83242440000004,z,0.20963610000012523,None,89.8326277000001,89.83900410000001,90.01858420000008,,,,,,,,,GSR_en,001,2025-03-07_11h03.49.435,MainFlow,2024.2.4,154.53275476289124,2025-03-07 11h04.21.127261 +0700,
2,3,2,1,letter/lettgr021.png,letter/letten021.png,57,57,0,x,0.2289290000001074,None,0,57,57,57,90.07033410000008,,,,,,,90.07033410000008,91.03880260000005,91.04566599999998,91.04566599999998,91.27756360000012,x,0.2289290000001074,None,91.27777330000004,91.28357440000013,91.4628474000001,,,,,,,,,GSR_en,001,2025-03-07_11h03.49.435,MainFlow,2024.2.4,154.53275476289124,2025-03-07 11h04.21.127261 +0700,
2,1,2,7,letter/lettth132.png,letter/letten062.png,58,58,0,x,0.2154014999998708,None,0,58,58,58,91.48527600000011,,,,,,,91.48527600000011,92.46969839999997,92.47526940000012,92.47526940000012,92.6924692,x,0.2154014999998708,None,92.69260299999996,92.69743800000015,92.87971919999995,92.47526940000012,,,,,,,,GSR_en,001,2025-03-07_11h03.49.435,MainFlow,2024.2.4,154.53275476289124,2025-03-07 11h04.21.127261 +0700,
2,3,2,2,letter/lettgr061.png,letter/letten061.png,59,59,0,x,0.23981270000012955,None,0,59,59,59,92.90427339999997,,,,,,,92.90427339999997,93.89307380000014,93.89913739999997,93.89913739999997,94.14460770000005,x,0.23981270000012955,None,94.14481730000011,94.1526073,94.33068120000007,,,,,,,,,GSR_en,001,2025-03-07_11h03.49.435,MainFlow,2024.2.4,154.53275476289124,2025-03-07 11h04.21.127261 +0700,
2,2,2,4,letter/lettkh055.png,letter/letten071.png,60,60,0,x,0.2492062999999689,None,0,60,60,60,94.35486319999995,,,,,,,94.35486319999995,95.34507450000001,95.3507247,95.3507247,95.60323870000002,x,0.2492062999999689,None,95.60347539999998,95.61060410000005,95.78882470000008,95.3507247,,,,,,,,GSR_en,001,2025-03-07_11h03.49.435,MainFlow,2024.2.4,154.53275476289124,2025-03-07 11h04.21.127261 +0700,
2,1,2,5,letter/lettth101.png,letter/letten121.png,61,61,0,x,0.15518010000005233,None,0,61,61,61,95.84359600000016,,,,,,,95.84359600000016,96.80999420000012,96.81566310000017,96.81566310000017,96.9792672000001,x,0.15518010000005233,None,96.97950000000014,96.98558860000003,97.16286800000012,,,,,,,,,GSR_en,001,2025-03-07_11h03.49.435,MainFlow,2024.2.4,154.53275476289124,2025-03-07 11h04.21.127261 +0700,
2,3,1,8,letter/letten152.png,letter/lettgr152.png,62,62,0,z,0.24463730000002215,None,0,62,62,62,97.17821279999998,,,,,,,97.17821279999998,98.164039,98.16983890000006,98.16983890000006,98.42171880000001,z,0.24463730000002215,None,98.42193199999997,98.42787450000014,98.60770200000002,98.16983890000006,,,,,,,,GSR_en,001,2025-03-07_11h03.49.435,MainFlow,2024.2.4,154.53275476289124,2025-03-07 11h04.21.127261 +0700,
2,1,2,5,letter/lettth101.png,letter/letten121.png,63,63,0,x,0.25967100000002574,None,0,63,63,63,98.63157079999996,,,,,,,98.63157079999996,99.61580249999997,99.62136680000003,99.62136680000003,99.88632970000003,x,0.25967100000002574,None,99.88662210000007,99.89303270000005,100.0745131000001,99.62136680000003,,,,,,,,GSR_en,001,2025-03-07_11h03.49.435,MainFlow,2024.2.4,154.53275476289124,2025-03-07 11h04.21.127261 +0700,
2,3,2,8,letter/lettgr152.png,letter/letten152.png,64,64,0,x,0.226311300000134,None,0,64,64,64,100.12644690000002,,,,,,,100.12644690000002,101.09318099999996,101.09911540000007,101.09911540000007,101.3304247000001,x,0.226311300000134,None,101.33063779999998,101.33815140000002,101.51664090000008,,,,,,,,,GSR_en,001,2025-03-07_11h03.49.435,MainFlow,2024.2.4,154.53275476289124,2025-03-07 11h04.21.127261 +0700,
2,2,1,2,letter/letten121.png,letter/lettkh013.png,65,65,0,z,0.22195059999990008,None,0,65,65,65,101.53171770000017,,,,,,,101.53171770000017,102.51651660000016,102.521614,102.521614,102.74669480000011,z,0.22195059999990008,None,102.74690450000003,102.75261279999995,102.93233580000015,102.521614,,,,,,,,GSR_en,001,2025-03-07_11h03.49.435,MainFlow,2024.2.4,154.53275476289124,2025-03-07 11h04.21.127261 +0700,
2,3,1,5,letter/letten011.png,letter/lettgr012.png,66,66,0,z,0.23809659999983523,None,0,66,66,66,102.95688440000004,,,,,,,102.95688440000004,103.94708730000002,103.95234380000011,103.95234380000011,104.19817439999997,z,0.23809659999983523,None,104.19838849999996,104.20353260000002,104.38369499999999,103.95234380000011,,,,,,,,GSR_en,001,2025-03-07_11h03.49.435,MainFlow,2024.2.4,154.53275476289124,2025-03-07 11h04.21.127261 +0700,
2,2,1,3,letter/letten071.png,letter/lettkh091.png,67,67,0,z,0.19828819999997904,None,0,67,67,67,104.4059079000001,,,,,,,104.4059079000001,105.39137400000004,105.39647190000005,105.39647190000005,105.60004520000007,z,0.19828819999997904,None,105.60028150000016,105.60659400000009,105.78654470000015,105.39647190000005,,,,,,,,GSR_en,001,2025-03-07_11h03.49.435,MainFlow,2024.2.4,154.53275476289124,2025-03-07 11h04.21.127261 +0700,
2,1,1,8,letter/letten131.png,letter/lettth022.png,68,68,0,z,0.23218339999993987,None,0,68,68,68,105.83345929999996,,,,,,,105.83345929999996,106.80620900000008,106.81246469999996,106.81246469999996,107.05104200000005,z,0.23218339999993987,None,107.05125280000016,107.05731620000006,107.23775530000012,,,,,,,,,GSR_en,001,2025-03-07_11h03.49.435,MainFlow,2024.2.4,154.53275476289124,2025-03-07 11h04.21.127261 +0700,
2,3,2,4,letter/lettgr063.png,letter/letten062.png,69,69,0,x,0.19346429999995962,None,0,69,69,69,107.26057560000004,,,,,,,107.26057560000004,108.24458230000005,108.24955320000004,108.24955320000004,108.4474897,x,0.19346429999995962,None,108.4477402,108.45390610000004,108.63307520000012,108.24955320000004,,,,,,,,GSR_en,001,2025-03-07_11h03.49.435,MainFlow,2024.2.4,154.53275476289124,2025-03-07 11h04.21.127261 +0700,
2,1,1,6,letter/letten091.png,letter/lettth132.png,70,70,0,z,0.1787843999998131,None,0,70,70,70,108.65784310000004,,,,,,,108.65784310000004,109.64765390000002,109.65394820000006,109.65394820000006,109.835869,z,0.1787843999998131,None,109.83608560000016,109.84185580000008,110.02140469999995,109.65394820000006,,,,,,,,GSR_en,001,2025-03-07_11h03.49.435,MainFlow,2024.2.4,154.53275476289124,2025-03-07 11h04.21.127261 +0700,
2,3,2,3,letter/lettgr063.png,letter/letten061.png,71,71,0,x,0.21196580000014364,None,0,71,71,71,110.04704749999996,,,,,,,110.04704749999996,111.03526899999997,111.04102030000013,111.04102030000013,111.25861200000008,x,0.21196580000014364,None,111.25882539999998,111.26539470000012,111.44509710000011,111.04102030000013,,,,,,,,GSR_en,001,2025-03-07_11h03.49.435,MainFlow,2024.2.4,154.53275476289124,2025-03-07 11h04.21.127261 +0700,
2,3,2,6,letter/lettgr066.png,letter/letten061.png,72,72,0,x,0.21728920000009566,None,0,72,72,72,111.49156170000015,,,,,,,111.49156170000015,112.46537560000002,112.47154850000015,112.47154850000015,112.69645830000013,x,0.21728920000009566,None,112.69667100000015,112.70222850000005,112.88262510000004,,,,,,,,,GSR_en,001,2025-03-07_11h03.49.435,MainFlow,2024.2.4,154.53275476289124,2025-03-07 11h04.21.127261 +0700,
2,3,2,7,letter/lettgr065.png,letter/letten062.png,73,73,0,x,0.2462527999998656,None,0,73,73,73,112.93078130000004,,,,,,,112.93078130000004,113.90318990000014,113.90919280000003,113.90919280000003,114.16179480000005,x,0.2462527999998656,None,114.16214030000015,114.16748470000016,114.34674220000011,,,,,,,,,GSR_en,001,2025-03-07_11h03.49.435,MainFlow,2024.2.4,154.53275476289124,2025-03-07 11h04.21.127261 +0700,
2,2,2,2,letter/lettkh013.png,letter/letten121.png,74,74,0,x,0.5870279999999184,None,0,74,74,74,114.36958570000002,,,,,,,114.36958570000002,115.35357490000001,115.35907910000014,115.35907910000014,115.95220710000012,x,0.5870279999999184,None,115.95259520000013,115.95854469999995,116.13833120000004,115.35907910000014,,,,,,,,GSR_en,001,2025-03-07_11h03.49.435,MainFlow,2024.2.4,154.53275476289124,2025-03-07 11h04.21.127261 +0700,
2,3,2,7,letter/lettgr065.png,letter/letten062.png,75,75,0,x,0.38690459999997984,None,0,75,75,75,116.16052280000008,,,,,,,116.16052280000008,117.14589550000005,117.15076250000016,117.15076250000016,117.5418717,x,0.38690459999997984,None,117.54208640000002,117.54764120000004,117.72840760000008,117.15076250000016,,,,,,,,GSR_en,001,2025-03-07_11h03.49.435,MainFlow,2024.2.4,154.53275476289124,2025-03-07 11h04.21.127261 +0700,
2,2,2,7,letter/lettkh083.png,letter/letten112.png,76,76,0,x,0.2614364999999452,None,0,76,76,76,117.75125100000014,,,,,,,117.75125100000014,118.73588689999997,118.7417402000001,118.7417402000001,119.0075746,x,0.2614364999999452,None,119.00778860000014,119.01376189999996,119.1937961000001,118.7417402000001,,,,,,,,GSR_en,001,2025-03-07_11h03.49.435,MainFlow,2024.2.4,154.53275476289124,2025-03-07 11h04.21.127261 +0700,
2,3,2,8,letter/lettgr152.png,letter/letten152.png,77,77,0,x,0.7510403999999653,None,0,77,77,77,119.21828400000004,,,,,,,119.21828400000004,120.20784750000007,120.21305040000016,120.21305040000016,120.97265020000009,x,0.7510403999999653,None,120.97285729999999,120.97877210000001,121.1585642,120.21305040000016,,,,,,,,GSR_en,001,2025-03-07_11h03.49.435,MainFlow,2024.2.4,154.53275476289124,2025-03-07 11h04.21.127261 +0700,
2,1,2,4,letter/lettth011.png,letter/letten101.png,78,78,0,x,0.7897137999998449,None,0,78,78,78,121.21658430000002,,,,,,,121.21658430000002,122.17920950000007,122.18531830000006,122.18531830000006,122.97861090000015,x,0.7897137999998449,None,122.97882550000008,122.98460620000014,123.16486510000004,,,,,,,,,GSR_en,001,2025-03-07_11h03.49.435,MainFlow,2024.2.4,154.53275476289124,2025-03-07 11h04.21.127261 +0700,
2,3,2,1,letter/lettgr021.png,letter/letten021.png,79,79,0,x,1.5821198999999524,None,0,79,79,79,123.1895379,,,,,,,123.1895379,124.17804810000007,124.18370389999995,124.18370389999995,125.76955040000007,x,1.5821198999999524,None,125.76976160000004,125.77553899999998,125.9560133,124.18370389999995,,,,,,,,GSR_en,001,2025-03-07_11h03.49.435,MainFlow,2024.2.4,154.53275476289124,2025-03-07 11h04.21.127261 +0700,
2,3,2,6,letter/lettgr066.png,letter/letten061.png,80,80,0,x,1.210260599999856,None,0,80,80,80,125.97969950000015,,,,,,,125.97969950000015,126.97044920000008,126.97535850000008,126.97535850000008,128.1938,x,1.210260599999856,None,128.19401400000015,128.19939870000007,128.37884810000014,126.97535850000008,,,,,,,,GSR_en,001,2025-03-07_11h03.49.435,MainFlow,2024.2.4,154.53275476289124,2025-03-07 11h04.21.127261 +0700,
2,1,2,7,letter/lettth132.png,letter/letten062.png,81,81,0,x,0.4080693999999312,None,0,81,81,81,128.3938584,,,,,,,128.3938584,129.3799153,129.38525060000006,129.38525060000006,129.7974653000001,x,0.4080693999999312,None,129.79767400000014,129.80429040000013,129.98383860000013,129.38525060000006,,,,,,,,GSR_en,001,2025-03-07_11h03.49.435,MainFlow,2024.2.4,154.53275476289124,2025-03-07 11h04.21.127261 +0700,
2,2,1,4,letter/letten071.png,letter/lettkh055.png,82,82,0,z,0.17848269999990407,None,0,82,82,82,130.00717329999998,,,,,,,130.00717329999998,130.99110459999997,130.99659250000013,130.99659250000013,131.17919940000002,z,0.17848269999990407,None,131.1794116000001,131.18665729999998,131.36553370000001,130.99659250000013,,,,,,,,GSR_en,001,2025-03-07_11h03.49.435,MainFlow,2024.2.4,154.53275476289124,2025-03-07 11h04.21.127261 +0700,
2,1,2,4,letter/lettth011.png,letter/letten101.png,83,83,0,x,0.33389089999991484,None,0,83,83,83,131.38909620000004,,,,,,,131.38909620000004,132.3796463000001,132.38506070000017,132.38506070000017,132.72866599999998,x,0.33389089999991484,None,132.72888239999997,132.7349091000001,132.91293180000002,132.38506070000017,,,,,,,,GSR_en,001,2025-03-07_11h03.49.435,MainFlow,2024.2.4,154.53275476289124,2025-03-07 11h04.21.127261 +0700,
2,1,1,7,letter/letten062.png,letter/lettth132.png,84,84,0,z,0.4195305000000644,None,0,84,84,84,132.9280099,,,,,,,132.9280099,133.91412430000014,133.91976120000004,133.91976120000004,134.34523809999996,z,0.4195305000000644,None,134.34544819999996,134.35222380000005,134.53133479999997,133.91976120000004,,,,,,,,GSR_en,001,2025-03-07_11h03.49.435,MainFlow,2024.2.4,154.53275476289124,2025-03-07 11h04.21.127261 +0700,
2,1,1,1,letter/letten041.png,letter/lettth022.png,85,85,0,z,0.4747461000001749,None,0,85,85,85,134.55405930000006,,,,,,,134.55405930000006,135.544709,135.54985839999995,135.54985839999995,136.031655,z,0.4747461000001749,None,136.03186520000008,136.03679639999996,136.21769059999997,135.54985839999995,,,,,,,,GSR_en,001,2025-03-07_11h03.49.435,MainFlow,2024.2.4,154.53275476289124,2025-03-07 11h04.21.127261 +0700,
2,1,1,7,letter/letten062.png,letter/lettth132.png,86,86,0,z,0.501722799999925,None,0,86,86,86,136.239374,,,,,,,136.239374,137.2250315000001,137.22990819999995,137.22990819999995,137.73989970000002,z,0.501722799999925,None,137.7401099000001,137.74611219999997,137.92570509999996,137.22990819999995,,,,,,,,GSR_en,001,2025-03-07_11h03.49.435,MainFlow,2024.2.4,154.53275476289124,2025-03-07 11h04.21.127261 +0700,
2,3,1,6,letter/letten061.png,letter/lettgr066.png,87,87,0,z,0.7119590999998309,None,0,87,87,87,137.94805829999996,,,,,,,137.94805829999996,138.9335748000001,138.93845269999997,138.93845269999997,139.65574230000016,z,0.7119590999998309,None,139.6559532000001,139.66160790000004,139.8424867000001,138.93845269999997,,,,,,,,GSR_en,001,2025-03-07_11h03.49.435,MainFlow,2024.2.4,154.53275476289124,2025-03-07 11h04.21.127261 +0700,
2,1,1,3,letter/letten142.png,letter/lettth152.png,88,88,0,z,1.1799075999999786,None,0,88,88,88,139.86415030000012,,,,,,,139.86415030000012,140.8497910000001,140.85499660000005,140.85499660000005,142.03682200000003,z,1.1799075999999786,None,142.03696300000001,142.04272779999997,142.22414230000004,140.85499660000005,,,,,,,,GSR_en,001,2025-03-07_11h03.49.435,MainFlow,2024.2.4,154.53275476289124,2025-03-07 11h04.21.127261 +0700,
2,3,2,5,letter/lettgr012.png,letter/letten011.png,89,89,0,x,0.352594100000033,None,0,89,89,89,142.24740799999995,,,,,,,142.24740799999995,143.2317809000001,143.23758410000005,143.23758410000005,143.59362940000005,x,0.352594100000033,None,143.59384240000009,143.6001887,143.77975420000007,143.23758410000005,,,,,,,,GSR_en,001,2025-03-07_11h03.49.435,MainFlow,2024.2.4,154.53275476289124,2025-03-07 11h04.21.127261 +0700,
2,2,2,8,letter/lettkh035.png,letter/letten051.png,90,90,0,x,0.33465129999990495,None,0,90,90,90,143.80312670000012,,,,,,,143.80312670000012,144.78704940000011,144.79259560000014,144.79259560000014,145.1361148000001,x,0.33465129999990495,None,145.13632819999998,145.14236800000003,145.32109179999998,144.79259560000014,,,,,,,,GSR_en,001,2025-03-07_11h03.49.435,MainFlow,2024.2.4,154.53275476289124,2025-03-07 11h04.21.127261 +0700,
2,1,1,8,letter/letten131.png,letter/lettth022.png,91,91,0,z,0.31894780000016,None,0,91,91,91,145.3442282000001,,,,,,,145.3442282000001,146.32767669999998,146.33318529999997,146.33318529999997,146.65549450000003,z,0.31894780000016,None,146.6557024000001,146.6609373000001,146.84099200000014,146.33318529999997,,,,,,,,GSR_en,001,2025-03-07_11h03.49.435,MainFlow,2024.2.4,154.53275476289124,2025-03-07 11h04.21.127261 +0700,
2,1,2,1,letter/lettth022.png,letter/letten041.png,92,92,0,x,0.27623339999991003,None,0,92,92,92,146.86332130000005,,,,,,,146.86332130000005,147.8482871000001,147.8531978000001,147.8531978000001,148.13343810000015,x,0.27623339999991003,None,148.1336745000001,148.139367,148.31929910000008,147.8531978000001,,,,,,,,GSR_en,001,2025-03-07_11h03.49.435,MainFlow,2024.2.4,154.53275476289124,2025-03-07 11h04.21.127261 +0700,
2,3,1,7,letter/letten062.png,letter/lettgr065.png,93,93,0,z,0.33346149999988484,None,0,93,93,93,148.34217460000013,,,,,,,148.34217460000013,149.3269239000001,149.33192860000008,149.33192860000008,149.66844200000014,z,0.33346149999988484,None,149.6686532000001,149.67454700000008,149.85403410000004,149.33192860000008,,,,,,,,GSR_en,001,2025-03-07_11h03.49.435,MainFlow,2024.2.4,154.53275476289124,2025-03-07 11h04.21.127261 +0700,
2,2,1,3,letter/letten071.png,letter/lettkh091.png,94,94,0,z,0.29087269999990895,None,0,94,94,94,149.87611289999995,,,,,,,149.87611289999995,150.86066270000015,150.86611230000017,150.86611230000017,151.16051860000016,z,0.29087269999990895,None,151.16073270000015,151.16747699999996,151.3467154,150.86611230000017,,,,,,,,GSR_en,001,2025-03-07_11h03.49.435,MainFlow,2024.2.4,154.53275476289124,2025-03-07 11h04.21.127261 +0700,
2,2,2,1,letter/lettkh159.png,letter/letten153.png,95,95,0,x,0.27783690000001116,None,0,95,95,95,151.36966430000007,,,,,,,151.36966430000007,152.35401220000017,152.3590686,152.3590686,152.63984370000003,x,0.27783690000001116,None,152.64005250000014,152.64557950000017,152.82572290000007,152.3590686,,,,,,,,GSR_en,001,2025-03-07_11h03.49.435,MainFlow,2024.2.4,154.53275476289124,2025-03-07 11h04.21.127261 +0700,
,,,,,,,,,,,,,,,,,,,,,,,,,,,,,,,,,,,152.82596869999998,152.83243300000004,152.83243300000004,155.02086899999995,space,2.1842346000000816,None,GSR_en,001,2025-03-07_11h03.49.435,MainFlow,2024.2.4,154.53275476289124,2025-03-07 11h04.21.127261 +0700,
