lang,langpair,sequence,pairid,firstdir,seconddir,thisN,thisTrialN,thisRepN,key_resp.keys,key_resp.rt,key_resp.duration,trials.thisRepN,trials.thisTrialN,trials.thisN,trials.thisIndex,thisRow.t,notes,tutorial.started,tutorial.stopped,key_instruct.keys,key_instruct.rt,key_instruct.duration,image_first.started,letterselect.started,instruct.started,key_resp.started,letterselect.stopped,trials.key_resp.keys,trials.key_resp.rt,trials.key_resp.duration,blanknext.started,instruct_2.started,blanknext.stopped,image_first.stopped,ending.started,text_3.started,ending_key.started,ending.stopped,ending_key.keys,ending_key.rt,ending_key.duration,participant,session,date,expName,psychopyVersion,frameRate,expStart,
,,,,,,,,,,,,,,,,,,0.0068489001132547855,9.818038099911064,space,9.783841300057247,None,,,,,,,,,,,,,,,,,,,,KH_en,001,2025-03-09_20h13.54.648,MainFlow,2024.2.4,143.81040079895573,2025-03-09 20h14.11.455210 +0700,
2,2,1,6,letter/letten061.png,letter/lettkh155.png,0,0,0,z,1.2154586999677122,None,0,0,0,0,9.863823899999261,,,,,,,9.863823899999261,10.828366900095716,10.836880600079894,10.836880600079894,12.053824299946427,z,1.2154586999677122,None,12.056315300054848,12.067347300006077,12.241340900072828,,,,,,,,,KH_en,001,2025-03-09_20h13.54.648,MainFlow,2024.2.4,143.81040079895573,2025-03-09 20h14.11.455210 +0700,
2,1,2,2,letter/lettth142.png,letter/letten181.png,1,1,0,x,0.18725820002146065,None,0,1,1,1,12.254872200079262,,,,,,,12.254872200079262,13.242359000025317,13.249014500062913,13.249014500062913,13.43724470003508,x,0.18725820002146065,None,13.437298800097778,13.443650499917567,13.624639800051227,13.249014500062913,,,,,,,,KH_en,001,2025-03-09_20h13.54.648,MainFlow,2024.2.4,143.81040079895573,2025-03-09 20h14.11.455210 +0700,
2,1,1,2,letter/letten181.png,letter/lettth142.png,2,2,0,z,0.20396300009451807,None,0,2,2,2,13.63827700004913,,,,,,,13.63827700004913,14.625681600067765,14.632321699988097,14.632321699988097,14.841415100032464,z,0.20396300009451807,None,14.841472600121051,14.847828899975866,15.02887549996376,14.632321699988097,,,,,,,,KH_en,001,2025-03-09_20h13.54.648,MainFlow,2024.2.4,143.81040079895573,2025-03-09 20h14.11.455210 +0700,
2,2,1,8,letter/letten051.png,letter/lettkh035.png,3,3,0,z,0.23176480014808476,None,0,3,3,3,15.042504800017923,,,,,,,15.042504800017923,16.029916800092906,16.036524000111967,16.036524000111967,16.27336369990371,z,0.23176480014808476,None,16.27342030010186,16.27979790000245,16.460788799915463,16.036524000111967,,,,,,,,KH_en,001,2025-03-09_20h13.54.648,MainFlow,2024.2.4,143.81040079895573,2025-03-09 20h14.11.455210 +0700,
2,3,2,2,letter/lettgr061.png,letter/letten061.png,4,4,0,x,0.19176940014585853,None,0,4,4,4,16.474453500006348,,,,,,,16.474453500006348,17.461828999919817,17.468504399992526,17.468504399992526,17.663720400072634,x,0.19176940014585853,None,17.663778699934483,17.67010200000368,17.85106200003065,17.468504399992526,,,,,,,,KH_en,001,2025-03-09_20h13.54.648,MainFlow,2024.2.4,143.81040079895573,2025-03-09 20h14.11.455210 +0700,
2,3,1,7,letter/letten062.png,letter/lettgr065.png,5,5,0,z,0.37848649988882244,None,0,5,5,5,17.86474630003795,,,,,,,17.86474630003795,18.85211839992553,18.858782999916002,18.858782999916002,19.241640799911693,z,0.37848649988882244,None,19.241696200100705,19.248081600060686,19.429060199996457,18.858782999916002,,,,,,,,KH_en,001,2025-03-09_20h13.54.648,MainFlow,2024.2.4,143.81040079895573,2025-03-09 20h14.11.455210 +0700,
2,2,1,7,letter/letten112.png,letter/lettkh083.png,6,6,0,z,1.3445067000575364,None,0,6,6,6,19.442700800020248,,,,,,,19.442700800020248,20.430094599956647,20.43676680000499,20.43676680000499,21.78586610010825,z,1.3445067000575364,None,21.785922799957916,21.79227160010487,21.973291900008917,20.43676680000499,,,,,,,,KH_en,001,2025-03-09_20h13.54.648,MainFlow,2024.2.4,143.81040079895573,2025-03-09 20h14.11.455210 +0700,
2,1,1,1,letter/letten041.png,letter/lettth022.png,7,7,0,z,0.2964075000490993,None,0,7,7,7,21.98691190010868,,,,,,,21.98691190010868,22.974338999949396,22.980870299972594,22.980870299972594,23.280413599917665,z,0.2964075000490993,None,23.2804688999895,23.286818400025368,23.467810299945995,22.980870299972594,,,,,,,,KH_en,001,2025-03-09_20h13.54.648,MainFlow,2024.2.4,143.81040079895573,2025-03-09 20h14.11.455210 +0700,
2,3,1,6,letter/letten061.png,letter/lettgr066.png,8,8,0,z,0.28974050004035234,None,0,8,8,8,23.48146830010228,,,,,,,23.48146830010228,24.468874899903312,24.475539500126615,24.475539500126615,24.76803690008819,z,0.28974050004035234,None,24.76809319993481,24.774302799953148,24.95543420012109,24.475539500126615,,,,,,,,KH_en,001,2025-03-09_20h13.54.648,MainFlow,2024.2.4,143.81040079895573,2025-03-09 20h14.11.455210 +0700,
2,2,2,6,letter/lettkh155.png,letter/letten061.png,9,9,0,x,0.37517450004816055,None,0,9,9,9,24.969075799919665,,,,,,,24.969075799919665,25.956459400011227,25.963106899987906,25.963106899987906,26.339223599992692,x,0.37517450004816055,None,26.339287100126967,26.345453399932012,26.526435400126502,25.963106899987906,,,,,,,,KH_en,001,2025-03-09_20h13.54.648,MainFlow,2024.2.4,143.81040079895573,2025-03-09 20h14.11.455210 +0700,
2,1,2,6,letter/lettth132.png,letter/letten091.png,10,10,0,x,0.22015840001404285,None,0,10,10,10,26.540097899967805,,,,,,,26.540097899967805,27.527496800059453,27.5341189999599,27.5341189999599,27.757100600050762,x,0.22015840001404285,None,27.757157100131735,27.763561700005084,27.944525599945337,27.5341189999599,,,,,,,,KH_en,001,2025-03-09_20h13.54.648,MainFlow,2024.2.4,143.81040079895573,2025-03-09 20h14.11.455210 +0700,
2,2,1,5,letter/letten051.png,letter/lettkh157.png,11,11,0,z,0.3740505001042038,None,0,11,11,11,27.958174800034612,,,,,,,27.958174800034612,28.94558749999851,28.95222510001622,28.95222510001622,29.328143799910322,z,0.3740505001042038,None,29.32820040010847,29.334556699963287,29.515557900071144,28.95222510001622,,,,,,,,KH_en,001,2025-03-09_20h13.54.648,MainFlow,2024.2.4,143.81040079895573,2025-03-09 20h14.11.455210 +0700,
2,3,1,3,letter/letten061.png,letter/lettgr063.png,12,12,0,z,0.21502520004287362,None,0,12,12,12,29.529197300085798,,,,,,,29.529197300085798,30.5166211000178,30.523249899968505,30.523249899968505,30.73929150006734,z,0.21502520004287362,None,30.73934719990939,30.745687700109556,30.92670250008814,30.523249899968505,,,,,,,,KH_en,001,2025-03-09_20h13.54.648,MainFlow,2024.2.4,143.81040079895573,2025-03-09 20h14.11.455210 +0700,
2,2,2,8,letter/lettkh035.png,letter/letten051.png,13,13,0,x,0.2639235998503864,None,0,13,13,13,30.940335599938408,,,,,,,30.940335599938408,31.927726600086316,31.934361699968576,31.934361699968576,32.199396200012416,x,0.2639235998503864,None,32.199455599999055,32.205530599923804,32.38647280004807,31.934361699968576,,,,,,,,KH_en,001,2025-03-09_20h13.54.648,MainFlow,2024.2.4,143.81040079895573,2025-03-09 20h14.11.455210 +0700,
2,1,2,3,letter/lettth152.png,letter/letten142.png,14,14,0,x,0.2931037999223918,None,0,14,14,14,32.40012879995629,,,,,,,32.40012879995629,33.38751920009963,33.394172800006345,33.394172800006345,33.693575399927795,x,0.2931037999223918,None,33.69363190000877,33.69991490012035,33.88099390012212,33.394172800006345,,,,,,,,KH_en,001,2025-03-09_20h13.54.648,MainFlow,2024.2.4,143.81040079895573,2025-03-09 20h14.11.455210 +0700,
2,2,2,6,letter/lettkh155.png,letter/letten061.png,15,15,0,x,0.22662890003994107,None,0,15,15,15,33.8946847000625,,,,,,,33.8946847000625,34.88207820011303,34.888646400067955,34.888646400067955,35.11870689992793,x,0.22662890003994107,None,35.118768899934366,35.12507120007649,35.30605569994077,34.888646400067955,,,,,,,,KH_en,001,2025-03-09_20h13.54.648,MainFlow,2024.2.4,143.81040079895573,2025-03-09 20h14.11.455210 +0700,
2,3,1,1,letter/letten021.png,letter/lettgr021.png,16,16,0,z,0.24550419999286532,None,0,16,16,16,35.319731400115415,,,,,,,35.319731400115415,36.30713470000774,36.313766200095415,36.313766200095415,36.56455840007402,z,0.24550419999286532,None,36.56462089996785,36.5709720000159,36.751919799949974,36.313766200095415,,,,,,,,KH_en,001,2025-03-09_20h13.54.648,MainFlow,2024.2.4,143.81040079895573,2025-03-09 20h14.11.455210 +0700,
2,3,1,3,letter/letten061.png,letter/lettgr063.png,17,17,0,z,0.29966240003705025,None,0,17,17,17,36.765598400030285,,,,,,,36.765598400030285,37.753011299995705,37.75964180007577,37.75964180007577,38.066061600111425,z,0.29966240003705025,None,38.06612500012852,38.07247480005026,38.25344999996014,37.75964180007577,,,,,,,,KH_en,001,2025-03-09_20h13.54.648,MainFlow,2024.2.4,143.81040079895573,2025-03-09 20h14.11.455210 +0700,
2,2,1,1,letter/letten153.png,letter/lettkh159.png,18,18,0,z,0.2181113997939974,None,0,18,18,18,38.26708999997936,,,,,,,38.26708999997936,39.25448610004969,39.261160500114784,39.261160500114784,39.484125500079244,z,0.2181113997939974,None,39.48418719996698,39.4905511001125,39.67159779998474,39.261160500114784,,,,,,,,KH_en,001,2025-03-09_20h13.54.648,MainFlow,2024.2.4,143.81040079895573,2025-03-09 20h14.11.455210 +0700,
2,1,1,6,letter/letten091.png,letter/lettth132.png,19,19,0,z,0.38094639987684786,None,0,19,19,19,39.685219400096685,,,,,,,39.685219400096685,40.67275130003691,40.679320900002494,40.679320900002494,41.06217129994184,z,0.38094639987684786,None,41.062238400103524,41.06853100005537,41.24947879998945,40.679320900002494,,,,,,,,KH_en,001,2025-03-09_20h13.54.648,MainFlow,2024.2.4,143.81040079895573,2025-03-09 20h14.11.455210 +0700,
2,3,2,5,letter/lettgr012.png,letter/letten011.png,20,20,0,x,0.1710425999481231,None,0,20,20,20,41.26317539997399,,,,,,,41.26317539997399,42.25044340011664,42.25722469994798,42.25722469994798,42.43155650002882,x,0.1710425999481231,None,42.43161750002764,42.4379326000344,42.61897940002382,42.25722469994798,,,,,,,,KH_en,001,2025-03-09_20h13.54.648,MainFlow,2024.2.4,143.81040079895573,2025-03-09 20h14.11.455210 +0700,
2,1,1,2,letter/letten181.png,letter/lettth142.png,21,21,0,x,1.3136245999485254,None,0,21,21,21,42.632595899980515,,,,,,,42.632595899980515,43.61997479991987,43.62664879998192,43.62664879998192,44.941074300091714,x,1.3136245999485254,None,44.94113679998554,44.947405700106174,45.12847750005312,43.62664879998192,,,,,,,,KH_en,001,2025-03-09_20h13.54.648,MainFlow,2024.2.4,143.81040079895573,2025-03-09 20h14.11.455210 +0700,
2,2,1,5,letter/letten051.png,letter/lettkh157.png,22,22,0,z,2.269159299787134,None,0,22,22,22,45.14205490006134,,,,,,,45.14205490006134,46.12944609997794,46.13611249998212,46.13611249998212,48.40977349993773,z,2.269159299787134,None,48.40983280004002,48.416175900027156,48.597195599926636,46.13611249998212,,,,,,,,KH_en,001,2025-03-09_20h13.54.648,MainFlow,2024.2.4,143.81040079895573,2025-03-09 20h14.11.455210 +0700,
2,3,1,4,letter/letten062.png,letter/lettgr063.png,23,23,0,z,0.10443539987318218,None,0,23,23,23,48.610804999945685,,,,,,,48.610804999945685,49.59819469996728,49.60484470007941,49.60484470007941,49.716524299932644,z,0.10443539987318218,None,49.71658489992842,49.72306409990415,49.90400140010752,49.60484470007941,,,,,,,,KH_en,001,2025-03-09_20h13.54.648,MainFlow,2024.2.4,143.81040079895573,2025-03-09 20h14.11.455210 +0700,
2,3,2,3,letter/lettgr063.png,letter/letten061.png,24,24,0,x,0.24954580003395677,None,0,24,24,24,49.91768110007979,,,,,,,49.91768110007979,50.905068499967456,50.9117314000614,50.9117314000614,51.16261020000093,x,0.24954580003395677,None,51.162671600002795,51.16892040008679,51.34990500006825,50.9117314000614,,,,,,,,KH_en,001,2025-03-09_20h13.54.648,MainFlow,2024.2.4,143.81040079895573,2025-03-09 20h14.11.455210 +0700,
2,2,2,5,letter/lettkh157.png,letter/letten051.png,25,25,0,x,0.22368099982850254,None,0,25,25,25,51.36351169995032,,,,,,,51.36351169995032,52.35092799994163,52.357594799948856,52.357594799948856,52.587543400004506,x,0.22368099982850254,None,52.58760460000485,52.59396580001339,52.775062599917874,52.357594799948856,,,,,,,,KH_en,001,2025-03-09_20h13.54.648,MainFlow,2024.2.4,143.81040079895573,2025-03-09 20h14.11.455210 +0700,
2,3,1,5,letter/letten011.png,letter/lettgr012.png,26,26,0,z,0.3026288999244571,None,0,26,26,26,52.788599600084126,,,,,,,52.788599600084126,53.77599429991096,53.78264439990744,53.78264439990744,54.08913070010021,z,0.3026288999244571,None,54.089194800006226,54.095473600085825,54.27648749994114,53.78264439990744,,,,,,,,KH_en,001,2025-03-09_20h13.54.648,MainFlow,2024.2.4,143.81040079895573,2025-03-09 20h14.11.455210 +0700,
2,3,1,1,letter/letten021.png,letter/lettgr021.png,27,27,0,z,0.23413409991189837,None,0,27,27,27,54.29013380012475,,,,,,,54.29013380012475,55.27735590003431,55.284140600124374,55.284140600124374,55.52103130007163,z,0.23413409991189837,None,55.52108999993652,55.527430300135165,55.708474199986085,55.284140600124374,,,,,,,,KH_en,001,2025-03-09_20h13.54.648,MainFlow,2024.2.4,143.81040079895573,2025-03-09 20h14.11.455210 +0700,
2,2,1,8,letter/letten051.png,letter/lettkh035.png,28,28,0,z,0.29026889987289906,None,0,28,28,28,55.72209520009346,,,,,,,55.72209520009346,56.70932730007917,56.71601320011541,56.71601320011541,57.00865920004435,z,0.29026889987289906,None,57.00871640001424,57.01508029992692,57.19604540010914,56.71601320011541,,,,,,,,KH_en,001,2025-03-09_20h13.54.648,MainFlow,2024.2.4,143.81040079895573,2025-03-09 20h14.11.455210 +0700,
2,3,1,4,letter/letten062.png,letter/lettgr063.png,29,29,0,z,0.24253729986958206,None,0,29,29,29,57.20971080008894,,,,,,,57.20971080008894,58.19707230012864,58.20373750012368,58.20373750012368,58.447571699973196,z,0.24253729986958206,None,58.44763329997659,58.45401620003395,58.634974899934605,58.20373750012368,,,,,,,,KH_en,001,2025-03-09_20h13.54.648,MainFlow,2024.2.4,143.81040079895573,2025-03-09 20h14.11.455210 +0700,
2,1,2,8,letter/lettth022.png,letter/letten131.png,30,30,0,x,0.25559319998137653,None,0,30,30,30,58.648635500110686,,,,,,,58.648635500110686,59.63592360005714,59.64268389996141,59.64268389996141,59.90041660005227,x,0.25559319998137653,None,59.900474400026724,59.90683709993027,60.087830499978736,59.64268389996141,,,,,,,,KH_en,001,2025-03-09_20h13.54.648,MainFlow,2024.2.4,143.81040079895573,2025-03-09 20h14.11.455210 +0700,
2,2,1,1,letter/letten153.png,letter/lettkh159.png,31,31,0,z,0.2987532999832183,None,0,31,31,31,60.10147770005278,,,,,,,60.10147770005278,61.08887390000746,61.09552010009065,61.09552010009065,61.395188600057736,z,0.2987532999832183,None,61.3952548999805,61.4013839000836,61.58236770005897,61.09552010009065,,,,,,,,KH_en,001,2025-03-09_20h13.54.648,MainFlow,2024.2.4,143.81040079895573,2025-03-09 20h14.11.455210 +0700,
2,2,1,4,letter/letten071.png,letter/lettkh055.png,32,32,0,z,0.3172013000585139,None,0,32,32,32,61.59608789999038,,,,,,,61.59608789999038,62.58349679992534,62.59007679997012,62.59007679997012,62.910405799979344,z,0.3172013000585139,None,62.9104639000725,62.91678320011124,63.09776400006376,62.59007679997012,,,,,,,,KH_en,001,2025-03-09_20h13.54.648,MainFlow,2024.2.4,143.81040079895573,2025-03-09 20h14.11.455210 +0700,
2,1,1,5,letter/letten121.png,letter/lettth101.png,33,33,0,z,0.4258230999112129,None,0,33,33,33,63.111433499958366,,,,,,,63.111433499958366,64.09874160005711,64.10546320001595,64.10546320001595,64.53694109991193,z,0.4258230999112129,None,64.53699670010246,64.54341899999417,64.72443510009907,64.10546320001595,,,,,,,,KH_en,001,2025-03-09_20h13.54.648,MainFlow,2024.2.4,143.81040079895573,2025-03-09 20h14.11.455210 +0700,
2,2,2,4,letter/lettkh055.png,letter/letten071.png,34,34,0,x,0.26317170006223023,None,0,34,34,34,64.73807379999198,,,,,,,64.73807379999198,65.72546470002271,65.73210270004347,65.73210270004347,65.99691200000234,x,0.26317170006223023,None,65.99696910008788,66.0032063999679,66.1841931999661,65.73210270004347,,,,,,,,KH_en,001,2025-03-09_20h13.54.648,MainFlow,2024.2.4,143.81040079895573,2025-03-09 20h14.11.455210 +0700,
2,1,1,5,letter/letten121.png,letter/lettth101.png,35,35,0,z,0.267376100178808,None,0,35,35,35,66.1978563000448,,,,,,,66.1978563000448,67.18524929997511,67.19189179991372,67.19189179991372,67.46355489990674,z,0.267376100178808,None,67.46360879996791,67.46995560009964,67.6509328999091,67.19189179991372,,,,,,,,KH_en,001,2025-03-09_20h13.54.648,MainFlow,2024.2.4,143.81040079895573,2025-03-09 20h14.11.455210 +0700,
2,2,2,3,letter/lettkh091.png,letter/letten071.png,36,36,0,x,0.2645980999805033,None,0,36,36,36,67.66459730011411,,,,,,,67.66459730011411,68.65205119992606,68.65866479999386,68.65866479999386,68.93026860011742,x,0.2645980999805033,None,68.9303266000934,68.93669160013087,69.1176923001185,68.65866479999386,,,,,,,,KH_en,001,2025-03-09_20h13.54.648,MainFlow,2024.2.4,143.81040079895573,2025-03-09 20h14.11.455210 +0700,
2,2,1,6,letter/letten061.png,letter/lettkh155.png,37,37,0,z,0.3788781000766903,None,0,37,37,37,69.1312784999609,,,,,,,69.1312784999609,70.11873849993572,70.12540060002357,70.12540060002357,70.50830310001038,z,0.3788781000766903,None,70.50836109998636,70.51466040010564,70.69565619993955,70.12540060002357,,,,,,,,KH_en,001,2025-03-09_20h13.54.648,MainFlow,2024.2.4,143.81040079895573,2025-03-09 20h14.11.455210 +0700,
2,1,1,4,letter/letten101.png,letter/lettth011.png,38,38,0,z,0.24095639982260764,None,0,38,38,38,70.70932179992087,,,,,,,70.70932179992087,71.69670789991505,71.70334140001796,71.70334140001796,71.94721739995293,z,0.24095639982260764,None,71.94727719994262,71.95360230002552,72.13464189996012,71.70334140001796,,,,,,,,KH_en,001,2025-03-09_20h13.54.648,MainFlow,2024.2.4,143.81040079895573,2025-03-09 20h14.11.455210 +0700,
2,3,2,4,letter/lettgr063.png,letter/letten062.png,39,39,0,x,0.2779795001260936,None,0,39,39,39,72.14825410000049,,,,,,,72.14825410000049,73.13568429998122,73.14230150007643,73.14230150007643,73.42104599997401,x,0.2779795001260936,None,73.42110470007174,73.42730699991807,73.60831220005639,73.14230150007643,,,,,,,,KH_en,001,2025-03-09_20h13.54.648,MainFlow,2024.2.4,143.81040079895573,2025-03-09 20h14.11.455210 +0700,
2,3,1,2,letter/letten061.png,letter/lettgr061.png,40,40,0,z,0.3802823999430984,None,0,40,40,40,73.62196910008788,,,,,,,73.62196910008788,74.60939770005643,74.61599550000392,74.61599550000392,74.99893130012788,z,0.3802823999430984,None,74.99899509991519,75.00528690009378,75.18627039995044,74.61599550000392,,,,,,,,KH_en,001,2025-03-09_20h13.54.648,MainFlow,2024.2.4,143.81040079895573,2025-03-09 20h14.11.455210 +0700,
2,2,2,7,letter/lettkh083.png,letter/letten112.png,41,41,0,x,0.22283230000175536,None,0,41,41,41,75.199930800125,,,,,,,75.199930800125,76.18732820008881,76.1939682001248,76.1939682001248,76.42392920004204,x,0.22283230000175536,None,76.42398720001802,76.43031680001877,76.61130409990437,76.1939682001248,,,,,,,,KH_en,001,2025-03-09_20h13.54.648,MainFlow,2024.2.4,143.81040079895573,2025-03-09 20h14.11.455210 +0700,
2,1,2,2,letter/lettth142.png,letter/letten181.png,42,42,0,x,0.33780699991621077,None,0,42,42,42,76.6249629999511,,,,,,,76.6249629999511,77.61235870001838,77.61900760000572,77.61900760000572,77.96014360012487,x,0.33780699991621077,None,77.96020049997605,77.96657090005465,78.14756359998137,77.61900760000572,,,,,,,,KH_en,001,2025-03-09_20h13.54.648,MainFlow,2024.2.4,143.81040079895573,2025-03-09 20h14.11.455210 +0700,
2,2,1,7,letter/letten112.png,letter/lettkh083.png,43,43,0,z,0.537591899977997,None,0,43,43,43,78.16122370003723,,,,,,,78.16122370003723,79.14860339998268,79.1552728000097,79.1552728000097,79.69798059994355,z,0.537591899977997,None,79.69803819991648,79.7043995000422,79.88561340002343,79.1552728000097,,,,,,,,KH_en,001,2025-03-09_20h13.54.648,MainFlow,2024.2.4,143.81040079895573,2025-03-09 20h14.11.455210 +0700,
2,2,2,3,letter/lettkh091.png,letter/letten071.png,44,44,0,x,0.1277074001263827,None,0,44,44,44,79.89908810006455,,,,,,,79.89908810006455,80.88646650011651,80.89311560010538,80.89311560010538,81.02577219996601,x,0.1277074001263827,None,81.02583050006069,81.03214040002786,81.21315019996837,80.89311560010538,,,,,,,,KH_en,001,2025-03-09_20h13.54.648,MainFlow,2024.2.4,143.81040079895573,2025-03-09 20h14.11.455210 +0700,
2,2,2,5,letter/lettkh157.png,letter/letten051.png,45,45,0,x,0.28107289993204176,None,0,45,45,45,81.22679370013066,,,,,,,81.22679370013066,82.21422319998965,82.22072699991986,82.22072699991986,82.50644210004248,x,0.28107289993204176,None,82.50650000013411,82.5127908999566,82.69389769993722,82.22072699991986,,,,,,,,KH_en,001,2025-03-09_20h13.54.648,MainFlow,2024.2.4,143.81040079895573,2025-03-09 20h14.11.455210 +0700,
2,1,2,3,letter/lettth152.png,letter/letten142.png,46,46,0,x,0.25631640013307333,None,0,46,46,46,82.70744380005635,,,,,,,82.70744380005635,83.69483450008556,83.70149399992079,83.70149399992079,83.9592651000712,x,0.25631640013307333,None,83.95933260000311,83.96563769993372,84.14662500005215,83.70149399992079,,,,,,,,KH_en,001,2025-03-09_20h13.54.648,MainFlow,2024.2.4,143.81040079895573,2025-03-09 20h14.11.455210 +0700,
2,2,2,2,letter/lettkh013.png,letter/letten121.png,47,47,0,x,0.33146590017713606,None,0,47,47,47,84.16027510003187,,,,,,,84.16027510003187,85.14772269991226,85.1543308000546,85.1543308000546,85.48850809992291,x,0.33146590017713606,None,85.48857040004805,85.49495250009932,85.67609700001776,85.1543308000546,,,,,,,,KH_en,001,2025-03-09_20h13.54.648,MainFlow,2024.2.4,143.81040079895573,2025-03-09 20h14.11.455210 +0700,
2,1,2,6,letter/lettth132.png,letter/letten091.png,48,48,0,x,0.28216509986668825,None,0,48,48,48,85.68961929995567,,,,,,,85.68961929995567,86.67716820002533,86.68362940009683,86.68362940009683,86.96917250007391,x,0.28216509986668825,None,86.9692345999647,86.97560229990631,87.1565706001129,86.68362940009683,,,,,,,,KH_en,001,2025-03-09_20h13.54.648,MainFlow,2024.2.4,143.81040079895573,2025-03-09 20h14.11.455210 +0700,
2,1,2,1,letter/lettth022.png,letter/letten041.png,49,49,0,x,0.37062780000269413,None,0,49,49,49,87.17024539993145,,,,,,,87.17024539993145,88.15761190000921,88.16417229990475,88.16417229990475,88.5401969999075,x,0.37062780000269413,None,88.54025710001588,88.54660289990716,88.72761630010791,88.16417229990475,,,,,,,,KH_en,001,2025-03-09_20h13.54.648,MainFlow,2024.2.4,143.81040079895573,2025-03-09 20h14.11.455210 +0700,
2,1,1,3,letter/letten142.png,letter/lettth152.png,50,50,0,z,0.2755080999340862,None,0,50,50,50,88.74124419991858,,,,,,,88.74124419991858,89.72866809996776,89.73528899997473,89.73528899997473,90.01399339991622,z,0.2755080999340862,None,90.01405070000328,90.02032279991545,90.20129500003532,89.73528899997473,,,,,,,,KH_en,001,2025-03-09_20h13.54.648,MainFlow,2024.2.4,143.81040079895573,2025-03-09 20h14.11.455210 +0700,
2,1,2,8,letter/lettth022.png,letter/letten131.png,51,51,0,x,0.293448599986732,None,0,51,51,51,90.21496940008365,,,,,,,90.21496940008365,91.20234970003366,91.20890580001287,91.20890580001287,91.50850349990651,x,0.293448599986732,None,91.50856400001794,91.5148575999774,91.69589000009,91.20890580001287,,,,,,,,KH_en,001,2025-03-09_20h13.54.648,MainFlow,2024.2.4,143.81040079895573,2025-03-09 20h14.11.455210 +0700,
2,2,1,2,letter/letten121.png,letter/lettkh013.png,52,52,0,z,0.27175859990529716,None,0,52,52,52,91.70953089999966,,,,,,,91.70953089999966,92.69694050005637,92.70355400000699,92.70355400000699,92.98223650013097,z,0.27175859990529716,None,92.98230460006744,92.98856550012715,93.16954279993661,92.70355400000699,,,,,,,,KH_en,001,2025-03-09_20h13.54.648,MainFlow,2024.2.4,143.81040079895573,2025-03-09 20h14.11.455210 +0700,
2,3,1,2,letter/letten061.png,letter/lettgr061.png,53,53,0,z,0.3260510000400245,None,0,53,53,53,93.18308350001462,,,,,,,93.18308350001462,94.17050829995424,94.17725989990868,94.17725989990868,94.5045575001277,z,0.3260510000400245,None,94.50461960001849,94.51078810007311,94.69189310004003,94.17725989990868,,,,,,,,KH_en,001,2025-03-09_20h13.54.648,MainFlow,2024.2.4,143.81040079895573,2025-03-09 20h14.11.455210 +0700,
2,2,2,1,letter/lettkh159.png,letter/letten153.png,54,54,0,x,0.33155960007570684,None,0,54,54,54,94.70555830001831,,,,,,,94.70555830001831,95.69341740012169,95.69973019999452,95.69973019999452,96.0338568999432,x,0.33155960007570684,None,96.03391700005159,96.04023159993812,96.22132509993389,95.69973019999452,,,,,,,,KH_en,001,2025-03-09_20h13.54.648,MainFlow,2024.2.4,143.81040079895573,2025-03-09 20h14.11.455210 +0700,
2,1,1,4,letter/letten101.png,letter/lettth011.png,55,55,0,z,0.2904087998904288,None,0,55,55,55,96.23493200005032,,,,,,,96.23493200005032,97.22225210000761,97.2289172001183,97.2289172001183,97.52146900002845,z,0.2904087998904288,None,97.52152929990552,97.5278145999182,97.70881019998342,97.2289172001183,,,,,,,,KH_en,001,2025-03-09_20h13.54.648,MainFlow,2024.2.4,143.81040079895573,2025-03-09 20h14.11.455210 +0700,
2,3,1,8,letter/letten152.png,letter/lettgr152.png,56,56,0,z,0.5467776998411864,None,0,56,56,56,97.72248620004393,,,,,,,97.72248620004393,98.70986529998481,98.71652820007876,98.71652820007876,99.26622250000946,z,0.5467776998411864,None,99.26629030006006,99.27262940001674,99.453618099913,98.71652820007876,,,,,,,,KH_en,001,2025-03-09_20h13.54.648,MainFlow,2024.2.4,143.81040079895573,2025-03-09 20h14.11.455210 +0700,
2,3,2,1,letter/lettgr021.png,letter/letten021.png,57,57,0,x,0.23496669996529818,None,0,57,57,57,99.46727570006624,,,,,,,99.46727570006624,100.45463149994612,100.46132909995504,100.46132909995504,100.69823390012607,x,0.23496669996529818,None,100.6983030999545,100.70462809992023,100.8855932999868,100.46132909995504,,,,,,,,KH_en,001,2025-03-09_20h13.54.648,MainFlow,2024.2.4,143.81040079895573,2025-03-09 20h14.11.455210 +0700,
2,1,2,7,letter/lettth132.png,letter/letten062.png,58,58,0,x,0.4991401000879705,None,0,58,58,58,100.89926350000314,,,,,,,100.89926350000314,101.88666169997305,101.89320289995521,101.89320289995521,102.39436989999376,x,0.4991401000879705,None,102.39443169999868,102.4007671000436,102.58173400000669,101.89320289995521,,,,,,,,KH_en,001,2025-03-09_20h13.54.648,MainFlow,2024.2.4,143.81040079895573,2025-03-09 20h14.11.455210 +0700,
2,3,2,2,letter/lettgr061.png,letter/letten061.png,59,59,0,x,0.28290860005654395,None,0,59,59,59,102.59540589991957,,,,,,,102.59540589991957,103.5827975999564,103.58944780007005,103.58944780007005,103.87500070012175,x,0.28290860005654395,None,103.87506059999578,103.88141890009865,104.06240259995684,103.58944780007005,,,,,,,,KH_en,001,2025-03-09_20h13.54.648,MainFlow,2024.2.4,143.81040079895573,2025-03-09 20h14.11.455210 +0700,
2,2,2,4,letter/lettkh055.png,letter/letten071.png,60,60,0,x,0.7142161000519991,None,0,60,60,60,104.0760415000841,,,,,,,104.0760415000841,105.06349009997211,105.07009449996985,105.07009449996985,105.786729299929,x,0.7142161000519991,None,105.78678729990497,105.79295050003566,105.97401010012254,105.07009449996985,,,,,,,,KH_en,001,2025-03-09_20h13.54.648,MainFlow,2024.2.4,143.81040079895573,2025-03-09 20h14.11.455210 +0700,
2,1,2,5,letter/lettth101.png,letter/letten121.png,61,61,0,x,0.5155540001578629,None,0,61,61,61,105.98772340011783,,,,,,,105.98772340011783,106.97508480004035,106.98175049992278,106.98175049992278,107.50362959993072,x,0.5155540001578629,None,107.50368879991584,107.5100650000386,107.69103770004585,106.98175049992278,,,,,,,,KH_en,001,2025-03-09_20h13.54.648,MainFlow,2024.2.4,143.81040079895573,2025-03-09 20h14.11.455210 +0700,
2,3,1,8,letter/letten152.png,letter/lettgr152.png,62,62,0,z,0.30254329997114837,None,0,62,62,62,107.70467379991896,,,,,,,107.70467379991896,108.69208840001374,108.69875809992664,108.69875809992664,109.005088099977,z,0.30254329997114837,None,109.00514589995146,109.01154870004393,109.19253750005737,108.69875809992664,,,,,,,,KH_en,001,2025-03-09_20h13.54.648,MainFlow,2024.2.4,143.81040079895573,2025-03-09 20h14.11.455210 +0700,
2,1,2,5,letter/lettth101.png,letter/letten121.png,63,63,0,x,0.32107679988257587,None,0,63,63,63,109.20622620009817,,,,,,,109.20622620009817,110.19360599992797,110.20023610000499,110.20023610000499,110.52761420002207,x,0.32107679988257587,None,110.52767900004983,110.53389759990387,110.71489659999497,110.20023610000499,,,,,,,,KH_en,001,2025-03-09_20h13.54.648,MainFlow,2024.2.4,143.81040079895573,2025-03-09 20h14.11.455210 +0700,
2,3,2,8,letter/lettgr152.png,letter/letten152.png,64,64,0,x,0.3586868999991566,None,0,64,64,64,110.7286014999263,,,,,,,110.7286014999263,111.71604510000907,111.7226358000189,111.7226358000189,112.08467309991829,x,0.3586868999991566,None,112.08473120001145,112.09101839992218,112.2718968000263,111.7226358000189,,,,,,,,KH_en,001,2025-03-09_20h13.54.648,MainFlow,2024.2.4,143.81040079895573,2025-03-09 20h14.11.455210 +0700,
2,2,1,2,letter/letten121.png,letter/lettkh013.png,65,65,0,z,0.2736131998244673,None,0,65,65,65,112.28568600001745,,,,,,,112.28568600001745,113.27304810006171,113.27970680012368,113.27970680012368,113.55829760013148,z,0.2736131998244673,None,113.55835289997049,113.56471189996228,113.74569869996049,113.27970680012368,,,,,,,,KH_en,001,2025-03-09_20h13.54.648,MainFlow,2024.2.4,143.81040079895573,2025-03-09 20h14.11.455210 +0700,
2,3,1,5,letter/letten011.png,letter/lettgr012.png,66,66,0,z,0.2449083998799324,None,0,66,66,66,113.75936209992506,,,,,,,113.75936209992506,114.74676660005935,114.75340060004964,114.75340060004964,115.00416549993679,z,0.2449083998799324,None,115.00422050012276,115.01049030013382,115.1915760000702,114.75340060004964,,,,,,,,KH_en,001,2025-03-09_20h13.54.648,MainFlow,2024.2.4,143.81040079895573,2025-03-09 20h14.11.455210 +0700,
2,2,1,3,letter/letten071.png,letter/lettkh091.png,67,67,0,z,0.33104980015195906,None,0,67,67,67,115.20524449995719,,,,,,,115.20524449995719,116.19264980009757,116.19928069994785,116.19928069994785,116.53350050002337,z,0.33104980015195906,None,116.53355620009825,116.53991380007938,116.72089150012471,116.19928069994785,,,,,,,,KH_en,001,2025-03-09_20h13.54.648,MainFlow,2024.2.4,143.81040079895573,2025-03-09 20h14.11.455210 +0700,
2,1,1,8,letter/letten131.png,letter/lettth022.png,68,68,0,z,0.29770729993470013,None,0,68,68,68,116.7344331999775,,,,,,,116.7344331999775,117.72193809994496,117.7285939999856,117.7285939999856,118.02805870003067,z,0.29770729993470013,None,118.02811360009946,118.0344718999695,118.21546310000122,117.7285939999856,,,,,,,,KH_en,001,2025-03-09_20h13.54.648,MainFlow,2024.2.4,143.81040079895573,2025-03-09 20h14.11.455210 +0700,
2,3,2,4,letter/lettgr063.png,letter/letten062.png,69,69,0,x,0.3032974998932332,None,0,69,69,69,118.2291059999261,,,,,,,118.2291059999261,119.2164837999735,119.22301080008037,119.22301080008037,119.52964490000159,x,0.3032974998932332,None,119.52970830001868,119.53595279995352,119.71693990007043,119.22301080008037,,,,,,,,KH_en,001,2025-03-09_20h13.54.648,MainFlow,2024.2.4,143.81040079895573,2025-03-09 20h14.11.455210 +0700,
2,1,1,6,letter/letten091.png,letter/lettth132.png,70,70,0,z,0.21379519999027252,None,0,70,70,70,119.73061430011876,,,,,,,119.73061430011876,120.71799249993637,120.72464210004546,120.72464210004546,120.94068100000732,z,0.21379519999027252,None,120.94073579995893,120.94710200000554,121.12808910012245,120.72464210004546,,,,,,,,KH_en,001,2025-03-09_20h13.54.648,MainFlow,2024.2.4,143.81040079895573,2025-03-09 20h14.11.455210 +0700,
2,3,2,3,letter/lettgr063.png,letter/letten061.png,71,71,0,x,0.21556590008549392,None,0,71,71,71,121.14175530010834,,,,,,,121.14175530010834,122.12915030005388,122.13579809991643,122.13579809991643,122.35208109999076,x,0.21556590008549392,None,122.35213700006716,122.3582661000546,122.5392245000694,122.13579809991643,,,,,,,,KH_en,001,2025-03-09_20h13.54.648,MainFlow,2024.2.4,143.81040079895573,2025-03-09 20h14.11.455210 +0700,
2,3,2,6,letter/lettgr066.png,letter/letten061.png,72,72,0,x,0.24037649994716048,None,0,72,72,72,122.55289670010097,,,,,,,122.55289670010097,123.54027689993382,123.54692739993334,123.54692739993334,123.79088099999353,x,0.24037649994716048,None,123.79094390012324,123.79718019999564,123.97816990013234,123.54692739993334,,,,,,,,KH_en,001,2025-03-09_20h13.54.648,MainFlow,2024.2.4,143.81040079895573,2025-03-09 20h14.11.455210 +0700,
2,3,2,7,letter/lettgr065.png,letter/letten062.png,73,73,0,x,0.24942290014587343,None,0,73,73,73,123.99181680008769,,,,,,,123.99181680008769,124.97921620006673,124.98588189994916,124.98588189994916,125.23673209990375,x,0.24942290014587343,None,125.23679180000909,125.24307249998674,125.42405649996363,124.98588189994916,,,,,,,,KH_en,001,2025-03-09_20h13.54.648,MainFlow,2024.2.4,143.81040079895573,2025-03-09 20h14.11.455210 +0700,
2,2,2,2,letter/lettkh013.png,letter/letten121.png,74,74,0,x,0.24357759999111295,None,0,74,74,74,125.43773430003785,,,,,,,125.43773430003785,126.42531340010464,126.4317527001258,126.4317527001258,126.68252800009213,x,0.24357759999111295,None,126.68259160011075,126.68895180011168,126.86992650013417,126.4317527001258,,,,,,,,KH_en,001,2025-03-09_20h13.54.648,MainFlow,2024.2.4,143.81040079895573,2025-03-09 20h14.11.455210 +0700,
2,3,2,7,letter/lettgr065.png,letter/letten062.png,75,75,0,x,0.5656602000817657,None,0,75,75,75,126.88360880012624,,,,,,,126.88360880012624,127.87103540007956,127.87765370006673,127.87765370006673,128.448191100033,x,0.5656602000817657,None,128.4482519000303,128.4546219999902,128.6355983999092,127.87765370006673,,,,,,,,KH_en,001,2025-03-09_20h13.54.648,MainFlow,2024.2.4,143.81040079895573,2025-03-09 20h14.11.455210 +0700,
2,2,2,7,letter/lettkh083.png,letter/letten112.png,76,76,0,x,0.2329961999785155,None,0,76,76,76,128.64927310007624,,,,,,,128.64927310007624,129.63672629999928,129.64330679993145,129.64330679993145,129.88019670010544,x,0.2329961999785155,None,129.88025130005553,129.88664459995925,130.06757790013216,129.64330679993145,,,,,,,,KH_en,001,2025-03-09_20h13.54.648,MainFlow,2024.2.4,143.81040079895573,2025-03-09 20h14.11.455210 +0700,
2,3,2,8,letter/lettgr152.png,letter/letten152.png,77,77,0,x,0.24501889990642667,None,0,77,77,77,130.08125600009225,,,,,,,130.08125600009225,131.0686580000911,131.0752916999627,131.0752916999627,131.32602320006117,x,0.24501889990642667,None,131.32607889990322,131.33249470009468,131.5135314001236,131.0752916999627,,,,,,,,KH_en,001,2025-03-09_20h13.54.648,MainFlow,2024.2.4,143.81040079895573,2025-03-09 20h14.11.455210 +0700,
2,1,2,4,letter/lettth011.png,letter/letten101.png,78,78,0,x,0.2671040999703109,None,0,78,78,78,131.52716120006517,,,,,,,131.52716120006517,132.51454030000605,132.52119649993256,132.52119649993256,132.79293669993058,x,0.2671040999703109,None,132.7929954000283,132.79924870003015,132.98023550002836,132.52119649993256,,,,,,,,KH_en,001,2025-03-09_20h13.54.648,MainFlow,2024.2.4,143.81040079895573,2025-03-09 20h14.11.455210 +0700,
2,3,2,1,letter/lettgr021.png,letter/letten021.png,79,79,0,x,0.24837110005319118,None,0,79,79,79,132.99384479993023,,,,,,,132.99384479993023,133.98128310008906,133.9879334999714,133.9879334999714,134.23877770011313,x,0.24837110005319118,None,134.23883970011957,134.24514900008217,134.4261163000483,133.9879334999714,,,,,,,,KH_en,001,2025-03-09_20h13.54.648,MainFlow,2024.2.4,143.81040079895573,2025-03-09 20h14.11.455210 +0700,
2,3,2,6,letter/lettgr066.png,letter/letten061.png,80,80,0,x,0.042491900036111474,None,0,80,80,80,134.43979250011034,,,,,,,134.43979250011034,135.4270802999381,135.43381720012985,135.43381720012985,135.4830197999254,x,0.042491900036111474,None,135.48307690001093,135.48938799998723,135.6705066000577,135.43381720012985,,,,,,,,KH_en,001,2025-03-09_20h13.54.648,MainFlow,2024.2.4,143.81040079895573,2025-03-09 20h14.11.455210 +0700,
2,1,2,7,letter/lettth132.png,letter/letten062.png,81,81,0,x,1.1351656999904662,None,0,81,81,81,135.6840393000748,,,,,,,135.6840393000748,136.6716384999454,136.67814510012977,136.67814510012977,137.81880120001733,x,1.1351656999904662,None,137.8188660000451,137.82500550011173,138.00610519992188,136.67814510012977,,,,,,,,KH_en,001,2025-03-09_20h13.54.648,MainFlow,2024.2.4,143.81040079895573,2025-03-09 20h14.11.455210 +0700,
2,2,1,4,letter/letten071.png,letter/lettkh055.png,82,82,0,z,0.23161150002852082,None,0,82,82,82,138.01976809999906,,,,,,,138.01976809999906,139.00715230009519,139.0136877000332,139.0136877000332,139.25078530004248,z,0.23161150002852082,None,139.25084470002912,139.25714590004645,139.4380783000961,139.0136877000332,,,,,,,,KH_en,001,2025-03-09_20h13.54.648,MainFlow,2024.2.4,143.81040079895573,2025-03-09 20h14.11.455210 +0700,
2,1,2,4,letter/lettth011.png,letter/letten101.png,83,83,0,x,0.4795063999481499,None,0,83,83,83,139.45174679998308,,,,,,,139.45174679998308,140.43922900012694,140.44579689996317,140.44579689996317,140.92615259997547,x,0.4795063999481499,None,140.92621299996972,140.9323992000427,141.11337039992213,140.44579689996317,,,,,,,,KH_en,001,2025-03-09_20h13.54.648,MainFlow,2024.2.4,143.81040079895573,2025-03-09 20h14.11.455210 +0700,
2,1,1,7,letter/letten062.png,letter/lettth132.png,84,84,0,x,0.26021009986288846,None,0,84,84,84,141.1270451999735,,,,,,,141.1270451999735,142.114423800027,142.12109240004793,142.12109240004793,142.3858823000919,x,0.26021009986288846,None,142.38594510010444,142.3922004001215,142.5731826000847,142.12109240004793,,,,,,,,KH_en,001,2025-03-09_20h13.54.648,MainFlow,2024.2.4,143.81040079895573,2025-03-09 20h14.11.455210 +0700,
2,1,1,1,letter/letten041.png,letter/lettth022.png,85,85,0,z,0.5294368998147547,None,0,85,85,85,142.58683279994875,,,,,,,142.58683279994875,143.5742418000009,143.5808763001114,143.5808763001114,144.11667399993166,z,0.5294368998147547,None,144.11673559993505,144.12309330003336,144.30406609992497,143.5808763001114,,,,,,,,KH_en,001,2025-03-09_20h13.54.648,MainFlow,2024.2.4,143.81040079895573,2025-03-09 20h14.11.455210 +0700,
2,1,1,7,letter/letten062.png,letter/lettth132.png,86,86,0,z,0.31069339998066425,None,0,86,86,86,144.31775839999318,,,,,,,144.31775839999318,145.3051346000284,145.31178069999442,145.31178069999442,145.62523530004546,z,0.31069339998066425,None,145.62530800001696,145.63154629990458,145.81251349998638,145.31178069999442,,,,,,,,KH_en,001,2025-03-09_20h13.54.648,MainFlow,2024.2.4,143.81040079895573,2025-03-09 20h14.11.455210 +0700,
2,3,1,6,letter/letten061.png,letter/lettgr066.png,87,87,0,z,0.3221233000513166,None,0,87,87,87,145.82619850011542,,,,,,,145.82619850011542,146.81357820006087,146.82023840001784,146.82023840001784,147.14746850007214,z,0.3221233000513166,None,147.1475277999416,147.15391020011157,147.33490070002154,146.82023840001784,,,,,,,,KH_en,001,2025-03-09_20h13.54.648,MainFlow,2024.2.4,143.81040079895573,2025-03-09 20h14.11.455210 +0700,
2,1,1,3,letter/letten142.png,letter/lettth152.png,88,88,0,z,0.479776700027287,None,0,88,88,88,147.34852980007418,,,,,,,147.34852980007418,148.3360079000704,148.3425926999189,148.3425926999189,148.82311489991844,z,0.479776700027287,None,148.823178099934,148.8291951001156,149.0103064000141,148.3425926999189,,,,,,,,KH_en,001,2025-03-09_20h13.54.648,MainFlow,2024.2.4,143.81040079895573,2025-03-09 20h14.11.455210 +0700,
2,3,2,5,letter/lettgr012.png,letter/letten011.png,89,89,0,x,0.2764439000748098,None,0,89,89,89,149.02383859991096,,,,,,,149.02383859991096,150.0112008000724,150.01787730003707,150.01787730003707,150.29650250007398,x,0.2764439000748098,None,150.29656210006215,150.3027965000365,150.4838801000733,150.01787730003707,,,,,,,,KH_en,001,2025-03-09_20h13.54.648,MainFlow,2024.2.4,143.81040079895573,2025-03-09 20h14.11.455210 +0700,
2,2,2,8,letter/lettkh035.png,letter/letten051.png,90,90,0,x,0.4357322999276221,None,0,90,90,90,150.49753009993583,,,,,,,150.49753009993583,151.48491419991478,151.49157160008326,151.49157160008326,151.93006930011325,x,0.4357322999276221,None,151.93012690008618,151.9363585000392,152.11735780001618,151.49157160008326,,,,,,,,KH_en,001,2025-03-09_20h13.54.648,MainFlow,2024.2.4,143.81040079895573,2025-03-09 20h14.11.455210 +0700,
2,1,1,8,letter/letten131.png,letter/lettth022.png,91,91,0,z,0.33813910000026226,None,0,91,91,91,152.13111800001934,,,,,,,152.13111800001934,153.11848570010625,153.12517939996906,153.12517939996906,153.4664300000295,z,0.33813910000026226,None,153.46648970013484,153.47260940005071,153.65379139990546,153.12517939996906,,,,,,,,KH_en,001,2025-03-09_20h13.54.648,MainFlow,2024.2.4,143.81040079895573,2025-03-09 20h14.11.455210 +0700,
2,1,2,1,letter/lettth022.png,letter/letten041.png,92,92,0,x,0.2418700000271201,None,0,92,92,92,153.66737619997002,,,,,,,153.66737619997002,154.65485400008038,154.66143919993192,154.66143919993192,154.90528100007214,x,0.2418700000271201,None,154.9053402999416,154.9116647001356,155.09261980000883,154.66143919993192,,,,,,,,KH_en,001,2025-03-09_20h13.54.648,MainFlow,2024.2.4,143.81040079895573,2025-03-09 20h14.11.455210 +0700,
2,3,1,7,letter/letten062.png,letter/lettgr065.png,93,93,0,z,0.7069431999698281,None,0,93,93,93,155.1063157999888,,,,,,,155.1063157999888,156.0938119001221,156.1003642999567,156.1003642999567,156.8099380999338,z,0.7069431999698281,None,156.8099968000315,156.8163082001265,156.99734789994545,156.1003642999567,,,,,,,,KH_en,001,2025-03-09_20h13.54.648,MainFlow,2024.2.4,143.81040079895573,2025-03-09 20h14.11.455210 +0700,
2,2,1,3,letter/letten071.png,letter/lettkh091.png,94,94,0,z,0.39426760002970695,None,0,94,94,94,157.01098680007271,,,,,,,157.01098680007271,157.9983669000212,158.00504199997522,158.00504199997522,158.4019015999511,z,0.39426760002970695,None,158.40196479996666,158.40822370001115,158.58910090010613,158.00504199997522,,,,,,,,KH_en,001,2025-03-09_20h13.54.648,MainFlow,2024.2.4,143.81040079895573,2025-03-09 20h14.11.455210 +0700,
2,2,2,1,letter/lettkh159.png,letter/letten153.png,95,95,0,x,0.31574840005487204,None,0,95,95,95,158.6028875000775,,,,,,,158.6028875000775,159.59061990003102,159.59680639998987,159.59680639998987,159.91773060010746,x,0.31574840005487204,None,159.91779879992828,159.92353769997135,160.10468220012262,159.59680639998987,,,,,,,,KH_en,001,2025-03-09_20h13.54.648,MainFlow,2024.2.4,143.81040079895573,2025-03-09 20h14.11.455210 +0700,
,,,,,,,,,,,,,,,,,,,,,,,,,,,,,,,,,,,160.10475250007585,160.1113134000916,160.1113134000916,166.5141891001258,space,6.401997300097719,None,KH_en,001,2025-03-09_20h13.54.648,MainFlow,2024.2.4,143.81040079895573,2025-03-09 20h14.11.455210 +0700,
