lang,langpair,sequence,pairid,firstdir,seconddir,thisN,thisTrialN,thisRepN,key_resp.keys,key_resp.rt,key_resp.duration,trials.thisRepN,trials.thisTrialN,trials.thisN,trials.thisIndex,thisRow.t,notes,tutorial.started,tutorial.stopped,key_instruct.keys,key_instruct.rt,key_instruct.duration,image_first.started,letterselect.started,instruct.started,key_resp.started,letterselect.stopped,trials.key_resp.keys,trials.key_resp.rt,trials.key_resp.duration,blanknext.started,instruct_2.started,blanknext.stopped,image_first.stopped,ending.started,text_3.started,ending_key.started,ending.stopped,ending_key.keys,ending_key.rt,ending_key.duration,participant,session,date,expName,psychopyVersion,frameRate,expStart,
,,,,,,,,,,,,,,,,,,0.003633399999671383,5.578939600000012,space,5.4727920000004815,None,,,,,,,,,,,,,,,,,,,,KR_th,001,2025-03-10_20h38.26.220,MainFlow,2024.2.4,143.8917243516046,2025-03-10 20h38.42.189762 +0700,
1,1,2,1,letter/letten092.png,letter/lettth022.png,0,0,0,x,0.4270176999998512,None,0,0,0,0,5.644516899999871,,,,,,,5.644516899999871,6.5979856999983895,6.602591899998515,6.602591899998515,7.034368299999187,x,0.4270176999998512,None,7.03705379999883,7.0407109999978275,7.222282399998221,,,,,,,,,KR_th,001,2025-03-10_20h38.26.220,MainFlow,2024.2.4,143.8917243516046,2025-03-10 20h38.42.189762 +0700,
1,3,2,8,letter/lettgr153.png,letter/lettth013.png,1,1,0,x,0.364387199999328,None,0,1,1,1,7.260471499997948,,,,,,,7.260471499997948,8.235867999999755,8.242075499998464,8.242075499998464,8.611020699998335,x,0.364387199999328,None,8.611139299999195,8.616889400000218,8.797751999998582,,,,,,,,,KR_th,001,2025-03-10_20h38.26.220,MainFlow,2024.2.4,143.8917243516046,2025-03-10 20h38.42.189762 +0700,
1,1,2,1,letter/letten092.png,letter/lettth022.png,2,2,0,x,0.20578949999980978,None,0,2,2,2,8.80749250000008,,,,,,,8.80749250000008,9.791741499997443,9.804124999998749,9.804124999998749,10.014525099999446,x,0.20578949999980978,None,10.014743299998372,10.02063889999772,10.201394899999286,9.797259999999369,,,,,,,,KR_th,001,2025-03-10_20h38.26.220,MainFlow,2024.2.4,143.8917243516046,2025-03-10 20h38.42.189762 +0700,
1,2,2,4,letter/lettkh034.png,letter/lettth153.png,3,3,0,x,0.40355969999654917,None,0,3,3,3,10.237699499997689,,,,,,,10.237699499997689,11.221303099999204,11.227860899998632,11.227860899998632,11.639430100000027,x,0.40355969999654917,None,11.639651199999207,11.644717899998795,11.825642199997674,,,,,,,,,KR_th,001,2025-03-10_20h38.26.220,MainFlow,2024.2.4,143.8917243516046,2025-03-10 20h38.42.189762 +0700,
1,2,2,4,letter/lettkh034.png,letter/lettth153.png,4,4,0,x,0.39680480000242824,None,0,4,4,4,11.839163399999961,,,,,,,11.839163399999961,12.826165200000105,12.831407999998191,12.831407999998191,13.23561509999854,x,0.39680480000242824,None,13.235777800000506,13.240942399999767,13.421618199998193,12.831407999998191,,,,,,,,KR_th,001,2025-03-10_20h38.26.220,MainFlow,2024.2.4,143.8917243516046,2025-03-10 20h38.42.189762 +0700,
1,2,1,7,letter/lettth072.png,letter/lettkh033.png,5,5,0,z,0.3815388000002713,None,0,5,5,5,13.438887699998304,,,,,,,13.438887699998304,14.422624899998482,14.428323899999668,14.428323899999668,14.81141260000004,z,0.3815388000002713,None,14.811541999999463,14.817081199998938,14.99870809999993,14.428323899999668,,,,,,,,KR_th,001,2025-03-10_20h38.26.220,MainFlow,2024.2.4,143.8917243516046,2025-03-10 20h38.42.189762 +0700,
1,2,1,2,letter/lettth032.png,letter/lettkh032.png,6,6,0,z,0.40221070000188774,None,0,6,6,6,15.032977399998344,,,,,,,15.032977399998344,16.012120999999752,16.018321899999137,16.018321899999137,16.42261199999848,z,0.40221070000188774,None,16.42277639999884,16.427778900000703,16.608973099999275,,,,,,,,,KR_th,001,2025-03-10_20h38.26.220,MainFlow,2024.2.4,143.8917243516046,2025-03-10 20h38.42.189762 +0700,
1,3,1,4,letter/lettth024.png,letter/lettgr064.png,7,7,0,z,0.5487283999973442,None,0,7,7,7,16.63966629999777,,,,,,,16.63966629999777,17.622740099999646,17.62908669999888,17.62908669999888,18.17914369999926,z,0.5487283999973442,None,18.17927419999978,18.18442099999811,18.36568029999762,17.62908669999888,,,,,,,,KR_th,001,2025-03-10_20h38.26.220,MainFlow,2024.2.4,143.8917243516046,2025-03-10 20h38.42.189762 +0700,
1,2,1,5,letter/lettth024.png,letter/lettkh023.png,8,8,0,z,0.502310200001375,None,0,8,8,8,18.378071799997997,,,,,,,18.378071799997997,19.3666802000007,19.371987899998203,19.371987899998203,19.880311999997502,z,0.502310200001375,None,19.880468100000144,19.885501900000236,20.066767000000254,19.371987899998203,,,,,,,,KR_th,001,2025-03-10_20h38.26.220,MainFlow,2024.2.4,143.8917243516046,2025-03-10 20h38.42.189762 +0700,
1,1,2,5,letter/letten041.png,letter/lettth152.png,9,9,0,x,0.33259049999833223,None,0,9,9,9,20.101104999997915,,,,,,,20.101104999997915,21.087222699999984,21.093620399999054,21.093620399999054,21.42946590000065,x,0.33259049999833223,None,21.42970399999831,21.43479970000044,21.615344999998342,,,,,,,,,KR_th,001,2025-03-10_20h38.26.220,MainFlow,2024.2.4,143.8917243516046,2025-03-10 20h38.42.189762 +0700,
1,2,2,6,letter/lettkh033.png,letter/lettth161.png,10,10,0,x,0.36880310000196914,None,0,10,10,10,21.65210659999866,,,,,,,21.65210659999866,22.635714500000176,22.642057999997633,22.642057999997633,23.01745839999785,x,0.36880310000196914,None,23.017519699998957,23.023764599998685,23.204956099998526,,,,,,,,,KR_th,001,2025-03-10_20h38.26.220,MainFlow,2024.2.4,143.8917243516046,2025-03-10 20h38.42.189762 +0700,
1,3,2,7,letter/lettgr072.png,letter/lettth025.png,11,11,0,x,0.34283099999811384,None,0,11,11,11,23.22012840000025,,,,,,,23.22012840000025,24.20492159999776,24.210971199998312,24.210971199998312,24.558755899997777,x,0.34283099999811384,None,24.558836000000156,24.565004599997337,24.74598540000079,24.210971199998312,,,,,,,,KR_th,001,2025-03-10_20h38.26.220,MainFlow,2024.2.4,143.8917243516046,2025-03-10 20h38.42.189762 +0700,
1,1,2,2,letter/letten062.png,letter/lettth061.png,12,12,0,x,0.3811908999996376,None,0,12,12,12,24.759801799998968,,,,,,,24.759801799998968,25.746330999998463,25.752310100000614,25.752310100000614,26.13489159999881,x,0.3811908999996376,None,26.134956499998225,26.141136499998538,26.32215399999768,25.752310100000614,,,,,,,,KR_th,001,2025-03-10_20h38.26.220,MainFlow,2024.2.4,143.8917243516046,2025-03-10 20h38.42.189762 +0700,
1,2,2,8,letter/lettkh031.png,letter/lettth153.png,13,13,0,x,0.29689929999949527,None,0,13,13,13,26.33598979999806,,,,,,,26.33598979999806,27.322729899999104,27.328603699999803,27.328603699999803,27.627703199999814,x,0.29689929999949527,None,27.627766099998553,27.634006799999042,27.81478159999824,27.328603699999803,,,,,,,,KR_th,001,2025-03-10_20h38.26.220,MainFlow,2024.2.4,143.8917243516046,2025-03-10 20h38.42.189762 +0700,
1,2,2,2,letter/lettkh032.png,letter/lettth032.png,14,14,0,x,0.39500000000043656,None,0,14,14,14,27.827953799998795,,,,,,,27.827953799998795,28.815423599997303,28.821254799997405,28.821254799997405,29.2176604999986,x,0.39500000000043656,None,29.217721099998016,29.223850099999254,29.404925799997727,28.821254799997405,,,,,,,,KR_th,001,2025-03-10_20h38.26.220,MainFlow,2024.2.4,143.8917243516046,2025-03-10 20h38.42.189762 +0700,
1,3,2,1,letter/lettgr143.png,letter/lettth132.png,15,15,0,x,0.3375951999987592,None,0,15,15,15,29.428545799997664,,,,,,,29.428545799997664,30.413358300000255,30.418618100000458,30.418618100000458,30.759601300000213,x,0.3375951999987592,None,30.75972289999845,30.765298499998607,30.946746699999494,30.418618100000458,,,,,,,,KR_th,001,2025-03-10_20h38.26.220,MainFlow,2024.2.4,143.8917243516046,2025-03-10 20h38.42.189762 +0700,
1,3,2,6,letter/lettgr061.png,letter/lettth082.png,16,16,0,x,0.2945265999987896,None,0,16,16,16,30.982430799998838,,,,,,,30.982430799998838,31.960344699997222,31.966615699999238,31.966615699999238,32.267334299998765,x,0.2945265999987896,None,32.26755950000006,32.27357789999951,32.453631000000314,,,,,,,,,KR_th,001,2025-03-10_20h38.26.220,MainFlow,2024.2.4,143.8917243516046,2025-03-10 20h38.42.189762 +0700,
1,2,2,6,letter/lettkh033.png,letter/lettth161.png,17,17,0,x,0.32858629999827826,None,0,17,17,17,32.472033800000645,,,,,,,32.472033800000645,33.46115049999935,33.46650849999787,33.46650849999787,33.801200800000515,x,0.32858629999827826,None,33.80136130000028,33.80644229999962,33.98778350000066,33.46650849999787,,,,,,,,KR_th,001,2025-03-10_20h38.26.220,MainFlow,2024.2.4,143.8917243516046,2025-03-10 20h38.42.189762 +0700,
1,3,1,3,letter/lettth155.png,letter/lettgr153.png,18,18,0,z,0.3513004999986151,None,0,18,18,18,34.0212294999983,,,,,,,34.0212294999983,35.00807779999741,35.01452699999936,35.01452699999936,35.3697691999987,z,0.3513004999986151,None,35.36989149999863,35.37553789999947,35.55739189999804,,,,,,,,,KR_th,001,2025-03-10_20h38.26.220,MainFlow,2024.2.4,143.8917243516046,2025-03-10 20h38.42.189762 +0700,
1,3,2,1,letter/lettgr143.png,letter/lettth132.png,19,19,0,x,0.5204897000003257,None,0,19,19,19,35.57397739999942,,,,,,,35.57397739999942,36.5637143999993,36.569732599997224,36.569732599997224,37.091536500000075,x,0.5204897000003257,None,37.09163819999958,37.09733050000068,37.27881619999971,36.569732599997224,,,,,,,,KR_th,001,2025-03-10_20h38.26.220,MainFlow,2024.2.4,143.8917243516046,2025-03-10 20h38.42.189762 +0700,
1,3,1,1,letter/lettth132.png,letter/lettgr143.png,20,20,0,z,0.5008469999993395,None,0,20,20,20,37.31147969999802,,,,,,,37.31147969999802,38.2925467999994,38.298765299998195,38.298765299998195,38.80621640000027,z,0.5008469999993395,None,38.806274399998074,38.81241450000016,38.99425599999813,,,,,,,,,KR_th,001,2025-03-10_20h38.26.220,MainFlow,2024.2.4,143.8917243516046,2025-03-10 20h38.42.189762 +0700,
1,1,2,8,letter/letten031.png,letter/lettth161.png,21,21,0,x,0.743441200000234,None,0,21,21,21,39.03026889999819,,,,,,,39.03026889999819,40.00723069999731,40.01354879999781,40.01354879999781,40.75984079999762,x,0.743441200000234,None,40.76006109999798,40.76479009999821,40.94451299999855,,,,,,,,,KR_th,001,2025-03-10_20h38.26.220,MainFlow,2024.2.4,143.8917243516046,2025-03-10 20h38.42.189762 +0700,
1,1,1,5,letter/lettth152.png,letter/letten041.png,22,22,0,z,0.514323900002637,None,0,22,22,22,40.974122100000386,,,,,,,40.974122100000386,41.95868490000066,41.96451479999814,41.96451479999814,42.48617919999742,z,0.514323900002637,None,42.48623369999768,42.492069699997955,42.672937999999704,41.96451479999814,,,,,,,,KR_th,001,2025-03-10_20h38.26.220,MainFlow,2024.2.4,143.8917243516046,2025-03-10 20h38.42.189762 +0700,
1,1,2,6,letter/letten153.png,letter/lettth024.png,23,23,0,x,0.4557225999997172,None,0,23,23,23,42.689836800000194,,,,,,,42.689836800000194,43.67394670000067,43.679741599997215,43.679741599997215,44.14009149999765,x,0.4557225999997172,None,44.14030949999869,44.14560619999975,44.32601909999721,43.679741599997215,,,,,,,,KR_th,001,2025-03-10_20h38.26.220,MainFlow,2024.2.4,143.8917243516046,2025-03-10 20h38.42.189762 +0700,
1,1,1,8,letter/lettth161.png,letter/letten031.png,24,24,0,z,0.3812608000007458,None,0,24,24,24,44.35273329999836,,,,,,,44.35273329999836,45.34004659999846,45.345864700000675,45.345864700000675,45.72889379999833,z,0.3812608000007458,None,45.72901909999928,45.73458219999884,45.91615929999898,45.345864700000675,,,,,,,,KR_th,001,2025-03-10_20h38.26.220,MainFlow,2024.2.4,143.8917243516046,2025-03-10 20h38.42.189762 +0700,
1,3,1,1,letter/lettth132.png,letter/lettgr143.png,25,25,0,z,0.33226250000006985,None,0,25,25,25,45.92831929999738,,,,,,,45.92831929999738,46.91616620000059,46.921986299999844,46.921986299999844,47.258141199999955,z,0.33226250000006985,None,47.25836029999846,47.26339889999872,47.44330469999841,46.921986299999844,,,,,,,,KR_th,001,2025-03-10_20h38.26.220,MainFlow,2024.2.4,143.8917243516046,2025-03-10 20h38.42.189762 +0700,
1,3,2,4,letter/lettgr064.png,letter/lettth024.png,26,26,0,x,0.23796900000161259,None,0,26,26,26,47.464635599997564,,,,,,,47.464635599997564,48.45037729999967,48.45633859999725,48.45633859999725,48.701574299997446,x,0.23796900000161259,None,48.70179619999908,48.707296399999905,48.88695299999745,48.45633859999725,,,,,,,,KR_th,001,2025-03-10_20h38.26.220,MainFlow,2024.2.4,143.8917243516046,2025-03-10 20h38.42.189762 +0700,
1,2,1,6,letter/lettth161.png,letter/lettkh033.png,27,27,0,z,0.2698335999994015,None,0,27,27,27,48.8940376999999,,,,,,,48.8940376999999,49.88143349999882,49.89368280000053,49.89368280000053,50.166616700000304,z,0.2698335999994015,None,50.166830899997876,50.17198609999832,50.35241769999993,49.88669469999877,,,,,,,,KR_th,001,2025-03-10_20h38.26.220,MainFlow,2024.2.4,143.8917243516046,2025-03-10 20h38.42.189762 +0700,
1,2,1,1,letter/lettth061.png,letter/lettkh034.png,28,28,0,z,0.2687035000017204,None,0,28,28,28,50.38275639999847,,,,,,,50.38275639999847,51.36760359999971,51.37261869999929,51.37261869999929,51.64460079999844,z,0.2687035000017204,None,51.64472509999905,51.65026329999819,51.83143769999879,51.37261869999929,,,,,,,,KR_th,001,2025-03-10_20h38.26.220,MainFlow,2024.2.4,143.8917243516046,2025-03-10 20h38.42.189762 +0700,
1,1,2,7,letter/letten051.png,letter/lettth025.png,29,29,0,x,0.37086640000052284,None,0,29,29,29,51.861298399999214,,,,,,,51.861298399999214,52.84491889999845,52.85126979999768,52.85126979999768,53.22749699999986,x,0.37086640000052284,None,53.22762809999767,53.23307120000027,53.414419999997335,,,,,,,,,KR_th,001,2025-03-10_20h38.26.220,MainFlow,2024.2.4,143.8917243516046,2025-03-10 20h38.42.189762 +0700,
1,2,2,7,letter/lettkh033.png,letter/lettth072.png,30,30,0,x,0.45326050000221585,None,0,30,30,30,53.430997199997364,,,,,,,53.430997199997364,54.414617700000235,54.420481400000426,54.420481400000426,54.881220100000064,x,0.45326050000221585,None,54.881277199998294,54.88554060000024,55.06688379999832,54.420481400000426,,,,,,,,KR_th,001,2025-03-10_20h38.26.220,MainFlow,2024.2.4,143.8917243516046,2025-03-10 20h38.42.189762 +0700,
1,2,1,8,letter/lettth153.png,letter/lettkh031.png,31,31,0,z,0.4153760000008333,None,0,31,31,31,55.09106619999875,,,,,,,55.09106619999875,56.074760600000445,56.07999600000039,56.07999600000039,56.4985674999989,z,0.4153760000008333,None,56.498801800000365,56.504337499998655,56.684489100000064,56.07999600000039,,,,,,,,KR_th,001,2025-03-10_20h38.26.220,MainFlow,2024.2.4,143.8917243516046,2025-03-10 20h38.42.189762 +0700,
1,1,1,2,letter/lettth061.png,letter/letten062.png,32,32,0,z,0.5370331999984046,None,0,32,32,32,56.69724159999896,,,,,,,56.69724159999896,57.685530499999004,57.69069209999725,57.69069209999725,58.233976799998345,z,0.5370331999984046,None,58.234136499999295,58.239221399999224,58.421075199999905,57.69069209999725,,,,,,,,KR_th,001,2025-03-10_20h38.26.220,MainFlow,2024.2.4,143.8917243516046,2025-03-10 20h38.42.189762 +0700,
1,3,1,7,letter/lettth025.png,letter/lettgr072.png,33,33,0,z,0.341582400000334,None,0,33,33,33,58.45721499999854,,,,,,,58.45721499999854,59.441269200000534,59.44763839999723,59.44763839999723,59.797524199999316,z,0.341582400000334,None,59.79768089999925,59.80145049999919,59.9830292000006,,,,,,,,,KR_th,001,2025-03-10_20h38.26.220,MainFlow,2024.2.4,143.8917243516046,2025-03-10 20h38.42.189762 +0700,
1,1,1,3,letter/lettth092.png,letter/letten041.png,34,34,0,z,0.2722314999991795,None,0,34,34,34,60.02002299999731,,,,,,,60.02002299999731,61.00318409999818,61.00957379999818,61.00957379999818,61.289131099998485,z,0.2722314999991795,None,61.28918709999925,61.29396919999999,61.47579819999737,,,,,,,,,KR_th,001,2025-03-10_20h38.26.220,MainFlow,2024.2.4,143.8917243516046,2025-03-10 20h38.42.189762 +0700,
1,3,1,5,letter/lettth052.png,letter/lettgr141.png,35,35,0,z,0.19040839999797754,None,0,35,35,35,61.51149179999993,,,,,,,61.51149179999993,62.49620180000056,62.50235909999901,62.50235909999901,62.69787549999819,z,0.19040839999797754,None,62.69799670000066,62.70357529999819,62.88533719999759,,,,,,,,,KR_th,001,2025-03-10_20h38.26.220,MainFlow,2024.2.4,143.8917243516046,2025-03-10 20h38.42.189762 +0700,
1,1,1,6,letter/lettth024.png,letter/letten153.png,36,36,0,z,0.22791100000176812,None,0,36,36,36,62.902790000000095,,,,,,,62.902790000000095,63.89238009999826,63.89799349999885,63.89799349999885,64.12818259999767,z,0.22791100000176812,None,64.12830419999955,64.13379749999876,64.31497300000046,63.89799349999885,,,,,,,,KR_th,001,2025-03-10_20h38.26.220,MainFlow,2024.2.4,143.8917243516046,2025-03-10 20h38.42.189762 +0700,
1,1,1,3,letter/lettth092.png,letter/letten041.png,37,37,0,z,0.21811799999704817,None,0,37,37,37,64.32452009999906,,,,,,,64.32452009999906,65.3082273,65.32103809999899,65.32103809999899,65.54550299999755,z,0.21811799999704817,None,65.5457220999997,65.55078779999894,65.73145359999762,65.31403529999807,,,,,,,,KR_th,001,2025-03-10_20h38.26.220,MainFlow,2024.2.4,143.8917243516046,2025-03-10 20h38.42.189762 +0700,
1,1,1,7,letter/lettth025.png,letter/letten051.png,38,38,0,z,0.30443020000166143,None,0,38,38,38,65.74551129999963,,,,,,,65.74551129999963,66.73239570000078,66.73774069999854,66.73774069999854,67.04532699999982,z,0.30443020000166143,None,67.04554669999925,67.05146129999775,67.23170150000078,66.73774069999854,,,,,,,,KR_th,001,2025-03-10_20h38.26.220,MainFlow,2024.2.4,143.8917243516046,2025-03-10 20h38.42.189762 +0700,
1,3,1,6,letter/lettth082.png,letter/lettgr061.png,39,39,0,z,0.3180270999982895,None,0,39,39,39,67.26957219999895,,,,,,,67.26957219999895,68.25162060000002,68.25806679999732,68.25806679999732,68.57971270000053,z,0.3180270999982895,None,68.57995649999793,68.58602299999984,68.76534790000005,,,,,,,,,KR_th,001,2025-03-10_20h38.26.220,MainFlow,2024.2.4,143.8917243516046,2025-03-10 20h38.42.189762 +0700,
1,2,1,4,letter/lettth153.png,letter/lettkh034.png,40,40,0,z,0.34623719999945024,None,0,40,40,40,68.77587029999995,,,,,,,68.77587029999995,69.76601160000064,69.77167929999996,69.77167929999996,70.12017729999934,z,0.34623719999945024,None,70.1203033999991,70.12570639999831,70.30720519999886,69.77167929999996,,,,,,,,KR_th,001,2025-03-10_20h38.26.220,MainFlow,2024.2.4,143.8917243516046,2025-03-10 20h38.42.189762 +0700,
1,3,2,8,letter/lettgr153.png,letter/lettth013.png,41,41,0,x,0.345703399998456,None,0,41,41,41,70.32270169999902,,,,,,,70.32270169999902,71.30733209999744,71.31310259999736,71.31310259999736,71.66202159999739,x,0.345703399998456,None,71.66218809999918,71.66729449999912,71.84793340000033,71.31310259999736,,,,,,,,KR_th,001,2025-03-10_20h38.26.220,MainFlow,2024.2.4,143.8917243516046,2025-03-10 20h38.42.189762 +0700,
1,1,1,4,letter/lettth041.png,letter/letten091.png,42,42,0,z,0.3951742999997805,None,0,42,42,42,71.86135329999888,,,,,,,71.86135329999888,72.84850079999887,72.85434299999906,72.85434299999906,73.25138349999906,z,0.3951742999997805,None,73.25150829999984,73.25696649999736,73.43833049999739,72.85434299999906,,,,,,,,KR_th,001,2025-03-10_20h38.26.220,MainFlow,2024.2.4,143.8917243516046,2025-03-10 20h38.42.189762 +0700,
1,3,1,8,letter/lettth013.png,letter/lettgr153.png,43,43,0,z,0.26529149999987567,None,0,43,43,43,73.46739919999891,,,,,,,73.46739919999891,74.45214900000065,74.4584752999981,74.4584752999981,74.73124909999751,z,0.26529149999987567,None,74.73131549999744,74.73581980000017,74.91778109999723,,,,,,,,,KR_th,001,2025-03-10_20h38.26.220,MainFlow,2024.2.4,143.8917243516046,2025-03-10 20h38.42.189762 +0700,
1,2,1,3,letter/lettth112.png,letter/lettkh031.png,44,44,0,z,0.28166009999767994,None,0,44,44,44,74.95451739999771,,,,,,,74.95451739999771,75.93742689999999,75.94391249999899,75.94391249999899,76.22955349999756,z,0.28166009999767994,None,76.22965379999732,76.23555059999853,76.41662749999887,,,,,,,,,KR_th,001,2025-03-10_20h38.26.220,MainFlow,2024.2.4,143.8917243516046,2025-03-10 20h38.42.189762 +0700,
1,1,2,2,letter/letten062.png,letter/lettth061.png,45,45,0,x,0.32462890000169864,None,0,45,45,45,76.42679379999754,,,,,,,76.42679379999754,77.41096610000022,77.42302719999861,77.42302719999861,77.75147210000068,x,0.32462890000169864,None,77.75170900000012,77.75829569999769,77.9377902999986,77.41607099999965,,,,,,,,KR_th,001,2025-03-10_20h38.26.220,MainFlow,2024.2.4,143.8917243516046,2025-03-10 20h38.42.189762 +0700,
1,3,1,7,letter/lettth025.png,letter/lettgr072.png,46,46,0,z,0.23644460000286927,None,0,46,46,46,77.95395909999934,,,,,,,77.95395909999934,78.93788649999988,78.94359880000047,78.94359880000047,79.1827114000007,z,0.23644460000286927,None,79.18292889999793,79.18803619999744,79.3683366999976,78.94359880000047,,,,,,,,KR_th,001,2025-03-10_20h38.26.220,MainFlow,2024.2.4,143.8917243516046,2025-03-10 20h38.42.189762 +0700,
1,1,1,7,letter/lettth025.png,letter/letten051.png,47,47,0,z,0.43671979999999166,None,0,47,47,47,79.38685540000006,,,,,,,79.38685540000006,80.37517490000027,80.38060380000024,80.38060380000024,80.82012849999956,z,0.43671979999999166,None,80.82032459999755,80.8249911999992,81.00607830000081,80.38060380000024,,,,,,,,KR_th,001,2025-03-10_20h38.26.220,MainFlow,2024.2.4,143.8917243516046,2025-03-10 20h38.42.189762 +0700,
1,2,2,5,letter/lettkh023.png,letter/lettth024.png,48,48,0,x,0.32280270000046585,None,0,48,48,48,81.03226749999885,,,,,,,81.03226749999885,82.02130389999729,82.02635279999959,82.02635279999959,82.35360339999897,x,0.32280270000046585,None,82.35370879999755,82.3594157999978,82.54045069999847,82.02635279999959,,,,,,,,KR_th,001,2025-03-10_20h38.26.220,MainFlow,2024.2.4,143.8917243516046,2025-03-10 20h38.42.189762 +0700,
1,2,1,5,letter/lettth024.png,letter/lettkh023.png,49,49,0,z,0.2373544000001857,None,0,49,49,49,82.55076559999725,,,,,,,82.55076559999725,83.53469649999897,83.54698369999824,83.54698369999824,83.79055209999933,z,0.2373544000001857,None,83.79061229999934,83.79677159999846,83.97775980000006,83.54000470000028,,,,,,,,KR_th,001,2025-03-10_20h38.26.220,MainFlow,2024.2.4,143.8917243516046,2025-03-10 20h38.42.189762 +0700,
1,3,2,5,letter/lettgr141.png,letter/lettth052.png,50,50,0,x,0.3463368000011542,None,0,50,50,50,84.00759969999854,,,,,,,84.00759969999854,84.99159899999722,84.99787409999772,84.99787409999772,85.34735089999958,x,0.3463368000011542,None,85.34757669999817,85.35303600000043,85.53307579999819,,,,,,,,,KR_th,001,2025-03-10_20h38.26.220,MainFlow,2024.2.4,143.8917243516046,2025-03-10 20h38.42.189762 +0700,
1,2,2,8,letter/lettkh031.png,letter/lettth153.png,51,51,0,x,0.291922299998987,None,0,51,51,51,85.5458593000003,,,,,,,85.5458593000003,86.53358300000036,86.53932259999783,86.53932259999783,86.83878339999865,x,0.291922299998987,None,86.83889039999849,86.84458719999748,87.02615370000058,86.53932259999783,,,,,,,,KR_th,001,2025-03-10_20h38.26.220,MainFlow,2024.2.4,143.8917243516046,2025-03-10 20h38.42.189762 +0700,
1,1,2,5,letter/letten041.png,letter/lettth152.png,52,52,0,x,0.19338860000061686,None,0,52,52,52,87.03852589999951,,,,,,,87.03852589999951,88.02743989999726,88.03216070000053,88.03216070000053,88.22878750000018,x,0.19338860000061686,None,88.22900889999801,88.23406219999742,88.41494939999757,88.03216070000053,,,,,,,,KR_th,001,2025-03-10_20h38.26.220,MainFlow,2024.2.4,143.8917243516046,2025-03-10 20h38.42.189762 +0700,
1,1,1,1,letter/lettth022.png,letter/letten092.png,53,53,0,z,0.2021279999971739,None,0,53,53,53,88.4507995999993,,,,,,,88.4507995999993,89.43500549999953,89.44148800000039,89.44148800000039,89.65042510000058,z,0.2021279999971739,None,89.65048849999948,89.65651579999758,89.83827269999892,,,,,,,,,KR_th,001,2025-03-10_20h38.26.220,MainFlow,2024.2.4,143.8917243516046,2025-03-10 20h38.42.189762 +0700,
1,2,1,1,letter/lettth061.png,letter/lettkh034.png,54,54,0,z,0.1889037000000826,None,0,54,54,54,89.858746599999,,,,,,,89.858746599999,90.8453144999985,90.8510924000002,90.8510924000002,91.0469056999973,z,0.1889037000000826,None,91.04706389999774,91.05223489999844,91.23413879999862,90.8510924000002,,,,,,,,KR_th,001,2025-03-10_20h38.26.220,MainFlow,2024.2.4,143.8917243516046,2025-03-10 20h38.42.189762 +0700,
1,3,2,4,letter/lettgr064.png,letter/lettth024.png,55,55,0,x,0.209911000001739,None,0,55,55,55,91.25182789999963,,,,,,,91.25182789999963,92.24039139999877,92.2464196999972,92.2464196999972,92.4641632999992,x,0.209911000001739,None,92.4643819999983,92.4686772999994,92.64931539999816,92.2464196999972,,,,,,,,KR_th,001,2025-03-10_20h38.26.220,MainFlow,2024.2.4,143.8917243516046,2025-03-10 20h38.42.189762 +0700,
1,3,1,5,letter/lettth052.png,letter/lettgr141.png,56,56,0,z,0.18546169999899575,None,0,56,56,56,92.65632519999781,,,,,,,92.65632519999781,93.64292519999799,93.65599169999768,93.65599169999768,93.84566909999921,z,0.18546169999899575,None,93.84589099999721,93.85268820000056,94.03192610000042,93.64884619999793,,,,,,,,KR_th,001,2025-03-10_20h38.26.220,MainFlow,2024.2.4,143.8917243516046,2025-03-10 20h38.42.189762 +0700,
1,1,1,8,letter/lettth161.png,letter/letten031.png,57,57,0,z,0.24185160000342876,None,0,57,57,57,94.04845379999824,,,,,,,94.04845379999824,95.0324847999982,95.03777160000027,95.03777160000027,95.28276189999815,z,0.24185160000342876,None,95.28300599999784,95.28903229999923,95.46900859999732,95.03777160000027,,,,,,,,KR_th,001,2025-03-10_20h38.26.220,MainFlow,2024.2.4,143.8917243516046,2025-03-10 20h38.42.189762 +0700,
1,1,1,4,letter/lettth041.png,letter/letten091.png,58,58,0,z,0.15348900000026333,None,0,58,58,58,95.48184829999809,,,,,,,95.48184829999809,96.46898230000079,96.47476069999902,96.47476069999902,96.63542289999896,z,0.15348900000026333,None,96.6355455999983,96.64128109999729,96.82210289999784,96.47476069999902,,,,,,,,KR_th,001,2025-03-10_20h38.26.220,MainFlow,2024.2.4,143.8917243516046,2025-03-10 20h38.42.189762 +0700,
1,2,1,4,letter/lettth153.png,letter/lettkh034.png,59,59,0,z,0.10671930000171415,None,0,59,59,59,96.829109899998,,,,,,,96.829109899998,97.81623499999841,97.82876869999745,97.82876869999745,97.94183649999832,z,0.10671930000171415,None,97.94205750000037,97.9470184999991,98.12846729999728,97.82177120000051,,,,,,,,KR_th,001,2025-03-10_20h38.26.220,MainFlow,2024.2.4,143.8917243516046,2025-03-10 20h38.42.189762 +0700,
1,1,2,3,letter/letten041.png,letter/lettth092.png,60,60,0,x,0.1317206999992777,None,0,60,60,60,98.14659340000071,,,,,,,98.14659340000071,99.13612730000023,99.14112960000057,99.14112960000057,99.27461779999794,x,0.1317206999992777,None,99.27474409999922,99.28025569999954,99.46160859999873,99.14112960000057,,,,,,,,KR_th,001,2025-03-10_20h38.26.220,MainFlow,2024.2.4,143.8917243516046,2025-03-10 20h38.42.189762 +0700,
1,3,2,2,letter/lettgr072.png,letter/lettth052.png,61,61,0,x,0.27004260000103386,None,0,61,61,61,99.47785929999736,,,,,,,99.47785929999736,100.46099659999891,100.46700689999852,100.46700689999852,100.7405190999998,x,0.27004260000103386,None,100.74076299999797,100.74565430000075,100.92641829999775,100.46700689999852,,,,,,,,KR_th,001,2025-03-10_20h38.26.220,MainFlow,2024.2.4,143.8917243516046,2025-03-10 20h38.42.189762 +0700,
1,1,2,8,letter/letten031.png,letter/lettth161.png,62,62,0,x,0.20931510000082199,None,0,62,62,62,100.94289659999777,,,,,,,100.94289659999777,101.92646559999775,101.93209600000046,101.93209600000046,102.14848399999755,x,0.20931510000082199,None,102.14858559999993,102.15415429999848,102.33564399999887,101.93209600000046,,,,,,,,KR_th,001,2025-03-10_20h38.26.220,MainFlow,2024.2.4,143.8917243516046,2025-03-10 20h38.42.189762 +0700,
1,1,1,5,letter/lettth152.png,letter/letten041.png,63,63,0,z,0.19977429999926244,None,0,63,63,63,102.34946800000034,,,,,,,102.34946800000034,103.33644429999913,103.34200659999988,103.34200659999988,103.54426769999918,z,0.19977429999926244,None,103.54440009999962,103.54982910000035,103.73181909999767,103.34200659999988,,,,,,,,KR_th,001,2025-03-10_20h38.26.220,MainFlow,2024.2.4,143.8917243516046,2025-03-10 20h38.42.189762 +0700,
1,2,2,2,letter/lettkh032.png,letter/lettth032.png,64,64,0,x,0.17459279999820865,None,0,64,64,64,103.75139539999873,,,,,,,103.75139539999873,104.7389848999992,104.74413359999744,104.74413359999744,104.92533919999914,x,0.17459279999820865,None,104.92539939999915,104.93130759999985,105.11316799999986,104.74413359999744,,,,,,,,KR_th,001,2025-03-10_20h38.26.220,MainFlow,2024.2.4,143.8917243516046,2025-03-10 20h38.42.189762 +0700,
1,3,1,2,letter/lettth052.png,letter/lettgr072.png,65,65,0,z,0.1941064999991795,None,0,65,65,65,105.12654239999756,,,,,,,105.12654239999756,106.11312619999808,106.11891159999868,106.11891159999868,106.31454619999931,z,0.1941064999991795,None,106.31467129999874,106.32007460000023,106.50181729999895,106.11891159999868,,,,,,,,KR_th,001,2025-03-10_20h38.26.220,MainFlow,2024.2.4,143.8917243516046,2025-03-10 20h38.42.189762 +0700,
1,1,2,4,letter/letten091.png,letter/lettth041.png,66,66,0,x,0.25791749999916647,None,0,66,66,66,106.53621220000059,,,,,,,106.53621220000059,107.51509850000002,107.52142520000052,107.52142520000052,107.78660970000055,x,0.25791749999916647,None,107.78678740000032,107.79205150000053,107.9733582000008,,,,,,,,,KR_th,001,2025-03-10_20h38.26.220,MainFlow,2024.2.4,143.8917243516046,2025-03-10 20h38.42.189762 +0700,
1,3,2,5,letter/lettgr141.png,letter/lettth052.png,67,67,0,x,0.17218470000079833,None,0,67,67,67,107.98768460000065,,,,,,,107.98768460000065,108.97350899999947,108.97930540000016,108.97930540000016,109.15410829999746,x,0.17218470000079833,None,109.15422979999857,109.1597002999988,109.34046970000054,108.97930540000016,,,,,,,,KR_th,001,2025-03-10_20h38.26.220,MainFlow,2024.2.4,143.8917243516046,2025-03-10 20h38.42.189762 +0700,
1,2,2,3,letter/lettkh031.png,letter/lettth112.png,68,68,0,x,0.16171829999802867,None,0,68,68,68,109.34755709999808,,,,,,,109.34755709999808,110.33489469999768,110.34707559999879,110.34707559999879,110.51493169999958,x,0.16171829999802867,None,110.51505550000002,110.52071090000027,110.7024464999995,110.34014729999762,,,,,,,,KR_th,001,2025-03-10_20h38.26.220,MainFlow,2024.2.4,143.8917243516046,2025-03-10 20h38.42.189762 +0700,
1,3,2,7,letter/lettgr072.png,letter/lettth025.png,69,69,0,x,0.16529080000327667,None,0,69,69,69,110.72074169999905,,,,,,,110.72074169999905,111.70951489999788,111.71501999999964,111.71501999999964,111.88382369999817,x,0.16529080000327667,None,111.88405140000032,111.88894989999972,112.06952269999965,111.71501999999964,,,,,,,,KR_th,001,2025-03-10_20h38.26.220,MainFlow,2024.2.4,143.8917243516046,2025-03-10 20h38.42.189762 +0700,
1,3,2,2,letter/lettgr072.png,letter/lettth052.png,70,70,0,x,0.21688759999960894,None,0,70,70,70,112.08103809999739,,,,,,,112.08103809999739,113.0702182999994,113.07573100000081,113.07573100000081,113.2995310999977,x,0.21688759999960894,None,113.2996920000005,113.30466229999729,113.48551519999819,113.07573100000081,,,,,,,,KR_th,001,2025-03-10_20h38.26.220,MainFlow,2024.2.4,143.8917243516046,2025-03-10 20h38.42.189762 +0700,
1,1,1,1,letter/lettth022.png,letter/letten092.png,71,71,0,z,0.1885294999992766,None,0,71,71,71,113.49260679999861,,,,,,,113.49260679999861,114.48072369999863,114.49217560000034,114.49217560000034,114.68816169999991,z,0.1885294999992766,None,114.68832259999908,114.69353430000047,114.87491829999999,114.48581179999746,,,,,,,,KR_th,001,2025-03-10_20h38.26.220,MainFlow,2024.2.4,143.8917243516046,2025-03-10 20h38.42.189762 +0700,
1,3,1,6,letter/lettth082.png,letter/lettgr061.png,72,72,0,z,None,None,0,72,72,72,114.88970960000006,,,,,,,114.88970960000006,115.87557679999736,115.88285929999984,115.88285929999984,116.04236949999904,z,None,None,116.04258909999771,116.04736059999777,116.22904749999725,115.88285929999984,,,,,,,,KR_th,001,2025-03-10_20h38.26.220,MainFlow,2024.2.4,143.8917243516046,2025-03-10 20h38.42.189762 +0700,
1,2,1,7,letter/lettth072.png,letter/lettkh033.png,73,73,0,z,0.06002250000165077,None,0,73,73,73,116.24685689999751,,,,,,,116.24685689999751,117.23596059999909,117.2416290000001,117.2416290000001,117.30616219999865,z,0.06002250000165077,None,117.30634009999994,117.3110190999978,117.4923063999995,117.2416290000001,,,,,,,,KR_th,001,2025-03-10_20h38.26.220,MainFlow,2024.2.4,143.8917243516046,2025-03-10 20h38.42.189762 +0700,
1,3,2,6,letter/lettgr061.png,letter/lettth082.png,74,74,0,x,0.032149000002391404,None,0,74,74,74,117.50404870000057,,,,,,,117.50404870000057,118.4928144000005,118.4984571999994,118.4984571999994,118.53530089999913,x,0.032149000002391404,None,118.5354640000005,118.53993939999782,118.72141489999922,118.4984571999994,,,,,,,,KR_th,001,2025-03-10_20h38.26.220,MainFlow,2024.2.4,143.8917243516046,2025-03-10 20h38.42.189762 +0700,
1,1,2,6,letter/letten153.png,letter/lettth024.png,75,75,0,x,0.18008950000148616,None,0,75,75,75,118.73638179999762,,,,,,,118.73638179999762,119.72227740000017,119.72756479999953,119.72756479999953,119.90984979999848,x,0.18008950000148616,None,119.90999670000019,119.91468059999897,120.09634489999735,119.72756479999953,,,,,,,,KR_th,001,2025-03-10_20h38.26.220,MainFlow,2024.2.4,143.8917243516046,2025-03-10 20h38.42.189762 +0700,
1,2,2,1,letter/lettkh034.png,letter/lettth061.png,76,76,0,x,0.16795270000147866,None,0,76,76,76,120.11546349999844,,,,,,,120.11546349999844,121.10384539999723,121.10904319999827,121.10904319999827,121.28365539999868,x,0.16795270000147866,None,121.28378299999895,121.28931499999817,121.4703797000002,121.10904319999827,,,,,,,,KR_th,001,2025-03-10_20h38.26.220,MainFlow,2024.2.4,143.8917243516046,2025-03-10 20h38.42.189762 +0700,
1,2,1,6,letter/lettth161.png,letter/lettkh033.png,77,77,0,z,0.07882819999940693,None,0,77,77,77,121.48232999999891,,,,,,,121.48232999999891,122.47120419999919,122.47675499999968,122.47675499999968,122.56166259999736,z,0.07882819999940693,None,122.56178759999966,122.56693009999799,122.74812259999817,122.47675499999968,,,,,,,,KR_th,001,2025-03-10_20h38.26.220,MainFlow,2024.2.4,143.8917243516046,2025-03-10 20h38.42.189762 +0700,
1,2,2,7,letter/lettkh033.png,letter/lettth072.png,78,78,0,x,0.24331160000292584,None,0,78,78,78,122.75999930000035,,,,,,,122.75999930000035,123.74880029999986,123.75444699999935,123.75444699999935,124.00502109999798,x,0.24331160000292584,None,124.005122999999,124.01097129999835,124.19268649999867,123.75444699999935,,,,,,,,KR_th,001,2025-03-10_20h38.26.220,MainFlow,2024.2.4,143.8917243516046,2025-03-10 20h38.42.189762 +0700,
1,2,1,8,letter/lettth153.png,letter/lettkh031.png,79,79,0,z,0.02314969999861205,None,0,79,79,79,124.20339450000029,,,,,,,124.20339450000029,125.19244769999932,125.19838239999808,125.19838239999808,125.22810499999832,z,0.02314969999861205,None,125.22816529999909,125.23288749999847,125.41431949999969,125.19838239999808,,,,,,,,KR_th,001,2025-03-10_20h38.26.220,MainFlow,2024.2.4,143.8917243516046,2025-03-10 20h38.42.189762 +0700,
1,3,1,2,letter/lettth052.png,letter/lettgr072.png,80,80,0,z,0.13447770000129822,None,0,80,80,80,125.42811199999778,,,,,,,125.42811199999778,126.41503739999825,126.42049290000068,126.42049290000068,126.56081249999988,z,0.13447770000129822,None,126.56096279999838,126.56609749999916,126.74758640000073,126.42049290000068,,,,,,,,KR_th,001,2025-03-10_20h38.26.220,MainFlow,2024.2.4,143.8917243516046,2025-03-10 20h38.42.189762 +0700,
1,2,1,2,letter/lettth032.png,letter/lettkh032.png,81,81,0,z,0.11225759999797447,None,0,81,81,81,126.7607270999979,,,,,,,126.7607270999979,127.74808439999833,127.75360309999814,127.75360309999814,127.87282879999839,z,0.11225759999797447,None,127.87299459999849,127.87822509999751,128.06019729999753,127.75360309999814,,,,,,,,KR_th,001,2025-03-10_20h38.26.220,MainFlow,2024.2.4,143.8917243516046,2025-03-10 20h38.42.189762 +0700,
1,1,2,7,letter/letten051.png,letter/lettth025.png,82,82,0,x,0.10621239999818499,None,0,82,82,82,128.0748507999997,,,,,,,128.0748507999997,129.0605973999991,129.06569469999886,129.06569469999886,129.179032,x,0.10621239999818499,None,129.17919389999952,129.18370679999862,129.36582590000035,129.06569469999886,,,,,,,,KR_th,001,2025-03-10_20h38.26.220,MainFlow,2024.2.4,143.8917243516046,2025-03-10 20h38.42.189762 +0700,
1,3,1,4,letter/lettth024.png,letter/lettgr064.png,83,83,0,z,0.12646919999679085,None,0,83,83,83,129.38288209999882,,,,,,,129.38288209999882,130.3719947999998,130.37785319999966,130.37785319999966,130.51094809999995,z,0.12646919999679085,None,130.51107109999793,130.51671299999725,130.69790189999912,130.37785319999966,,,,,,,,KR_th,001,2025-03-10_20h38.26.220,MainFlow,2024.2.4,143.8917243516046,2025-03-10 20h38.42.189762 +0700,
1,3,2,3,letter/lettgr153.png,letter/lettth155.png,84,84,0,x,0.06403429999772925,None,0,84,84,84,130.70973239999876,,,,,,,130.70973239999876,131.69870739999897,131.7042513999986,131.7042513999986,131.77582749999783,x,0.06403429999772925,None,131.7761563999993,131.7805516999979,131.96166579999772,131.7042513999986,,,,,,,,KR_th,001,2025-03-10_20h38.26.220,MainFlow,2024.2.4,143.8917243516046,2025-03-10 20h38.42.189762 +0700,
1,1,1,6,letter/lettth024.png,letter/letten153.png,85,85,0,z,0.09087390000058804,None,0,85,85,85,131.9752386,,,,,,,131.9752386,132.96165739999924,132.9676303999986,132.9676303999986,133.06567329999962,z,0.09087390000058804,None,133.06578579999768,133.07167259999915,133.2535175999983,132.9676303999986,,,,,,,,KR_th,001,2025-03-10_20h38.26.220,MainFlow,2024.2.4,143.8917243516046,2025-03-10 20h38.42.189762 +0700,
1,1,2,3,letter/letten041.png,letter/lettth092.png,86,86,0,x,0.0938800000003539,None,0,86,86,86,133.27329879999888,,,,,,,133.27329879999888,134.26048979999905,134.26604139999836,134.26604139999836,134.3636551999989,x,0.0938800000003539,None,134.3637213999973,134.37006269999983,134.55187619999924,134.26604139999836,,,,,,,,KR_th,001,2025-03-10_20h38.26.220,MainFlow,2024.2.4,143.8917243516046,2025-03-10 20h38.42.189762 +0700,
1,2,2,1,letter/lettkh034.png,letter/lettth061.png,87,87,0,x,0.15884000000005472,None,0,87,87,87,134.56250100000034,,,,,,,134.56250100000034,135.55171999999948,135.55753019999975,135.55753019999975,135.718915999998,x,0.15884000000005472,None,135.71907719999945,135.72415779999938,135.9059234999986,135.55753019999975,,,,,,,,KR_th,001,2025-03-10_20h38.26.220,MainFlow,2024.2.4,143.8917243516046,2025-03-10 20h38.42.189762 +0700,
1,3,1,3,letter/lettth155.png,letter/lettgr153.png,88,88,0,z,0.09190200000011828,None,0,88,88,88,135.922898599998,,,,,,,135.922898599998,136.9122380000008,136.9183153999984,136.9183153999984,137.01766869999847,z,0.09190200000011828,None,137.01789389999976,137.02246829999785,137.2041735999992,136.9183153999984,,,,,,,,KR_th,001,2025-03-10_20h38.26.220,MainFlow,2024.2.4,143.8917243516046,2025-03-10 20h38.42.189762 +0700,
1,2,1,3,letter/lettth112.png,letter/lettkh031.png,89,89,0,z,0.02993580000111251,None,0,89,89,89,137.22249499999816,,,,,,,137.22249499999816,138.21080620000066,138.21664769999916,138.21664769999916,138.25264889999744,z,0.02993580000111251,None,138.25278070000059,138.25825839999743,138.4401485999988,138.21664769999916,,,,,,,,KR_th,001,2025-03-10_20h38.26.220,MainFlow,2024.2.4,143.8917243516046,2025-03-10 20h38.42.189762 +0700,
1,2,2,5,letter/lettkh023.png,letter/lettth024.png,90,90,0,x,0.9490533000025607,None,0,90,90,90,138.4584415999998,,,,,,,138.4584415999998,139.44756169999891,139.45279899999878,139.45279899999878,140.40553499999805,x,0.9490533000025607,None,140.40569350000078,140.41068129999985,140.59227909999754,139.45279899999878,,,,,,,,KR_th,001,2025-03-10_20h38.26.220,MainFlow,2024.2.4,143.8917243516046,2025-03-10 20h38.42.189762 +0700,
1,1,2,4,letter/letten091.png,letter/lettth041.png,91,91,0,x,0.20720490000167047,None,0,91,91,91,140.60888179999893,,,,,,,140.60888179999893,141.5923733999989,141.5979797,141.5979797,141.80845000000045,x,0.20720490000167047,None,141.80866389999937,141.81371969999964,141.99450019999858,141.5979797,,,,,,,,KR_th,001,2025-03-10_20h38.26.220,MainFlow,2024.2.4,143.8917243516046,2025-03-10 20h38.42.189762 +0700,
1,2,2,3,letter/lettkh031.png,letter/lettth112.png,92,92,0,x,0.19252050000068266,None,0,92,92,92,142.00930999999764,,,,,,,142.00930999999764,142.99535950000063,143.00090219999765,143.00090219999765,143.19736849999754,x,0.19252050000068266,None,143.19756959999722,143.2026713999985,143.38372159999926,143.00090219999765,,,,,,,,KR_th,001,2025-03-10_20h38.26.220,MainFlow,2024.2.4,143.8917243516046,2025-03-10 20h38.42.189762 +0700,
1,3,1,8,letter/lettth013.png,letter/lettgr153.png,93,93,0,z,0.15751430000091204,None,0,93,93,93,143.40192169999864,,,,,,,143.40192169999864,144.39100359999793,144.3961681999972,144.3961681999972,144.5567510999972,z,0.15751430000091204,None,144.5568538999978,144.56254629999967,144.74450699999943,144.3961681999972,,,,,,,,KR_th,001,2025-03-10_20h38.26.220,MainFlow,2024.2.4,143.8917243516046,2025-03-10 20h38.42.189762 +0700,
1,1,1,2,letter/lettth061.png,letter/letten062.png,94,94,0,z,0.10434510000050068,None,0,94,94,94,144.75984360000075,,,,,,,144.75984360000075,145.74437979999857,145.7499300999989,145.7499300999989,145.85547459999725,z,0.10434510000050068,None,145.8555940999977,145.86102169999867,146.0422550000003,145.7499300999989,,,,,,,,KR_th,001,2025-03-10_20h38.26.220,MainFlow,2024.2.4,143.8917243516046,2025-03-10 20h38.42.189762 +0700,
1,3,2,3,letter/lettgr153.png,letter/lettth155.png,95,95,0,x,0.054659800000081304,None,0,95,95,95,146.05581109999912,,,,,,,146.05581109999912,147.04283299999952,147.04838100000052,147.04838100000052,147.10560119999718,x,0.054659800000081304,None,147.1057578,147.11090329999934,147.29262720000042,147.04838100000052,,,,,,,,KR_th,001,2025-03-10_20h38.26.220,MainFlow,2024.2.4,143.8917243516046,2025-03-10 20h38.42.189762 +0700,
,,,,,,,,,,,,,,,,,,,,,,,,,,,,,,,,,,,147.29287099999783,147.29941809999946,147.29941809999946,155.95330679999824,space,8.6459111999975,None,KR_th,001,2025-03-10_20h38.26.220,MainFlow,2024.2.4,143.8917243516046,2025-03-10 20h38.42.189762 +0700,
