lang,langpair,sequence,pairid,firstdir,seconddir,thisN,thisTrialN,thisRepN,key_resp.keys,key_resp.rt,key_resp.duration,trials.thisRepN,trials.thisTrialN,trials.thisN,trials.thisIndex,thisRow.t,notes,tutorial.started,tutorial.stopped,key_instruct.keys,key_instruct.rt,key_instruct.duration,image_first.started,letterselect.started,instruct.started,key_resp.started,letterselect.stopped,trials.key_resp.keys,trials.key_resp.rt,trials.key_resp.duration,blanknext.started,instruct_2.started,blanknext.stopped,image_first.stopped,ending.started,text_3.started,ending_key.started,ending.stopped,ending_key.keys,ending_key.rt,ending_key.duration,participant,session,date,expName,psychopyVersion,frameRate,expStart,
,,,,,,,,,,,,,,,,,,0.0029770999681204557,4.946465100045316,space,4.912202100036666,None,,,,,,,,,,,,,,,,,,,,MW_en,001,2025-03-23_17h02.58.611,MainFlow,2024.2.4,144.02311295150616,2025-03-23 17h03.17.549628 +0700,
2,2,1,6,letter/letten061.png,letter/lettkh155.png,0,0,0,z,0.28115579998120666,None,0,0,0,0,5.020344399963506,,,,,,,5.020344399963506,5.962017699959688,5.966130599961616,5.966130599961616,6.248103199992329,z,0.28115579998120666,None,6.250847900053486,6.254424100043252,6.435655500041321,,,,,,,,,MW_en,001,2025-03-23_17h02.58.611,MainFlow,2024.2.4,144.02311295150616,2025-03-23 17h03.17.549628 +0700,
2,1,2,2,letter/lettth142.png,letter/letten181.png,1,1,0,x,1.4583245000103489,None,0,1,1,1,6.455771300010383,,,,,,,6.455771300010383,7.4435868000146,7.4489760000724345,7.4489760000724345,8.909211599966511,x,1.4583245000103489,None,8.909420200041495,8.914397899992764,9.095508500002325,7.4489760000724345,,,,,,,,MW_en,001,2025-03-23_17h02.58.611,MainFlow,2024.2.4,144.02311295150616,2025-03-23 17h03.17.549628 +0700,
2,1,1,2,letter/letten181.png,letter/lettth142.png,2,2,0,z,0.3580104000866413,None,0,2,2,2,9.137996900011785,,,,,,,9.137996900011785,10.1156442000065,10.121988500002772,10.121988500002772,10.484142699977383,z,0.3580104000866413,None,10.484267099993303,10.489815899985842,10.670979500049725,,,,,,,,,MW_en,001,2025-03-23_17h02.58.611,MainFlow,2024.2.4,144.02311295150616,2025-03-23 17h03.17.549628 +0700,
2,2,1,8,letter/letten051.png,letter/lettkh035.png,3,3,0,z,0.28388700005598366,None,0,3,3,3,10.681625899975188,,,,,,,10.681625899975188,11.671300400048494,11.677201800048351,11.677201800048351,11.964268799987622,z,0.28388700005598366,None,11.964492200058885,11.96962920005899,12.149987600045279,11.677201800048351,,,,,,,,MW_en,001,2025-03-23_17h02.58.611,MainFlow,2024.2.4,144.02311295150616,2025-03-23 17h03.17.549628 +0700,
2,3,2,2,letter/lettgr061.png,letter/letten061.png,4,4,0,x,0.3359675999963656,None,0,4,4,4,12.16183890006505,,,,,,,12.16183890006505,13.150004200055264,13.155994900036603,13.155994900036603,13.498259900021367,x,0.3359675999963656,None,13.498459900030866,13.503345799981616,13.684511100058444,13.155994900036603,,,,,,,,MW_en,001,2025-03-23_17h02.58.611,MainFlow,2024.2.4,144.02311295150616,2025-03-23 17h03.17.549628 +0700,
2,3,1,7,letter/letten062.png,letter/lettgr065.png,5,5,0,z,0.29340460000094026,None,0,5,5,5,13.69775060005486,,,,,,,13.69775060005486,14.685195700032637,14.690551100065932,14.690551100065932,14.99014630005695,z,0.29340460000094026,None,14.990253200056031,14.995846300036646,15.17660440003965,14.690551100065932,,,,,,,,MW_en,001,2025-03-23_17h02.58.611,MainFlow,2024.2.4,144.02311295150616,2025-03-23 17h03.17.549628 +0700,
2,2,1,7,letter/letten112.png,letter/lettkh083.png,6,6,0,z,0.7135278000496328,None,0,6,6,6,15.195533300051466,,,,,,,15.195533300051466,16.18467920005787,16.190314100007527,16.190314100007527,16.906818700022995,z,0.7135278000496328,None,16.906983599998057,16.912171800038777,17.09364950004965,16.190314100007527,,,,,,,,MW_en,001,2025-03-23_17h02.58.611,MainFlow,2024.2.4,144.02311295150616,2025-03-23 17h03.17.549628 +0700,
2,1,1,1,letter/letten041.png,letter/lettth022.png,7,7,0,z,0.24234019999857992,None,0,7,7,7,17.10761199996341,,,,,,,17.10761199996341,18.09419540001545,18.099626900046133,18.099626900046133,18.344117300002836,z,0.24234019999857992,None,18.34426969999913,18.349463899969123,18.530756299966015,18.099626900046133,,,,,,,,MW_en,001,2025-03-23_17h02.58.611,MainFlow,2024.2.4,144.02311295150616,2025-03-23 17h03.17.549628 +0700,
2,3,1,6,letter/letten061.png,letter/lettgr066.png,8,8,0,z,0.2493671999545768,None,0,8,8,8,18.54569790000096,,,,,,,18.54569790000096,19.531694200006314,19.536867600050755,19.536867600050755,19.789166799979284,z,0.2493671999545768,None,19.78938059997745,19.79371820006054,19.975438400055282,19.536867600050755,,,,,,,,MW_en,001,2025-03-23_17h02.58.611,MainFlow,2024.2.4,144.02311295150616,2025-03-23 17h03.17.549628 +0700,
2,2,2,6,letter/lettkh155.png,letter/letten061.png,9,9,0,x,1.2447464999277145,None,0,9,9,9,20.015881299972534,,,,,,,20.015881299972534,20.99551340006292,21.001784899970517,21.001784899970517,22.25212379998993,x,1.2447464999277145,None,22.252197599969804,22.258280100068077,22.440074000041932,,,,,,,,,MW_en,001,2025-03-23_17h02.58.611,MainFlow,2024.2.4,144.02311295150616,2025-03-23 17h03.17.549628 +0700,
2,1,2,6,letter/lettth132.png,letter/letten091.png,10,10,0,x,0.04963200003840029,None,0,10,10,10,22.458071000059135,,,,,,,22.458071000059135,23.44654110004194,23.452651500003412,23.452651500003412,23.51003949996084,x,0.04963200003840029,None,23.510238399961963,23.51521139999386,23.696868899976835,23.452651500003412,,,,,,,,MW_en,001,2025-03-23_17h02.58.611,MainFlow,2024.2.4,144.02311295150616,2025-03-23 17h03.17.549628 +0700,
2,2,1,5,letter/letten051.png,letter/lettkh157.png,11,11,0,z,0.5071015000576153,None,0,11,11,11,23.713761999970302,,,,,,,23.713761999970302,24.70409210002981,24.709467299981043,24.709467299981043,25.22405279998202,z,0.5071015000576153,None,25.22418070002459,25.22996220004279,25.411804900038987,24.709467299981043,,,,,,,,MW_en,001,2025-03-23_17h02.58.611,MainFlow,2024.2.4,144.02311295150616,2025-03-23 17h03.17.549628 +0700,
2,3,1,3,letter/letten061.png,letter/lettgr063.png,12,12,0,z,0.2453919000690803,None,0,12,12,12,25.42637670005206,,,,,,,25.42637670005206,26.411365100066178,26.417330599972047,26.417330599972047,26.66838569997344,z,0.2453919000690803,None,26.668508199974895,26.67416569998022,26.85597809997853,26.417330599972047,,,,,,,,MW_en,001,2025-03-23_17h02.58.611,MainFlow,2024.2.4,144.02311295150616,2025-03-23 17h03.17.549628 +0700,
2,2,2,8,letter/lettkh035.png,letter/letten051.png,13,13,0,x,0.20952090003993362,None,0,13,13,13,26.892056999960914,,,,,,,26.892056999960914,27.869132500025444,27.875454899971373,27.875454899971373,28.091980200028047,x,0.20952090003993362,None,28.092096799984574,28.097586299991235,28.278896700008772,,,,,,,,,MW_en,001,2025-03-23_17h02.58.611,MainFlow,2024.2.4,144.02311295150616,2025-03-23 17h03.17.549628 +0700,
2,1,2,3,letter/lettth152.png,letter/letten142.png,14,14,0,z,0.2621020999504253,None,0,14,14,14,28.288106800056994,,,,,,,28.288106800056994,29.27263090002816,29.284958900068887,29.284958900068887,29.55087250005454,z,0.2621020999504253,None,29.551093099988066,29.555940099991858,29.73660349997226,29.27794850000646,,,,,,,,MW_en,001,2025-03-23_17h02.58.611,MainFlow,2024.2.4,144.02311295150616,2025-03-23 17h03.17.549628 +0700,
2,2,2,6,letter/lettkh155.png,letter/letten061.png,15,15,0,x,0.23024820000864565,None,0,15,15,15,29.749122100067325,,,,,,,29.749122100067325,30.737677700002678,30.743020600057207,30.743020600057207,30.981080400059,x,0.23024820000864565,None,30.98128900001757,30.985944899963215,31.16662599996198,30.743020600057207,,,,,,,,MW_en,001,2025-03-23_17h02.58.611,MainFlow,2024.2.4,144.02311295150616,2025-03-23 17h03.17.549628 +0700,
2,3,1,1,letter/letten021.png,letter/lettgr021.png,16,16,0,z,0.007860600017011166,None,0,16,16,16,31.17978939996101,,,,,,,31.17978939996101,32.16811490000691,32.17342170001939,32.17342170001939,32.188478099997155,z,0.007860600017011166,None,32.18864249996841,32.19404169998597,32.37549070001114,32.17342170001939,,,,,,,,MW_en,001,2025-03-23_17h02.58.611,MainFlow,2024.2.4,144.02311295150616,2025-03-23 17h03.17.549628 +0700,
2,3,1,3,letter/letten061.png,letter/lettgr063.png,17,17,0,z,0.014931500074453652,None,0,17,17,17,32.38839740003459,,,,,,,32.38839740003459,33.37515420001,33.38119400001597,33.38119400001597,33.40401549998205,z,0.014931500074453652,None,33.404218600015156,33.40910980000626,33.59024799999315,33.38119400001597,,,,,,,,MW_en,001,2025-03-23_17h02.58.611,MainFlow,2024.2.4,144.02311295150616,2025-03-23 17h03.17.549628 +0700,
2,2,1,1,letter/letten153.png,letter/lettkh159.png,18,18,0,z,0.2376139999832958,None,0,18,18,18,33.60313559998758,,,,,,,33.60313559998758,34.590335199958645,34.59627850004472,34.59627850004472,34.840381199959666,z,0.2376139999832958,None,34.84049980004784,34.8461841000244,35.02731649996713,34.59627850004472,,,,,,,,MW_en,001,2025-03-23_17h02.58.611,MainFlow,2024.2.4,144.02311295150616,2025-03-23 17h03.17.549628 +0700,
2,1,1,6,letter/letten091.png,letter/lettth132.png,19,19,0,z,0.23441610008012503,None,0,19,19,19,35.03915169998072,,,,,,,35.03915169998072,36.02808550000191,36.03366640000604,36.03366640000604,36.27193649997935,z,0.23441610008012503,None,36.272164099966176,36.27725429995917,36.45835970004555,36.03366640000604,,,,,,,,MW_en,001,2025-03-23_17h02.58.611,MainFlow,2024.2.4,144.02311295150616,2025-03-23 17h03.17.549628 +0700,
2,3,2,5,letter/lettgr012.png,letter/letten011.png,20,20,0,x,0.19950069999322295,None,0,20,20,20,36.49120419996325,,,,,,,36.49120419996325,37.47843240003567,37.484748400049284,37.484748400049284,37.68712749995757,x,0.19950069999322295,None,37.68724380002823,37.69287390005775,37.874662499991246,,,,,,,,,MW_en,001,2025-03-23_17h02.58.611,MainFlow,2024.2.4,144.02311295150616,2025-03-23 17h03.17.549628 +0700,
2,1,1,2,letter/letten181.png,letter/lettth142.png,21,21,0,z,0.08486609999090433,None,0,21,21,21,37.89440130000003,,,,,,,37.89440130000003,38.881939099985175,38.88722010003403,38.88722010003403,38.9792693000054,z,0.08486609999090433,None,38.97942079999484,38.984198500053026,39.16546709998511,38.88722010003403,,,,,,,,MW_en,001,2025-03-23_17h02.58.611,MainFlow,2024.2.4,144.02311295150616,2025-03-23 17h03.17.549628 +0700,
2,2,1,5,letter/letten051.png,letter/lettkh157.png,22,22,0,z,0.18429770006332546,None,0,22,22,22,39.17809499998111,,,,,,,39.17809499998111,40.16651620005723,40.171815200010315,40.171815200010315,40.36021139996592,z,0.18429770006332546,None,40.36031110002659,40.36601710005198,40.54748880001716,40.171815200010315,,,,,,,,MW_en,001,2025-03-23_17h02.58.611,MainFlow,2024.2.4,144.02311295150616,2025-03-23 17h03.17.549628 +0700,
2,3,1,4,letter/letten062.png,letter/lettgr063.png,23,23,0,z,0.24681319994851947,None,0,23,23,23,40.55954250006471,,,,,,,40.55954250006471,41.54736750002485,41.553411600063555,41.553411600063555,41.80449040001258,z,0.24681319994851947,None,41.804618300055154,41.81011389999185,41.99194830004126,41.553411600063555,,,,,,,,MW_en,001,2025-03-23_17h02.58.611,MainFlow,2024.2.4,144.02311295150616,2025-03-23 17h03.17.549628 +0700,
2,3,2,3,letter/lettgr063.png,letter/letten061.png,24,24,0,x,0.12115120002999902,None,0,24,24,24,42.01528900000267,,,,,,,42.01528900000267,42.999212700058706,43.00459759996738,43.00459759996738,43.13156730006449,x,0.12115120002999902,None,43.131774300010875,43.13643139996566,43.31815489998553,43.00459759996738,,,,,,,,MW_en,001,2025-03-23_17h02.58.611,MainFlow,2024.2.4,144.02311295150616,2025-03-23 17h03.17.549628 +0700,
2,2,2,5,letter/lettkh157.png,letter/letten051.png,25,25,0,x,1.7860938999801874,None,0,25,25,25,43.35239080002066,,,,,,,43.35239080002066,44.338126600021496,44.34451570000965,44.34451570000965,46.13794729998335,x,1.7860938999801874,None,46.13815430004615,46.14269830007106,46.32437240006402,,,,,,,,,MW_en,001,2025-03-23_17h02.58.611,MainFlow,2024.2.4,144.02311295150616,2025-03-23 17h03.17.549628 +0700,
2,3,1,5,letter/letten011.png,letter/lettgr012.png,26,26,0,z,None,None,0,26,26,26,46.34722710005008,,,,,,,46.34722710005008,47.331041599973105,47.33690310001839,47.33690310001839,47.567727599991485,z,None,None,47.56788760004565,47.57304519996978,47.7537989000557,47.33690310001839,,,,,,,,MW_en,001,2025-03-23_17h02.58.611,MainFlow,2024.2.4,144.02311295150616,2025-03-23 17h03.17.549628 +0700,
2,3,1,1,letter/letten021.png,letter/lettgr021.png,27,27,0,z,0.23968779994174838,None,0,27,27,27,47.760746799991466,,,,,,,47.760746799991466,48.747390900040045,48.76032490003854,48.76032490003854,49.00469349999912,z,0.23968779994174838,None,49.004842299968004,49.01015510002617,49.19207950006239,48.753395000007,,,,,,,,MW_en,001,2025-03-23_17h02.58.611,MainFlow,2024.2.4,144.02311295150616,2025-03-23 17h03.17.549628 +0700,
2,2,1,8,letter/letten051.png,letter/lettkh035.png,28,28,0,z,0.23007459996733814,None,0,28,28,28,49.20595370000228,,,,,,,49.20595370000228,50.19156149995979,50.197465499979444,50.197465499979444,50.435166500043124,z,0.23007459996733814,None,50.43531500000972,50.44042960007209,50.6217499000486,50.197465499979444,,,,,,,,MW_en,001,2025-03-23_17h02.58.611,MainFlow,2024.2.4,144.02311295150616,2025-03-23 17h03.17.549628 +0700,
2,3,1,4,letter/letten062.png,letter/lettgr063.png,29,29,0,z,0.22345709998626262,None,0,29,29,29,50.634389900020324,,,,,,,50.634389900020324,51.62254190002568,51.62792340002488,51.62792340002488,51.85792970005423,z,0.22345709998626262,None,51.857986100018024,51.86368670000229,52.04467630002182,51.62792340002488,,,,,,,,MW_en,001,2025-03-23_17h02.58.611,MainFlow,2024.2.4,144.02311295150616,2025-03-23 17h03.17.549628 +0700,
2,1,2,8,letter/lettth022.png,letter/letten131.png,30,30,0,x,0.17255989997647703,None,0,30,30,30,52.051599099999294,,,,,,,52.051599099999294,53.03883770003449,53.05114810005762,53.05114810005762,53.22581039997749,x,0.17255989997647703,None,53.22592590004206,53.23153390001971,53.41322860005312,53.04419709998183,,,,,,,,MW_en,001,2025-03-23_17h02.58.611,MainFlow,2024.2.4,144.02311295150616,2025-03-23 17h03.17.549628 +0700,
2,2,1,1,letter/letten153.png,letter/lettkh159.png,31,31,0,z,0.21320779994130135,None,0,31,31,31,53.431389300036244,,,,,,,53.431389300036244,54.41984950006008,54.425762100028805,54.425762100028805,54.64301100000739,z,0.21320779994130135,None,54.64321879995987,54.64798150002025,54.829325500060804,54.425762100028805,,,,,,,,MW_en,001,2025-03-23_17h02.58.611,MainFlow,2024.2.4,144.02311295150616,2025-03-23 17h03.17.549628 +0700,
2,2,1,4,letter/letten071.png,letter/lettkh055.png,32,32,0,z,0.17985979991499335,None,0,32,32,32,54.84971089998726,,,,,,,54.84971089998726,55.83703489997424,55.84235619998071,55.84235619998071,56.02389780001249,z,0.17985979991499335,None,56.02401250007097,56.029664500034414,56.21111420006491,55.84235619998071,,,,,,,,MW_en,001,2025-03-23_17h02.58.611,MainFlow,2024.2.4,144.02311295150616,2025-03-23 17h03.17.549628 +0700,
2,1,1,5,letter/letten121.png,letter/lettth101.png,33,33,0,z,0.22852930007502437,None,0,33,33,33,56.237118200049736,,,,,,,56.237118200049736,57.224626400042325,57.230828500003554,57.230828500003554,57.461043299990706,z,0.22852930007502437,None,57.461171700037085,57.466809700010344,57.648601899971254,,,,,,,,,MW_en,001,2025-03-23_17h02.58.611,MainFlow,2024.2.4,144.02311295150616,2025-03-23 17h03.17.549628 +0700,
2,2,2,4,letter/lettkh055.png,letter/letten071.png,34,34,0,x,0.24633489991538227,None,0,34,34,34,57.66651740006637,,,,,,,57.66651740006637,58.655804399983026,58.66109119995963,58.66109119995963,58.91158790001646,x,0.24633489991538227,None,58.91164389997721,58.91781879996415,59.099747900036164,58.66109119995963,,,,,,,,MW_en,001,2025-03-23_17h02.58.611,MainFlow,2024.2.4,144.02311295150616,2025-03-23 17h03.17.549628 +0700,
2,1,1,5,letter/letten121.png,letter/lettth101.png,35,35,0,z,0.051782900001853704,None,0,35,35,35,59.11525769997388,,,,,,,59.11525769997388,60.099736600066535,60.105423900065944,60.105423900065944,60.16261940007098,z,0.051782900001853704,None,60.16278999997303,60.16775240004063,60.34867159998976,60.105423900065944,,,,,,,,MW_en,001,2025-03-23_17h02.58.611,MainFlow,2024.2.4,144.02311295150616,2025-03-23 17h03.17.549628 +0700,
2,2,2,3,letter/lettkh091.png,letter/letten071.png,36,36,0,x,0.7499252000125125,None,0,36,36,36,60.36559950001538,,,,,,,60.36559950001538,61.348892500041984,61.355021100025624,61.355021100025624,62.10706349997781,x,0.7499252000125125,None,62.10725880006794,62.112330300034955,62.29322430002503,61.355021100025624,,,,,,,,MW_en,001,2025-03-23_17h02.58.611,MainFlow,2024.2.4,144.02311295150616,2025-03-23 17h03.17.549628 +0700,
2,2,1,6,letter/letten061.png,letter/lettkh155.png,37,37,0,z,0.26810220000334084,None,0,37,37,37,62.30915590003133,,,,,,,62.30915590003133,63.293793000048026,63.29897320002783,63.29897320002783,63.571212799986824,z,0.26810220000334084,None,63.57135169999674,63.57680709997658,63.75860840000678,63.29897320002783,,,,,,,,MW_en,001,2025-03-23_17h02.58.611,MainFlow,2024.2.4,144.02311295150616,2025-03-23 17h03.17.549628 +0700,
2,1,1,4,letter/letten101.png,letter/lettth011.png,38,38,0,z,0.004668099922128022,None,0,38,38,38,63.78364030004013,,,,,,,63.78364030004013,64.7717963999603,64.7781013000058,64.7781013000058,64.78712220001034,z,0.004668099922128022,None,64.78733009996358,64.7921442000661,64.97293060005177,,,,,,,,,MW_en,001,2025-03-23_17h02.58.611,MainFlow,2024.2.4,144.02311295150616,2025-03-23 17h03.17.549628 +0700,
2,3,2,4,letter/lettgr063.png,letter/letten062.png,39,39,0,x,0.25367739994544536,None,0,39,39,39,64.98490929999389,,,,,,,64.98490929999389,65.97378050000407,65.97924530005548,65.97924530005548,66.23755119997077,x,0.25367739994544536,None,66.23770239995793,66.24300550005864,66.42421640001703,65.97924530005548,,,,,,,,MW_en,001,2025-03-23_17h02.58.611,MainFlow,2024.2.4,144.02311295150616,2025-03-23 17h03.17.549628 +0700,
2,3,1,2,letter/letten061.png,letter/lettgr061.png,40,40,0,z,0.21072949992958456,None,0,40,40,40,66.43736590002663,,,,,,,66.43736590002663,67.42498270003125,67.43038539995905,67.43038539995905,67.64662260003388,z,0.21072949992958456,None,67.64674860006198,67.65237080003135,67.83412660006434,67.43038539995905,,,,,,,,MW_en,001,2025-03-23_17h02.58.611,MainFlow,2024.2.4,144.02311295150616,2025-03-23 17h03.17.549628 +0700,
2,2,2,7,letter/lettkh083.png,letter/letten112.png,41,41,0,x,0.23728739994112402,None,0,41,41,41,67.85595770005602,,,,,,,67.85595770005602,68.84114529995713,68.84692140005063,68.84692140005063,69.090600800002,x,0.23728739994112402,None,69.09072700003162,69.09650380001403,69.27781950007193,68.84692140005063,,,,,,,,MW_en,001,2025-03-23_17h02.58.611,MainFlow,2024.2.4,144.02311295150616,2025-03-23 17h03.17.549628 +0700,
2,1,2,2,letter/lettth142.png,letter/letten181.png,42,42,0,z,0.2277223999844864,None,0,42,42,42,69.28974460007157,,,,,,,69.28974460007157,70.27753399999347,70.28372369997669,70.28372369997669,70.51420600002166,z,0.2277223999844864,None,70.51431660004891,70.51982140005566,70.70120949996635,70.28372369997669,,,,,,,,MW_en,001,2025-03-23_17h02.58.611,MainFlow,2024.2.4,144.02311295150616,2025-03-23 17h03.17.549628 +0700,
2,2,1,7,letter/letten112.png,letter/lettkh083.png,43,43,0,z,0.152678000042215,None,0,43,43,43,70.71692899998743,,,,,,,70.71692899998743,71.70125459996052,71.70721090002917,71.70721090002917,71.8625426000217,z,0.152678000042215,None,71.8627510999795,71.86772270000074,72.04802330001257,71.70721090002917,,,,,,,,MW_en,001,2025-03-23_17h02.58.611,MainFlow,2024.2.4,144.02311295150616,2025-03-23 17h03.17.549628 +0700,
2,2,2,3,letter/lettkh091.png,letter/letten071.png,44,44,0,x,0.8122511999681592,None,0,44,44,44,72.05968279996887,,,,,,,72.05968279996887,73.04893709998578,73.05421710002702,73.05421710002702,73.86828910000622,x,0.8122511999681592,None,73.86845079995692,73.87344360002317,74.05505630001426,73.05421710002702,,,,,,,,MW_en,001,2025-03-23_17h02.58.611,MainFlow,2024.2.4,144.02311295150616,2025-03-23 17h03.17.549628 +0700,
2,2,2,5,letter/lettkh157.png,letter/letten051.png,45,45,0,x,1.7214475000509992,None,0,45,45,45,74.07083129999228,,,,,,,74.07083129999228,75.0550359999761,75.06070510006975,75.06070510006975,76.78428580006585,x,1.7214475000509992,None,76.784440599964,76.78962920000777,76.97034890006762,75.06070510006975,,,,,,,,MW_en,001,2025-03-23_17h02.58.611,MainFlow,2024.2.4,144.02311295150616,2025-03-23 17h03.17.549628 +0700,
2,1,2,3,letter/lettth152.png,letter/letten142.png,46,46,0,x,1.8133710999973118,None,0,46,46,46,76.97728640004061,,,,,,,76.97728640004061,77.96421600005124,77.97680299996864,77.97680299996864,79.79731569997966,x,1.8133710999973118,None,79.79746709996834,79.80284260003828,79.98464140004944,77.96982590004336,,,,,,,,MW_en,001,2025-03-23_17h02.58.611,MainFlow,2024.2.4,144.02311295150616,2025-03-23 17h03.17.549628 +0700,
2,2,2,2,letter/lettkh013.png,letter/letten121.png,47,47,0,x,0.11245470005087554,None,0,47,47,47,80.00827860005666,,,,,,,80.00827860005666,80.99827400001232,81.00403219996952,81.00403219996952,81.12252480001189,x,0.11245470005087554,None,81.12258550000843,81.1288263000315,81.31080940004904,81.00403219996952,,,,,,,,MW_en,001,2025-03-23_17h02.58.611,MainFlow,2024.2.4,144.02311295150616,2025-03-23 17h03.17.549628 +0700,
2,1,2,6,letter/lettth132.png,letter/letten091.png,48,48,0,x,1.7375575999030843,None,0,48,48,48,81.32659419998527,,,,,,,81.32659419998527,82.31029399996623,82.31620490003843,82.31620490003843,84.06073530006688,x,1.7375575999030843,None,84.06088800006546,84.06590270006564,84.24738149996847,82.31620490003843,,,,,,,,MW_en,001,2025-03-23_17h02.58.611,MainFlow,2024.2.4,144.02311295150616,2025-03-23 17h03.17.549628 +0700,
2,1,2,1,letter/lettth022.png,letter/letten041.png,49,49,0,x,0.2847147999564186,None,0,49,49,49,84.25996389996726,,,,,,,84.25996389996726,85.24681949999649,85.2530112999957,85.2530112999957,85.53911490004975,x,0.2847147999564186,None,85.53923330001999,85.54472860007081,85.72657040006015,85.2530112999957,,,,,,,,MW_en,001,2025-03-23_17h02.58.611,MainFlow,2024.2.4,144.02311295150616,2025-03-23 17h03.17.549628 +0700,
2,1,1,3,letter/letten142.png,letter/lettth152.png,50,50,0,z,0.23188939993269742,None,0,50,50,50,85.74475179996807,,,,,,,85.74475179996807,86.73331300006248,86.73900199995842,86.73900199995842,86.97713819995988,z,0.23188939993269742,None,86.97734680003487,86.98204510007054,87.163481399999,86.73900199995842,,,,,,,,MW_en,001,2025-03-23_17h02.58.611,MainFlow,2024.2.4,144.02311295150616,2025-03-23 17h03.17.549628 +0700,
2,1,2,8,letter/lettth022.png,letter/letten131.png,51,51,0,x,0.06193700002040714,None,0,51,51,51,87.17752200004179,,,,,,,87.17752200004179,88.16417880007066,88.16954589996021,88.16954589996021,88.23318500001915,x,0.06193700002040714,None,88.23330820002593,88.23877080006059,88.41992040001787,88.16954589996021,,,,,,,,MW_en,001,2025-03-23_17h02.58.611,MainFlow,2024.2.4,144.02311295150616,2025-03-23 17h03.17.549628 +0700,
2,2,1,2,letter/letten121.png,letter/lettkh013.png,52,52,0,z,0.23028500005602837,None,0,52,52,52,88.43148689996451,,,,,,,88.43148689996451,89.41968519997317,89.42584679997526,89.42584679997526,89.66341290005948,z,0.23028500005602837,None,89.6635650000535,89.66891730006319,89.85025480005424,89.42584679997526,,,,,,,,MW_en,001,2025-03-23_17h02.58.611,MainFlow,2024.2.4,144.02311295150616,2025-03-23 17h03.17.549628 +0700,
2,3,1,2,letter/letten061.png,letter/lettgr061.png,53,53,0,z,0.2437338000163436,None,0,53,53,53,89.8603821999859,,,,,,,89.8603821999859,90.85047289996874,90.85623749997467,90.85623749997467,91.107246199972,z,0.2437338000163436,None,91.10738120006863,91.11303949996363,91.29437779996078,90.85623749997467,,,,,,,,MW_en,001,2025-03-23_17h02.58.611,MainFlow,2024.2.4,144.02311295150616,2025-03-23 17h03.17.549628 +0700,
2,2,2,1,letter/lettkh159.png,letter/letten153.png,54,54,0,x,0.20876920002046973,None,0,54,54,54,91.31527879997157,,,,,,,91.31527879997157,92.30119460006244,92.3073898999719,92.3073898999719,92.52352359995712,x,0.20876920002046973,None,92.52363379998133,92.52955980005208,92.71119120006915,92.3073898999719,,,,,,,,MW_en,001,2025-03-23_17h02.58.611,MainFlow,2024.2.4,144.02311295150616,2025-03-23 17h03.17.549628 +0700,
2,1,1,4,letter/letten101.png,letter/lettth011.png,55,55,0,z,0.230313399923034,None,0,55,55,55,92.72425790003035,,,,,,,92.72425790003035,93.71193200000562,93.71688710001763,93.71688710001763,93.9540197000606,z,0.230313399923034,None,93.95413940004073,93.95973870006856,94.14110010000877,93.71688710001763,,,,,,,,MW_en,001,2025-03-23_17h02.58.611,MainFlow,2024.2.4,144.02311295150616,2025-03-23 17h03.17.549628 +0700,
2,3,1,8,letter/letten152.png,letter/lettgr152.png,56,56,0,z,0.273063899949193,None,0,56,56,56,94.17860460001975,,,,,,,94.17860460001975,95.15453850000631,95.16117660002783,95.16117660002783,95.4395322999917,z,0.273063899949193,None,95.43961989996023,95.4455538999755,95.62685730005614,,,,,,,,,MW_en,001,2025-03-23_17h02.58.611,MainFlow,2024.2.4,144.02311295150616,2025-03-23 17h03.17.549628 +0700,
2,3,2,1,letter/lettgr021.png,letter/letten021.png,57,57,0,x,0.2513590999878943,None,0,57,57,57,95.66376350005157,,,,,,,95.66376350005157,96.640675200033,96.64694300002884,96.64694300002884,96.90483979997225,x,0.2513590999878943,None,96.90496920002624,96.9105595999863,97.09190989995841,,,,,,,,,MW_en,001,2025-03-23_17h02.58.611,MainFlow,2024.2.4,144.02311295150616,2025-03-23 17h03.17.549628 +0700,
2,1,2,7,letter/lettth132.png,letter/letten062.png,58,58,0,x,0.28151499992236495,None,0,58,58,58,97.10420579998754,,,,,,,97.10420579998754,98.09217630000785,98.09787629998755,98.09787629998755,98.38379790005274,x,0.28151499992236495,None,98.38391600002069,98.38944100006483,98.57117969996762,98.09787629998755,,,,,,,,MW_en,001,2025-03-23_17h02.58.611,MainFlow,2024.2.4,144.02311295150616,2025-03-23 17h03.17.549628 +0700,
2,3,2,2,letter/lettgr061.png,letter/letten061.png,59,59,0,x,0.23386240005493164,None,0,59,59,59,98.59128319995943,,,,,,,98.59128319995943,99.57776869996451,99.58370049996302,99.58370049996302,99.82132039999124,x,0.23386240005493164,None,99.82146870007273,99.82675640005618,100.00844620005228,99.58370049996302,,,,,,,,MW_en,001,2025-03-23_17h02.58.611,MainFlow,2024.2.4,144.02311295150616,2025-03-23 17h03.17.549628 +0700,
2,2,2,4,letter/lettkh055.png,letter/letten071.png,60,60,0,x,0.0591994000133127,None,0,60,60,60,100.02558480005246,,,,,,,100.02558480005246,101.01500849996228,101.02094189997297,101.02094189997297,101.08449190005194,x,0.0591994000133127,None,101.0846079000039,101.09029870002996,101.27204050007276,101.02094189997297,,,,,,,,MW_en,001,2025-03-23_17h02.58.611,MainFlow,2024.2.4,144.02311295150616,2025-03-23 17h03.17.549628 +0700,
2,1,2,5,letter/lettth101.png,letter/letten121.png,61,61,0,x,0.14303499995730817,None,0,61,61,61,101.30754559999332,,,,,,,101.30754559999332,102.28516560001299,102.29153340007178,102.29153340007178,102.43909270002041,x,0.14303499995730817,None,102.43925479997415,102.44429620006122,102.62544770003296,,,,,,,,,MW_en,001,2025-03-23_17h02.58.611,MainFlow,2024.2.4,144.02311295150616,2025-03-23 17h03.17.549628 +0700,
2,3,1,8,letter/letten152.png,letter/lettgr152.png,62,62,0,z,0.0815510000102222,None,0,62,62,62,102.6374718999723,,,,,,,102.6374718999723,103.62569530005567,103.6316084000282,103.6316084000282,103.71706060005818,z,0.0815510000102222,None,103.71727050002664,103.72190110001247,103.90327010001056,103.6316084000282,,,,,,,,MW_en,001,2025-03-23_17h02.58.611,MainFlow,2024.2.4,144.02311295150616,2025-03-23 17h03.17.549628 +0700,
2,1,2,5,letter/lettth101.png,letter/letten121.png,63,63,0,x,0.21411379997152835,None,0,63,63,63,103.91545069997665,,,,,,,103.91545069997665,104.90382570005022,104.90919490007218,104.90919490007218,105.12542239995673,x,0.21411379997152835,None,105.12553870002739,105.13119540002663,105.31293460004963,104.90919490007218,,,,,,,,MW_en,001,2025-03-23_17h02.58.611,MainFlow,2024.2.4,144.02311295150616,2025-03-23 17h03.17.549628 +0700,
2,3,2,8,letter/lettgr152.png,letter/letten152.png,64,64,0,x,0.22505559993442148,None,0,64,64,64,105.33315710001625,,,,,,,105.33315710001625,106.32030020002276,106.32559430005495,106.32559430005495,106.55677600007039,x,0.22505559993442148,None,106.5569832000183,106.56158990005497,106.74327289999928,106.32559430005495,,,,,,,,MW_en,001,2025-03-23_17h02.58.611,MainFlow,2024.2.4,144.02311295150616,2025-03-23 17h03.17.549628 +0700,
2,2,1,2,letter/letten121.png,letter/lettkh013.png,65,65,0,z,0.24185529991518706,None,0,65,65,65,106.76183970004786,,,,,,,106.76183970004786,107.74974160001148,107.75583060004283,107.75583060004283,108.00042030005716,z,0.24185529991518706,None,108.00058250001166,108.0058065999765,108.1875215000473,107.75583060004283,,,,,,,,MW_en,001,2025-03-23_17h02.58.611,MainFlow,2024.2.4,144.02311295150616,2025-03-23 17h03.17.549628 +0700,
2,3,1,5,letter/letten011.png,letter/lettgr012.png,66,66,0,z,0.22906290006358176,None,0,66,66,66,108.204805699992,,,,,,,108.204805699992,109.19382659997791,109.19984050001949,109.19984050001949,109.43152630003169,z,0.22906290006358176,None,109.43173409998417,109.43677689996548,109.61719650006853,109.19984050001949,,,,,,,,MW_en,001,2025-03-23_17h02.58.611,MainFlow,2024.2.4,144.02311295150616,2025-03-23 17h03.17.549628 +0700,
2,2,1,3,letter/letten071.png,letter/lettkh091.png,67,67,0,z,0.2680083999875933,None,0,67,67,67,109.63058340002317,,,,,,,109.63058340002317,110.61812240001746,110.6233632999938,110.6233632999938,110.89630849997047,z,0.2680083999875933,None,110.8965346000623,110.90173579996917,111.08235479996074,110.6233632999938,,,,,,,,MW_en,001,2025-03-23_17h02.58.611,MainFlow,2024.2.4,144.02311295150616,2025-03-23 17h03.17.549628 +0700,
2,1,1,8,letter/letten131.png,letter/lettth022.png,68,68,0,z,0.08094630006235093,None,0,68,68,68,111.09817180002574,,,,,,,111.09817180002574,112.08327730000019,112.08854460006114,112.08854460006114,112.17318449995946,z,0.08094630006235093,None,112.1733337000478,112.17856649996247,112.35979200003203,112.08854460006114,,,,,,,,MW_en,001,2025-03-23_17h02.58.611,MainFlow,2024.2.4,144.02311295150616,2025-03-23 17h03.17.549628 +0700,
2,3,2,4,letter/lettgr063.png,letter/letten062.png,69,69,0,x,0.22391780000180006,None,0,69,69,69,112.3713141999906,,,,,,,112.3713141999906,113.35991510003805,113.3657446000725,113.3657446000725,113.59568200004287,x,0.22391780000180006,None,113.59577869996428,113.60175200004596,113.78312070004176,113.3657446000725,,,,,,,,MW_en,001,2025-03-23_17h02.58.611,MainFlow,2024.2.4,144.02311295150616,2025-03-23 17h03.17.549628 +0700,
2,1,1,6,letter/letten091.png,letter/lettth132.png,70,70,0,z,0.23388059996068478,None,0,70,70,70,113.79680200002622,,,,,,,113.79680200002622,114.78272550005931,114.78895519999787,114.78895519999787,115.02579210000113,z,0.23388059996068478,None,115.02586030005477,115.03202909999527,115.21282120002434,114.78895519999787,,,,,,,,MW_en,001,2025-03-23_17h02.58.611,MainFlow,2024.2.4,144.02311295150616,2025-03-23 17h03.17.549628 +0700,
2,3,2,3,letter/lettgr063.png,letter/letten061.png,71,71,0,x,0.1847459999844432,None,0,71,71,71,115.21994800004177,,,,,,,115.21994800004177,116.20754620002117,116.21946389996447,116.21946389996447,116.40911859995686,x,0.1847459999844432,None,116.40933299995959,116.4145906000631,116.59564329998102,116.21256510005333,,,,,,,,MW_en,001,2025-03-23_17h02.58.611,MainFlow,2024.2.4,144.02311295150616,2025-03-23 17h03.17.549628 +0700,
2,3,2,6,letter/lettgr066.png,letter/letten061.png,72,72,0,x,0.24231549992691725,None,0,72,72,72,116.63148430001456,,,,,,,116.63148430001456,117.61573139997199,117.6219610000262,117.6219610000262,117.86599740001839,x,0.24231549992691725,None,117.866114799981,117.8717957000481,118.0533975000726,,,,,,,,,MW_en,001,2025-03-23_17h02.58.611,MainFlow,2024.2.4,144.02311295150616,2025-03-23 17h03.17.549628 +0700,
2,3,2,7,letter/lettgr065.png,letter/letten062.png,73,73,0,x,0.10665490000974387,None,0,73,73,73,118.07075000007171,,,,,,,118.07075000007171,119.06102350004949,119.06623960006982,119.06623960006982,119.17939110007137,x,0.10665490000974387,None,119.17960090003908,119.18410000007134,119.36527050007135,119.06623960006982,,,,,,,,MW_en,001,2025-03-23_17h02.58.611,MainFlow,2024.2.4,144.02311295150616,2025-03-23 17h03.17.549628 +0700,
2,2,2,2,letter/lettkh013.png,letter/letten121.png,74,74,0,x,0.028874900075607002,None,0,74,74,74,119.37849500006996,,,,,,,119.37849500006996,120.36549230001401,120.3715773000149,120.3715773000149,120.40730670001358,x,0.028874900075607002,None,120.40742990002036,120.4130350999767,120.59458659996744,120.3715773000149,,,,,,,,MW_en,001,2025-03-23_17h02.58.611,MainFlow,2024.2.4,144.02311295150616,2025-03-23 17h03.17.549628 +0700,
2,3,2,7,letter/lettgr065.png,letter/letten062.png,75,75,0,x,0.24050830001942813,None,0,75,75,75,120.61143050005194,,,,,,,120.61143050005194,121.60150270001031,121.60720069997478,121.60720069997478,121.85236839996651,x,0.24050830001942813,None,121.85260149999522,121.85719560005236,122.03959790000226,121.60720069997478,,,,,,,,MW_en,001,2025-03-23_17h02.58.611,MainFlow,2024.2.4,144.02311295150616,2025-03-23 17h03.17.549628 +0700,
2,2,2,7,letter/lettkh083.png,letter/letten112.png,76,76,0,x,0.10577369993552566,None,0,76,76,76,122.05786249996163,,,,,,,122.05786249996163,123.045890300069,123.05154030001722,123.05154030001722,123.16485080006532,x,0.10577369993552566,None,123.16505429998506,123.16962120006792,123.35056759999134,123.05154030001722,,,,,,,,MW_en,001,2025-03-23_17h02.58.611,MainFlow,2024.2.4,144.02311295150616,2025-03-23 17h03.17.549628 +0700,
2,3,2,8,letter/lettgr152.png,letter/letten152.png,77,77,0,x,0.14356779993977398,None,0,77,77,77,123.36180279997643,,,,,,,123.36180279997643,124.35119059996214,124.35693909996189,124.35693909996189,124.50388720002957,x,0.14356779993977398,None,124.50401649996638,124.50949920003768,124.69121379998978,124.35693909996189,,,,,,,,MW_en,001,2025-03-23_17h02.58.611,MainFlow,2024.2.4,144.02311295150616,2025-03-23 17h03.17.549628 +0700,
2,1,2,4,letter/lettth011.png,letter/letten101.png,78,78,0,x,1.8727759000612423,None,0,78,78,78,124.71451590000652,,,,,,,124.71451590000652,125.69738460006192,125.70354380004574,125.70354380004574,127.57953540002927,x,1.8727759000612423,None,127.5796621000627,127.58523800002877,127.76681020006072,125.70354380004574,,,,,,,,MW_en,001,2025-03-23_17h02.58.611,MainFlow,2024.2.4,144.02311295150616,2025-03-23 17h03.17.549628 +0700,
2,3,2,1,letter/lettgr021.png,letter/letten021.png,79,79,0,x,0.10044660000130534,None,0,79,79,79,127.77940410003066,,,,,,,127.77940410003066,128.767018500017,128.7726982999593,128.7726982999593,128.87840779998805,x,0.10044660000130534,None,128.87856540002394,128.8837452000007,129.06520920002367,128.7726982999593,,,,,,,,MW_en,001,2025-03-23_17h02.58.611,MainFlow,2024.2.4,144.02311295150616,2025-03-23 17h03.17.549628 +0700,
2,3,2,6,letter/lettgr066.png,letter/letten061.png,80,80,0,x,2.157107300008647,None,0,80,80,80,129.0808802000247,,,,,,,129.0808802000247,130.06496560003143,130.07098760001827,130.07098760001827,132.23118060000706,x,2.157107300008647,None,132.23127880005632,132.23708660004195,132.41894900007173,130.07098760001827,,,,,,,,MW_en,001,2025-03-23_17h02.58.611,MainFlow,2024.2.4,144.02311295150616,2025-03-23 17h03.17.549628 +0700,
2,1,2,7,letter/lettth132.png,letter/letten062.png,81,81,0,x,0.24452289997134358,None,0,81,81,81,132.43804220005404,,,,,,,132.43804220005404,133.42561270005535,133.43138249998447,133.43138249998447,133.68271470000036,x,0.24452289997134358,None,133.6828669999959,133.6880591000663,133.86942530004308,133.43138249998447,,,,,,,,MW_en,001,2025-03-23_17h02.58.611,MainFlow,2024.2.4,144.02311295150616,2025-03-23 17h03.17.549628 +0700,
2,2,1,4,letter/letten071.png,letter/lettkh055.png,82,82,0,x,0.49071280006319284,None,0,82,82,82,133.8843149000313,,,,,,,133.8843149000313,134.86953190003987,134.87547910003923,134.87547910003923,135.37036840000656,x,0.49071280006319284,None,135.37055670004338,135.3755358000053,135.55701119999867,134.87547910003923,,,,,,,,MW_en,001,2025-03-23_17h02.58.611,MainFlow,2024.2.4,144.02311295150616,2025-03-23 17h03.17.549628 +0700,
2,1,2,4,letter/lettth011.png,letter/letten101.png,83,83,0,x,1.5877158999210224,None,0,83,83,83,135.56981879996601,,,,,,,135.56981879996601,136.55692280002404,136.56296540005133,136.56296540005133,138.15346669999417,x,1.5877158999210224,None,138.15356460004114,138.15964850003365,138.34129380004015,136.56296540005133,,,,,,,,MW_en,001,2025-03-23_17h02.58.611,MainFlow,2024.2.4,144.02311295150616,2025-03-23 17h03.17.549628 +0700,
2,1,1,7,letter/letten062.png,letter/lettth132.png,84,84,0,z,0.014676599996164441,None,0,84,84,84,138.35894139995798,,,,,,,138.35894139995798,139.347355099977,139.35363200004213,139.35363200004213,139.37506450002547,z,0.014676599996164441,None,139.37512129999232,139.38147400005255,139.56296620005742,139.35363200004213,,,,,,,,MW_en,001,2025-03-23_17h02.58.611,MainFlow,2024.2.4,144.02311295150616,2025-03-23 17h03.17.549628 +0700,
2,1,1,1,letter/letten041.png,letter/lettth022.png,85,85,0,z,0.9565879000583664,None,0,85,85,85,139.57462610001676,,,,,,,139.57462610001676,140.56343770003878,140.56899749999866,140.56899749999866,141.528619299992,z,0.9565879000583664,None,141.52878120006062,141.53390390006825,141.7155783000635,140.56899749999866,,,,,,,,MW_en,001,2025-03-23_17h02.58.611,MainFlow,2024.2.4,144.02311295150616,2025-03-23 17h03.17.549628 +0700,
2,1,1,7,letter/letten062.png,letter/lettth132.png,86,86,0,z,0.0042078000260517,None,0,86,86,86,141.73071809997782,,,,,,,141.73071809997782,142.71531760005746,142.72116039996035,142.72116039996035,142.72951650002506,z,0.0042078000260517,None,142.7296424000524,142.7350852000527,142.91630140005145,142.72116039996035,,,,,,,,MW_en,001,2025-03-23_17h02.58.611,MainFlow,2024.2.4,144.02311295150616,2025-03-23 17h03.17.549628 +0700,
2,3,1,6,letter/letten061.png,letter/lettgr066.png,87,87,0,z,0.7335905999643728,None,0,87,87,87,142.92739059997257,,,,,,,142.92739059997257,143.91721580002923,143.92260389996227,143.92260389996227,144.6593326999573,z,0.7335905999643728,None,144.6594365000492,144.66536810004618,144.84703110007104,143.92260389996227,,,,,,,,MW_en,001,2025-03-23_17h02.58.611,MainFlow,2024.2.4,144.02311295150616,2025-03-23 17h03.17.549628 +0700,
2,1,1,3,letter/letten142.png,letter/lettth152.png,88,88,0,z,0.26288090005982667,None,0,88,88,88,144.86386459995992,,,,,,,144.86386459995992,145.85363120003603,145.85944809997454,145.85944809997454,146.12485320004635,z,0.26288090005982667,None,146.12500330002513,146.13032180001028,146.31193409999833,145.85944809997454,,,,,,,,MW_en,001,2025-03-23_17h02.58.611,MainFlow,2024.2.4,144.02311295150616,2025-03-23 17h03.17.549628 +0700,
2,3,2,5,letter/lettgr012.png,letter/letten011.png,89,89,0,x,0.48613299999851733,None,0,89,89,89,146.3303228999721,,,,,,,146.3303228999721,147.31944350001868,147.32464060001075,147.32464060001075,147.8182264000643,x,0.48613299999851733,None,147.81831340002827,147.82439660001546,148.00581530004274,147.32464060001075,,,,,,,,MW_en,001,2025-03-23_17h02.58.611,MainFlow,2024.2.4,144.02311295150616,2025-03-23 17h03.17.549628 +0700,
2,2,2,8,letter/lettkh035.png,letter/letten051.png,90,90,0,x,0.32699470000807196,None,0,90,90,90,148.0204204999609,,,,,,,148.0204204999609,149.0059184000129,149.01170200004708,149.01170200004708,149.34646540007088,x,0.32699470000807196,None,149.3466563000111,149.35193460003939,149.5328677999787,149.01170200004708,,,,,,,,MW_en,001,2025-03-23_17h02.58.611,MainFlow,2024.2.4,144.02311295150616,2025-03-23 17h03.17.549628 +0700,
2,1,1,8,letter/letten131.png,letter/lettth022.png,91,91,0,z,0.19272120005916804,None,0,91,91,91,149.54456010006834,,,,,,,149.54456010006834,150.5339035000652,150.53923140000552,150.53923140000552,150.73505250003655,z,0.19272120005916804,None,150.7352024000138,150.7404476000229,150.92212350002956,150.53923140000552,,,,,,,,MW_en,001,2025-03-23_17h02.58.611,MainFlow,2024.2.4,144.02311295150616,2025-03-23 17h03.17.549628 +0700,
2,1,2,1,letter/lettth022.png,letter/letten041.png,92,92,0,x,1.016717000049539,None,0,92,92,92,150.93648559995927,,,,,,,150.93648559995927,151.9214415999595,151.92766429996118,151.92766429996118,152.94971229997464,x,1.016717000049539,None,152.9498286000453,152.95529379998334,153.13705779996235,151.92766429996118,,,,,,,,MW_en,001,2025-03-23_17h02.58.611,MainFlow,2024.2.4,144.02311295150616,2025-03-23 17h03.17.549628 +0700,
2,3,1,7,letter/letten062.png,letter/lettgr065.png,93,93,0,z,0.27589259995147586,None,0,93,93,93,153.1561023000395,,,,,,,153.1561023000395,154.14392239996232,154.1495652999729,154.1495652999729,154.4290869999677,z,0.27589259995147586,None,154.4292518000584,154.43429070001002,154.61585639999248,154.1495652999729,,,,,,,,MW_en,001,2025-03-23_17h02.58.611,MainFlow,2024.2.4,144.02311295150616,2025-03-23 17h03.17.549628 +0700,
2,2,1,3,letter/letten071.png,letter/lettkh091.png,94,94,0,z,1.3472024000948295,None,0,94,94,94,154.63152679998893,,,,,,,154.63152679998893,155.61547610000707,155.62145610002335,155.62145610002335,156.9701303000329,z,1.3472024000948295,None,156.97028290003072,156.97539859998506,157.15666980005335,155.62145610002335,,,,,,,,MW_en,001,2025-03-23_17h02.58.611,MainFlow,2024.2.4,144.02311295150616,2025-03-23 17h03.17.549628 +0700,
2,2,2,1,letter/lettkh159.png,letter/letten153.png,95,95,0,x,0.8827464999631047,None,0,95,95,95,157.17100500001106,,,,,,,157.17100500001106,158.1567368999822,158.16262389998883,158.16262389998883,159.05329329997767,x,0.8827464999631047,None,159.05352179997135,159.0583195000654,159.23976719996426,158.16262389998883,,,,,,,,MW_en,001,2025-03-23_17h02.58.611,MainFlow,2024.2.4,144.02311295150616,2025-03-23 17h03.17.549628 +0700,
,,,,,,,,,,,,,,,,,,,,,,,,,,,,,,,,,,,159.23993979999796,159.2457504000049,159.2457504000049,172.7090691999765,space,13.462712700013071,None,MW_en,001,2025-03-23_17h02.58.611,MainFlow,2024.2.4,144.02311295150616,2025-03-23 17h03.17.549628 +0700,
