lang,langpair,sequence,pairid,firstdir,seconddir,thisN,thisTrialN,thisRepN,key_resp.keys,key_resp.rt,key_resp.duration,trials.thisRepN,trials.thisTrialN,trials.thisN,trials.thisIndex,thisRow.t,notes,tutorial.started,tutorial.stopped,key_instruct.keys,key_instruct.rt,key_instruct.duration,image_first.started,letterselect.started,instruct.started,key_resp.started,letterselect.stopped,trials.key_resp.keys,trials.key_resp.rt,trials.key_resp.duration,blanknext.started,instruct_2.started,blanknext.stopped,image_first.stopped,ending.started,text_3.started,ending_key.started,ending.stopped,ending_key.keys,ending_key.rt,ending_key.duration,participant,session,date,expName,psychopyVersion,frameRate,expStart,
,,,,,,,,,,,,,,,,,,0.0028478000313043594,13.421589100034907,space,13.396610800060444,None,,,,,,,,,,,,,,,,,,,,PH_en,001,2025-03-09_20h13.38.376,MainFlow,2024.2.4,143.15449518245208,2025-03-09 20h13.58.961217 +0700,
2,2,1,6,letter/letten061.png,letter/lettkh155.png,0,0,0,z,1.9940478999633342,None,0,0,0,0,13.454286000109278,,,,,,,13.454286000109278,14.430167900049128,14.433912400039844,14.433912400039844,16.4331542000873,z,1.9940478999633342,None,16.435658700065687,16.439558900077827,16.62057500006631,,,,,,,,,PH_en,001,2025-03-09_20h13.38.376,MainFlow,2024.2.4,143.15449518245208,2025-03-09 20h13.58.961217 +0700,
2,1,2,2,letter/lettth142.png,letter/letten181.png,1,1,0,x,0.5216691000387073,None,0,1,1,1,16.62850970006548,,,,,,,16.62850970006548,17.613408900098875,17.62697870004922,17.62697870004922,18.15535610006191,x,0.5216691000387073,None,18.15541970008053,18.161294499994256,18.34252629999537,17.620004400028847,,,,,,,,PH_en,001,2025-03-09_20h13.38.376,MainFlow,2024.2.4,143.15449518245208,2025-03-09 20h13.58.961217 +0700,
2,1,1,2,letter/letten181.png,letter/lettth142.png,2,2,0,z,0.39872460009064525,None,0,2,2,2,18.3498041999992,,,,,,,18.3498041999992,19.33559370005969,19.34922070009634,19.34922070009634,19.752528300043195,z,0.39872460009064525,None,19.752590500051156,19.75901830010116,19.93968589999713,19.34225330001209,,,,,,,,PH_en,001,2025-03-09_20h13.38.376,MainFlow,2024.2.4,143.15449518245208,2025-03-09 20h13.58.961217 +0700,
2,2,1,8,letter/letten051.png,letter/lettkh035.png,3,3,0,z,0.3318146000383422,None,0,3,3,3,19.946550799999386,,,,,,,19.946550799999386,20.933028200059198,20.946323200012557,20.946323200012557,21.279981400002725,z,0.3318146000383422,None,21.280048900051042,21.286244500079192,21.4675798000535,20.93936180009041,,,,,,,,PH_en,001,2025-03-09_20h13.38.376,MainFlow,2024.2.4,143.15449518245208,2025-03-09 20h13.58.961217 +0700,
2,3,2,2,letter/lettgr061.png,letter/letten061.png,4,4,0,x,0.016042199917137623,None,0,4,4,4,21.474676400073804,,,,,,,21.474676400073804,22.46014630002901,22.47130350000225,22.47130350000225,22.492334000067785,x,0.016042199917137623,None,22.492398100090213,22.4986404000083,22.679801700054668,22.463550500106066,,,,,,,,PH_en,001,2025-03-09_20h13.38.376,MainFlow,2024.2.4,143.15449518245208,2025-03-09 20h13.58.961217 +0700,
2,3,1,7,letter/letten062.png,letter/lettgr065.png,5,5,0,x,0.45655250002164394,None,0,5,5,5,22.6867541000247,,,,,,,22.6867541000247,23.67282500001602,23.686474200105295,23.686474200105295,24.14512110000942,x,0.45655250002164394,None,24.145185800036415,24.151567800086923,24.332323600072414,23.6794984000735,,,,,,,,PH_en,001,2025-03-09_20h13.38.376,MainFlow,2024.2.4,143.15449518245208,2025-03-09 20h13.58.961217 +0700,
2,2,1,7,letter/letten112.png,letter/lettkh083.png,6,6,0,z,0.44351140002254397,None,0,6,6,6,24.33945379999932,,,,,,,24.33945379999932,25.325296299997717,25.338919100002386,25.338919100002386,25.784229200100526,z,0.44351140002254397,None,25.784298100043088,25.7905520000495,25.971264600055292,25.33198950008955,,,,,,,,PH_en,001,2025-03-09_20h13.38.376,MainFlow,2024.2.4,143.15449518245208,2025-03-09 20h13.58.961217 +0700,
2,1,1,1,letter/letten041.png,letter/lettth022.png,7,7,0,z,0.26304109999909997,None,0,7,7,7,25.978170600021258,,,,,,,25.978170600021258,26.96112190000713,26.974250300088897,26.974250300088897,27.238938700058497,z,0.26304109999909997,None,27.239000900066458,27.24534520006273,27.426053200033493,26.967773200012743,,,,,,,,PH_en,001,2025-03-09_20h13.38.376,MainFlow,2024.2.4,143.15449518245208,2025-03-09 20h13.58.961217 +0700,
2,3,1,6,letter/letten061.png,letter/lettgr066.png,8,8,0,z,0.6188106000190601,None,0,8,8,8,27.433119100052863,,,,,,,27.433119100052863,28.419109200011007,28.432782900054008,28.432782900054008,29.058546800049953,z,0.6188106000190601,None,29.058607800048776,29.064842400024645,29.245518700103275,28.425808900035918,,,,,,,,PH_en,001,2025-03-09_20h13.38.376,MainFlow,2024.2.4,143.15449518245208,2025-03-09 20h13.58.961217 +0700,
2,2,2,6,letter/lettkh155.png,letter/letten061.png,9,9,0,x,0.299744600080885,None,0,9,9,9,29.253389200079255,,,,,,,29.253389200079255,30.23854720010422,30.252168100094423,30.252168100094423,30.558227300061844,x,0.299744600080885,None,30.55828360002488,30.564702600007877,30.745443899999373,30.245170400012285,,,,,,,,PH_en,001,2025-03-09_20h13.38.376,MainFlow,2024.2.4,143.15449518245208,2025-03-09 20h13.58.961217 +0700,
2,1,2,6,letter/lettth132.png,letter/letten091.png,10,10,0,x,0.2992292999988422,None,0,10,10,10,30.752412800095044,,,,,,,30.752412800095044,31.738420900073834,31.75207980000414,31.75207980000414,32.05826740001794,x,0.2992292999988422,None,32.058330700034276,32.064619500073604,32.24541490001138,31.745168399997056,,,,,,,,PH_en,001,2025-03-09_20h13.38.376,MainFlow,2024.2.4,143.15449518245208,2025-03-09 20h13.58.961217 +0700,
2,2,1,5,letter/letten051.png,letter/lettkh157.png,11,11,0,z,0.30941210000310093,None,0,11,11,11,32.25252229999751,,,,,,,32.25252229999751,33.238530700095,33.25195669999812,33.25195669999812,33.56511130009312,z,0.30941210000310093,None,33.56517459999304,33.57157820009161,33.75225420005154,33.24502630007919,,,,,,,,PH_en,001,2025-03-09_20h13.38.376,MainFlow,2024.2.4,143.15449518245208,2025-03-09 20h13.58.961217 +0700,
2,3,1,3,letter/letten061.png,letter/lettgr063.png,12,12,0,z,0.4083945999154821,None,0,12,12,12,33.75929650000762,,,,,,,33.75929650000762,34.74525250005536,34.7588627000805,34.7588627000805,35.16908800008241,z,0.4083945999154821,None,35.169141600024886,35.17561820009723,35.35631679999642,34.751879000104964,,,,,,,,PH_en,001,2025-03-09_20h13.38.376,MainFlow,2024.2.4,143.15449518245208,2025-03-09 20h13.58.961217 +0700,
2,2,2,8,letter/lettkh035.png,letter/letten051.png,13,13,0,x,0.2279841999989003,None,0,13,13,13,35.36393400002271,,,,,,,35.36393400002271,36.34933640004601,36.3629941000836,36.3629941000836,36.592965300078504,x,0.2279841999989003,None,36.59303109999746,36.59930790006183,36.779913200065494,36.35600320005324,,,,,,,,PH_en,001,2025-03-09_20h13.38.376,MainFlow,2024.2.4,143.15449518245208,2025-03-09 20h13.58.961217 +0700,
2,1,2,3,letter/lettth152.png,letter/letten142.png,14,14,0,x,0.3554158000042662,None,0,14,14,14,36.786930100061,,,,,,,36.786930100061,37.77363040007185,37.78668360004667,37.78668360004667,38.14818340004422,x,0.3554158000042662,None,38.14824290003162,38.15454310004134,38.33520760003012,37.77974700008053,,,,,,,,PH_en,001,2025-03-09_20h13.38.376,MainFlow,2024.2.4,143.15449518245208,2025-03-09 20h13.58.961217 +0700,
2,2,2,6,letter/lettkh155.png,letter/letten061.png,15,15,0,x,0.5090757999569178,None,0,15,15,15,38.34214940003585,,,,,,,38.34214940003585,39.32878370000981,39.34183200006373,39.34183200006373,39.85640300007071,x,0.5090757999569178,None,39.85646700009238,39.862793300068006,40.0434738000622,39.334805399994366,,,,,,,,PH_en,001,2025-03-09_20h13.38.376,MainFlow,2024.2.4,143.15449518245208,2025-03-09 20h13.58.961217 +0700,
2,3,1,1,letter/letten021.png,letter/lettgr021.png,16,16,0,z,0.35062589996960014,None,0,16,16,16,40.050831100088544,,,,,,,40.050831100088544,41.03709430003073,41.0501888000872,41.0501888000872,41.405174900079146,z,0.35062589996960014,None,41.405249800067395,41.41157530003693,41.59229130006861,41.04373820009641,,,,,,,,PH_en,001,2025-03-09_20h13.38.376,MainFlow,2024.2.4,143.15449518245208,2025-03-09 20h13.58.961217 +0700,
2,3,1,3,letter/letten061.png,letter/lettgr063.png,17,17,0,z,0.28225300007034093,None,0,17,17,17,41.59928470000159,,,,,,,41.59928470000159,42.58533170004375,42.598933600005694,42.598933600005694,42.88411199999973,z,0.28225300007034093,None,42.8841747000115,42.890593200107105,43.07123370002955,42.59198030002881,,,,,,,,PH_en,001,2025-03-09_20h13.38.376,MainFlow,2024.2.4,143.15449518245208,2025-03-09 20h13.58.961217 +0700,
2,2,1,1,letter/letten153.png,letter/lettkh159.png,18,18,0,z,0.2330884999828413,None,0,18,18,18,43.07806490000803,,,,,,,43.07806490000803,44.064309400040656,44.07789060007781,44.07789060007781,44.31473260000348,z,0.2330884999828413,None,44.314797500032,44.32126110000536,44.50190860009752,44.0709006000543,,,,,,,,PH_en,001,2025-03-09_20h13.38.376,MainFlow,2024.2.4,143.15449518245208,2025-03-09 20h13.58.961217 +0700,
2,1,1,6,letter/letten091.png,letter/lettth132.png,19,19,0,z,0.47146910009905696,None,0,19,19,19,44.50866570009384,,,,,,,44.50866570009384,45.49496480007656,45.50855090003461,45.50855090003461,45.98126640007831,z,0.47146910009905696,None,45.98132410005201,45.987608100054786,46.168825300061144,45.50159680005163,,,,,,,,PH_en,001,2025-03-09_20h13.38.376,MainFlow,2024.2.4,143.15449518245208,2025-03-09 20h13.58.961217 +0700,
2,3,2,5,letter/lettgr012.png,letter/letten011.png,20,20,0,x,0.06947660003788769,None,0,20,20,20,46.17601749999449,,,,,,,46.17601749999449,47.16194420005195,47.17551980004646,47.17551980004646,47.252183100092225,x,0.06947660003788769,None,47.252254600054584,47.258740100078285,47.43937959999312,47.16856950009242,,,,,,,,PH_en,001,2025-03-09_20h13.38.376,MainFlow,2024.2.4,143.15449518245208,2025-03-09 20h13.58.961217 +0700,
2,1,1,2,letter/letten181.png,letter/lettth142.png,21,21,0,z,0.43464610003866255,None,0,21,21,21,47.446303600096144,,,,,,,47.446303600096144,48.43243110005278,48.446079900022596,48.446079900022596,48.88437710003927,z,0.43464610003866255,None,48.884438700042665,48.890728900092654,49.07143010001164,48.43909590004478,,,,,,,,PH_en,001,2025-03-09_20h13.38.376,MainFlow,2024.2.4,143.15449518245208,2025-03-09 20h13.58.961217 +0700,
2,2,1,5,letter/letten051.png,letter/lettkh157.png,22,22,0,z,0.4068362000398338,None,0,22,22,22,49.0784844000591,,,,,,,49.0784844000591,50.06441980006639,50.07809600001201,50.07809600001201,50.488375000073574,z,0.4068362000398338,None,50.48843740008306,50.494816299993545,50.67549430008512,50.071148900082335,,,,,,,,PH_en,001,2025-03-09_20h13.38.376,MainFlow,2024.2.4,143.15449518245208,2025-03-09 20h13.58.961217 +0700,
2,3,1,4,letter/letten062.png,letter/lettgr063.png,23,23,0,z,0.09788040001876652,None,0,23,23,23,50.68235970009118,,,,,,,50.68235970009118,51.668559000012465,51.68217770010233,51.68217770010233,51.78687410010025,z,0.09788040001876652,None,51.78693550010212,51.793358299997635,51.97406930010766,51.67520240007434,,,,,,,,PH_en,001,2025-03-09_20h13.38.376,MainFlow,2024.2.4,143.15449518245208,2025-03-09 20h13.58.961217 +0700,
2,3,2,3,letter/lettgr063.png,letter/letten061.png,24,24,0,x,0.2645831999834627,None,0,24,24,24,51.98182050010655,,,,,,,51.98182050010655,52.96711020008661,52.980743600055575,52.980743600055575,53.25196940009482,x,0.2645831999834627,None,53.25203480001073,53.258375200093724,53.43899410008453,52.973735100007616,,,,,,,,PH_en,001,2025-03-09_20h13.38.376,MainFlow,2024.2.4,143.15449518245208,2025-03-09 20h13.58.961217 +0700,
2,2,2,5,letter/lettkh157.png,letter/letten051.png,25,25,0,x,0.3188647000351921,None,0,25,25,25,53.4479536000872,,,,,,,53.4479536000872,54.43220200005453,54.44577180000488,54.44577180000488,54.76594539999496,x,0.3188647000351921,None,54.76601080002729,54.77223820006475,54.95308410003781,54.43879550008569,,,,,,,,PH_en,001,2025-03-09_20h13.38.376,MainFlow,2024.2.4,143.15449518245208,2025-03-09 20h13.58.961217 +0700,
2,3,1,5,letter/letten011.png,letter/lettgr012.png,26,26,0,z,0.3355517000891268,None,0,26,26,26,54.9606713000685,,,,,,,54.9606713000685,55.945956100011244,55.95962100010365,55.95962100010365,56.30063030007295,z,0.3355517000891268,None,56.300685700029135,56.30712190002669,56.48792820004746,55.95262770005502,,,,,,,,PH_en,001,2025-03-09_20h13.38.376,MainFlow,2024.2.4,143.15449518245208,2025-03-09 20h13.58.961217 +0700,
2,3,1,1,letter/letten021.png,letter/lettgr021.png,27,27,0,z,0.4353133999975398,None,0,27,27,27,56.49572850007098,,,,,,,56.49572850007098,57.48081560002174,57.494480499997735,57.494480499997735,57.932692200061865,z,0.4353133999975398,None,57.93275490007363,57.93905939999968,58.11975840001833,57.48751710006036,,,,,,,,PH_en,001,2025-03-09_20h13.38.376,MainFlow,2024.2.4,143.15449518245208,2025-03-09 20h13.58.961217 +0700,
2,2,1,8,letter/letten051.png,letter/lettkh035.png,28,28,0,z,0.397788800066337,None,0,28,28,28,58.12666170008015,,,,,,,58.12666170008015,59.11278310010675,59.126458600047044,59.126458600047044,59.52972930006217,z,0.397788800066337,None,59.529782800003886,59.53623890003655,59.716887400019914,59.119484700029716,,,,,,,,PH_en,001,2025-03-09_20h13.38.376,MainFlow,2024.2.4,143.15449518245208,2025-03-09 20h13.58.961217 +0700,
2,3,1,4,letter/letten062.png,letter/lettgr063.png,29,29,0,z,0.37644520006142557,None,0,29,29,29,59.72389100003056,,,,,,,59.72389100003056,60.70996300003026,60.72353790001944,60.72353790001944,61.106010899995454,z,0.37644520006142557,None,61.10607410001103,61.11236540006939,61.29307960008737,60.71660850010812,,,,,,,,PH_en,001,2025-03-09_20h13.38.376,MainFlow,2024.2.4,143.15449518245208,2025-03-09 20h13.58.961217 +0700,
2,1,2,8,letter/lettth022.png,letter/letten131.png,30,30,0,x,0.29460489994380623,None,0,30,30,30,61.300004000077024,,,,,,,61.300004000077024,62.2862274000654,62.29978930007201,62.29978930007201,62.598971700062975,x,0.29460489994380623,None,62.599038100102916,62.60535290010739,62.786080999998376,62.292806600104086,,,,,,,,PH_en,001,2025-03-09_20h13.38.376,MainFlow,2024.2.4,143.15449518245208,2025-03-09 20h13.58.961217 +0700,
2,2,1,1,letter/letten153.png,letter/lettkh159.png,31,31,0,z,0.6961703000124544,None,0,31,31,31,62.79258110001683,,,,,,,62.79258110001683,63.779615200008266,63.792610900010914,63.792610900010914,64.49450990010519,z,0.6961703000124544,None,64.49456510005984,64.5010137000354,64.68234520009719,63.786312000011094,,,,,,,,PH_en,001,2025-03-09_20h13.38.376,MainFlow,2024.2.4,143.15449518245208,2025-03-09 20h13.58.961217 +0700,
2,2,1,4,letter/letten071.png,letter/lettkh055.png,32,32,0,z,0.37486069998703897,None,0,32,32,32,64.69129750004504,,,,,,,64.69129750004504,65.67526500008535,65.68884160008747,65.68884160008747,66.06452720006928,z,0.37486069998703897,None,66.06459330010694,66.07071850006469,66.25147050002124,65.681916700094,,,,,,,,PH_en,001,2025-03-09_20h13.38.376,MainFlow,2024.2.4,143.15449518245208,2025-03-09 20h13.58.961217 +0700,
2,1,1,5,letter/letten121.png,letter/lettth101.png,33,33,0,z,0.4407507999567315,None,0,33,33,33,66.26029430003837,,,,,,,66.26029430003837,67.24449170008302,67.25811100006104,67.25811100006104,67.70323750004172,z,0.4407507999567315,None,67.7032919001067,67.70917540008668,67.89047380001284,67.25115210004151,,,,,,,,PH_en,001,2025-03-09_20h13.38.376,MainFlow,2024.2.4,143.15449518245208,2025-03-09 20h13.58.961217 +0700,
2,2,2,4,letter/lettkh055.png,letter/letten071.png,34,34,0,x,0.41830989997833967,None,0,34,34,34,67.89758560003247,,,,,,,67.89758560003247,68.88344800006598,68.89715480001178,68.89715480001178,69.32077190000564,x,0.41830989997833967,None,69.32082650007214,69.32725380000193,69.50850140000694,68.89019040006679,,,,,,,,PH_en,001,2025-03-09_20h13.38.376,MainFlow,2024.2.4,143.15449518245208,2025-03-09 20h13.58.961217 +0700,
2,1,1,5,letter/letten121.png,letter/lettth101.png,35,35,0,z,0.39851930004078895,None,0,35,35,35,69.51576830004342,,,,,,,69.51576830004342,70.50155780010391,70.51521350000985,70.51521350000985,70.91849820001516,z,0.39851930004078895,None,70.91856080002617,70.92494310007896,71.10558780003339,70.50824150000699,,,,,,,,PH_en,001,2025-03-09_20h13.38.376,MainFlow,2024.2.4,143.15449518245208,2025-03-09 20h13.58.961217 +0700,
2,2,2,3,letter/lettkh091.png,letter/letten071.png,36,36,0,x,0.3663605999900028,None,0,36,36,36,71.11441810010001,,,,,,,71.11441810010001,72.09859770000912,72.11233760009054,72.11233760009054,72.48095500003546,x,0.3663605999900028,None,72.48102980002295,72.48719120002352,72.66788350010756,72.10530960001051,,,,,,,,PH_en,001,2025-03-09_20h13.38.376,MainFlow,2024.2.4,143.15449518245208,2025-03-09 20h13.58.961217 +0700,
2,2,1,6,letter/letten061.png,letter/lettkh155.png,37,37,0,z,0.4698064000112936,None,0,37,37,37,72.67511670000385,,,,,,,72.67511670000385,73.66087480005808,73.67455390002578,73.67455390002578,74.14787650003564,z,0.4698064000112936,None,74.147944400087,74.1535078000743,74.33485950005706,73.66745670000091,,,,,,,,PH_en,001,2025-03-09_20h13.38.376,MainFlow,2024.2.4,143.15449518245208,2025-03-09 20h13.58.961217 +0700,
2,1,1,4,letter/letten101.png,letter/lettth011.png,38,38,0,z,0.5215810000663623,None,0,38,38,38,74.34213330002967,,,,,,,74.34213330002967,75.32777380000334,75.34141200000886,75.34141200000886,75.86933630006388,z,0.5215810000663623,None,75.86939130001701,75.87576680001803,76.0569805999985,75.33443700009957,,,,,,,,PH_en,001,2025-03-09_20h13.38.376,MainFlow,2024.2.4,143.15449518245208,2025-03-09 20h13.58.961217 +0700,
2,3,2,4,letter/lettgr063.png,letter/letten062.png,39,39,0,x,0.234582900069654,None,0,39,39,39,76.06383240001742,,,,,,,76.06383240001742,77.05006030004006,77.06365970009938,77.06365970009938,77.29995890008286,x,0.234582900069654,None,77.30001560004894,77.30642320006154,77.48724670009688,77.0566934000235,,,,,,,,PH_en,001,2025-03-09_20h13.38.376,MainFlow,2024.2.4,143.15449518245208,2025-03-09 20h13.58.961217 +0700,
2,3,1,2,letter/letten061.png,letter/lettgr061.png,40,40,0,z,0.23462130001280457,None,0,40,40,40,77.49430250003934,,,,,,,77.49430250003934,78.48023420001846,78.49377749999985,78.49377749999985,78.73061270010658,z,0.23462130001280457,None,78.73068880010396,78.73709589999635,78.91788300010376,78.48677770001814,,,,,,,,PH_en,001,2025-03-09_20h13.38.376,MainFlow,2024.2.4,143.15449518245208,2025-03-09 20h13.58.961217 +0700,
2,2,2,7,letter/lettkh083.png,letter/letten112.png,41,41,0,x,0.354045300045982,None,0,41,41,41,78.92500700009987,,,,,,,78.92500700009987,79.91087590006646,79.92442779999692,79.92442779999692,80.27953580010217,x,0.354045300045982,None,80.2796009000158,80.28581860009581,80.46656240010634,79.91742589999922,,,,,,,,PH_en,001,2025-03-09_20h13.38.376,MainFlow,2024.2.4,143.15449518245208,2025-03-09 20h13.58.961217 +0700,
2,1,2,2,letter/lettth142.png,letter/letten181.png,42,42,0,x,0.4103787000058219,None,0,42,42,42,80.47347580001224,,,,,,,80.47347580001224,81.45950770005584,81.47318369999994,81.47318369999994,81.89040160004515,x,0.4103787000058219,None,81.89046500006225,81.89687820000108,82.07761640008539,81.46619500010274,,,,,,,,PH_en,001,2025-03-09_20h13.38.376,MainFlow,2024.2.4,143.15449518245208,2025-03-09 20h13.58.961217 +0700,
2,2,1,7,letter/letten112.png,letter/lettkh083.png,43,43,0,z,0.3615779000101611,None,0,43,43,43,82.08447970007546,,,,,,,82.08447970007546,83.06766860000789,83.08124230010435,83.08124230010435,83.44962660002057,z,0.3615779000101611,None,83.44968830002472,83.45612590003293,83.63691700005438,83.07428110006731,,,,,,,,PH_en,001,2025-03-09_20h13.38.376,MainFlow,2024.2.4,143.15449518245208,2025-03-09 20h13.58.961217 +0700,
2,2,2,3,letter/lettkh091.png,letter/letten071.png,44,44,0,x,0.3244178999448195,None,0,44,44,44,83.64428350003436,,,,,,,83.64428350003436,84.63010060007218,84.64348270010669,84.64348270010669,84.97454930003732,x,0.3244178999448195,None,84.97461190004833,84.98098850005772,85.1617058000993,84.63649659999646,,,,,,,,PH_en,001,2025-03-09_20h13.38.376,MainFlow,2024.2.4,143.15449518245208,2025-03-09 20h13.58.961217 +0700,
2,2,2,5,letter/lettkh157.png,letter/letten051.png,45,45,0,x,0.25921950000338256,None,0,45,45,45,85.168811700074,,,,,,,85.168811700074,86.15467410010751,86.16833940008655,86.16833940008655,86.43267100001685,x,0.25921950000338256,None,86.43273430003319,86.43900510005187,86.62038030009717,86.16142330004368,,,,,,,,PH_en,001,2025-03-09_20h13.38.376,MainFlow,2024.2.4,143.15449518245208,2025-03-09 20h13.58.961217 +0700,
2,1,2,3,letter/lettth152.png,letter/letten142.png,46,46,0,x,0.3311879000393674,None,0,46,46,46,86.62823190004565,,,,,,,86.62823190004565,87.6133431000635,87.62694740004372,87.62694740004372,87.96064010006376,x,0.3311879000393674,None,87.96071650006343,87.96688480000012,88.1475242000306,87.61991650005803,,,,,,,,PH_en,001,2025-03-09_20h13.38.376,MainFlow,2024.2.4,143.15449518245208,2025-03-09 20h13.58.961217 +0700,
2,2,2,2,letter/lettkh013.png,letter/letten121.png,47,47,0,x,0.6681112999795005,None,0,47,47,47,88.15503290004563,,,,,,,88.15503290004563,89.14125900005456,89.15426410001237,89.15426410001237,89.82563680002932,x,0.6681112999795005,None,89.82569270010572,89.8322142000543,90.01291030005086,89.14725460007321,,,,,,,,PH_en,001,2025-03-09_20h13.38.376,MainFlow,2024.2.4,143.15449518245208,2025-03-09 20h13.58.961217 +0700,
2,1,2,6,letter/lettth132.png,letter/letten091.png,48,48,0,x,0.30232619994785637,None,0,48,48,48,90.01988170004915,,,,,,,90.01988170004915,91.00591980002355,91.01958760002162,91.01958760002162,91.32569409999996,x,0.30232619994785637,None,91.32575630000792,91.33208540000487,91.51283120003063,91.01254990010057,,,,,,,,PH_en,001,2025-03-09_20h13.38.376,MainFlow,2024.2.4,143.15449518245208,2025-03-09 20h13.58.961217 +0700,
2,1,2,1,letter/lettth022.png,letter/letten041.png,49,49,0,x,0.6286701000062749,None,0,49,49,49,91.51994590007234,,,,,,,91.51994590007234,92.50580939999782,92.5194671000354,92.5194671000354,93.15243670006748,x,0.6286701000062749,None,93.15251990000252,93.1584220000077,93.33918850007467,92.51247469999362,,,,,,,,PH_en,001,2025-03-09_20h13.38.376,MainFlow,2024.2.4,143.15449518245208,2025-03-09 20h13.58.961217 +0700,
2,1,1,3,letter/letten142.png,letter/lettth152.png,50,50,0,z,0.35092070000246167,None,0,50,50,50,93.3460964000551,,,,,,,93.3460964000551,94.3323156000115,94.34589420002885,94.34589420002885,94.7003093000967,z,0.35092070000246167,None,94.70037070009857,94.70677220006473,94.88745160005055,94.33886800007895,,,,,,,,PH_en,001,2025-03-09_20h13.38.376,MainFlow,2024.2.4,143.15449518245208,2025-03-09 20h13.58.961217 +0700,
2,1,2,8,letter/lettth022.png,letter/letten131.png,51,51,0,x,0.5075376000022516,None,0,51,51,51,94.89437140000518,,,,,,,94.89437140000518,95.8810110000195,95.89411710004788,95.89411710004788,96.40861330006737,x,0.5075376000022516,None,96.40866950002965,96.4150709999958,96.5957192000933,95.88714690005872,,,,,,,,PH_en,001,2025-03-09_20h13.38.376,MainFlow,2024.2.4,143.15449518245208,2025-03-09 20h13.58.961217 +0700,
2,2,1,2,letter/letten121.png,letter/lettkh013.png,52,52,0,z,0.6945853000506759,None,0,52,52,52,96.60238590009976,,,,,,,96.60238590009976,97.5893311999971,97.60240510001313,97.60240510001313,98.29797559999861,z,0.6945853000506759,None,98.29804150003474,98.30373530008364,98.48504570010118,97.59544020006433,,,,,,,,PH_en,001,2025-03-09_20h13.38.376,MainFlow,2024.2.4,143.15449518245208,2025-03-09 20h13.58.961217 +0700,
2,3,1,2,letter/letten061.png,letter/lettgr061.png,53,53,0,z,0.4156754999421537,None,0,53,53,53,98.49202030000743,,,,,,,98.49202030000743,99.47803670004942,99.49165550002363,99.49165550002363,99.90898770000786,z,0.4156754999421537,None,99.90905240003485,99.91483220004011,100.09619470010512,99.48468220001087,,,,,,,,PH_en,001,2025-03-09_20h13.38.376,MainFlow,2024.2.4,143.15449518245208,2025-03-09 20h13.58.961217 +0700,
2,2,2,1,letter/lettkh159.png,letter/letten153.png,54,54,0,x,0.35416399990208447,None,0,54,54,54,100.10326760006137,,,,,,,100.10326760006137,101.08911510009784,101.1028119000839,101.1028119000839,101.46409090002999,x,0.35416399990208447,None,101.46414870000444,101.47059840010479,101.65131200000178,101.09583010000642,,,,,,,,PH_en,001,2025-03-09_20h13.38.376,MainFlow,2024.2.4,143.15449518245208,2025-03-09 20h13.58.961217 +0700,
2,1,1,4,letter/letten101.png,letter/lettth011.png,55,55,0,z,0.2540885000489652,None,0,55,55,55,101.65810680005234,,,,,,,101.65810680005234,102.64436999999452,102.65799690003041,102.65799690003041,102.91571040009148,z,0.2540885000489652,None,102.915766500053,102.92220040003303,103.10292080009822,102.65099690004718,,,,,,,,PH_en,001,2025-03-09_20h13.38.376,MainFlow,2024.2.4,143.15449518245208,2025-03-09 20h13.58.961217 +0700,
2,3,1,8,letter/letten152.png,letter/lettgr152.png,56,56,0,z,0.2570103999460116,None,0,56,56,56,103.1099507000763,,,,,,,103.1099507000763,104.09603050001897,104.10959210002329,104.10959210002329,104.37380330008455,z,0.2570103999460116,None,104.37388110009488,104.38022470008582,104.56103880004957,104.10261570010334,,,,,,,,PH_en,001,2025-03-09_20h13.38.376,MainFlow,2024.2.4,143.15449518245208,2025-03-09 20h13.58.961217 +0700,
2,3,2,1,letter/lettgr021.png,letter/letten021.png,57,57,0,x,0.36410349991638213,None,0,57,57,57,104.56848840008024,,,,,,,104.56848840008024,105.5539843000006,105.56763360009063,105.56763360009063,105.93657410005108,x,0.36410349991638213,None,105.93663590005599,105.94289890001528,106.12365200009663,105.56062220002059,,,,,,,,PH_en,001,2025-03-09_20h13.38.376,MainFlow,2024.2.4,143.15449518245208,2025-03-09 20h13.58.961217 +0700,
2,1,2,7,letter/lettth132.png,letter/letten062.png,58,58,0,x,0.6209550000494346,None,0,58,58,58,106.13065980002284,,,,,,,106.13065980002284,107.11667570006102,107.1303836000152,107.1303836000152,107.75604890007526,x,0.6209550000494346,None,107.75610490003601,107.76190570008475,107.94308500003535,107.12333890004084,,,,,,,,PH_en,001,2025-03-09_20h13.38.376,MainFlow,2024.2.4,143.15449518245208,2025-03-09 20h13.58.961217 +0700,
2,3,2,2,letter/lettgr061.png,letter/letten061.png,59,59,0,x,0.34186140005476773,None,0,59,59,59,107.94993660005275,,,,,,,107.94993660005275,108.93619210005272,108.9498348000925,108.9498348000925,109.29725540010259,x,0.34186140005476773,None,109.29731650010217,109.30368920008186,109.48433340003248,108.94283920002636,,,,,,,,PH_en,001,2025-03-09_20h13.38.376,MainFlow,2024.2.4,143.15449518245208,2025-03-09 20h13.58.961217 +0700,
2,2,2,4,letter/lettkh055.png,letter/letten071.png,60,60,0,x,0.349538299953565,None,0,60,60,60,109.49127270001918,,,,,,,109.49127270001918,110.47739210003056,110.4910173000535,110.4910173000535,110.84599180007353,x,0.349538299953565,None,110.84605490008835,110.85243980004452,111.03315690008458,110.48403799999505,,,,,,,,PH_en,001,2025-03-09_20h13.38.376,MainFlow,2024.2.4,143.15449518245208,2025-03-09 20h13.58.961217 +0700,
2,1,2,5,letter/lettth101.png,letter/letten121.png,61,61,0,x,0.4361405000090599,None,0,61,61,61,111.04234270006418,,,,,,,111.04234270006418,112.02619540004525,112.03980990010314,112.03980990010314,112.47808600007556,x,0.4361405000090599,None,112.47814610006753,112.48441430006642,112.66519060009159,112.03286460007075,,,,,,,,PH_en,001,2025-03-09_20h13.38.376,MainFlow,2024.2.4,143.15449518245208,2025-03-09 20h13.58.961217 +0700,
2,3,1,8,letter/letten152.png,letter/lettgr152.png,62,62,0,z,0.45971570000983775,None,0,62,62,62,112.67198310000822,,,,,,,112.67198310000822,113.65825960005168,113.67183510004543,113.67183510004543,114.13744910003152,z,0.45971570000983775,None,114.13750740000978,114.1438821000047,114.324636900099,113.66484720003791,,,,,,,,PH_en,001,2025-03-09_20h13.38.376,MainFlow,2024.2.4,143.15449518245208,2025-03-09 20h13.58.961217 +0700,
2,1,2,5,letter/lettth101.png,letter/letten121.png,63,63,0,x,0.5491151000605896,None,0,63,63,63,114.33169980009552,,,,,,,114.33169980009552,115.31766640010756,115.33130640001036,115.33130640001036,115.88754310004879,x,0.5491151000605896,None,115.88760510005523,115.89405320002697,116.07476770004723,115.32433550001588,,,,,,,,PH_en,001,2025-03-09_20h13.38.376,MainFlow,2024.2.4,143.15449518245208,2025-03-09 20h13.58.961217 +0700,
2,3,2,8,letter/lettgr152.png,letter/letten152.png,64,64,0,x,1.469124999945052,None,0,64,64,64,116.0835241000168,,,,,,,116.0835241000168,117.06771329999901,117.0814054000657,117.0814054000657,118.55394240003079,x,1.469124999945052,None,118.55400340002961,118.56067130004521,118.7411323999986,117.07446340005845,,,,,,,,PH_en,001,2025-03-09_20h13.38.376,MainFlow,2024.2.4,143.15449518245208,2025-03-09 20h13.58.961217 +0700,
2,2,1,2,letter/letten121.png,letter/lettkh013.png,65,65,0,z,0.282632099930197,None,0,65,65,65,118.74849160003942,,,,,,,118.74849160003942,119.73409570008516,119.74773510009982,119.74773510009982,120.03293159999885,z,0.282632099930197,None,120.03298680006992,120.0393637000816,120.22065930010285,119.74075250001624,,,,,,,,PH_en,001,2025-03-09_20h13.38.376,MainFlow,2024.2.4,143.15449518245208,2025-03-09 20h13.58.961217 +0700,
2,3,1,5,letter/letten011.png,letter/lettgr012.png,66,66,0,z,0.4027890000725165,None,0,66,66,66,120.22791770007461,,,,,,,120.22791770007461,121.2136363000609,121.22733840008732,121.22733840008732,121.63092970009893,z,0.4027890000725165,None,121.63100600009784,121.63670130004175,121.81779870006721,121.22032770002261,,,,,,,,PH_en,001,2025-03-09_20h13.38.376,MainFlow,2024.2.4,143.15449518245208,2025-03-09 20h13.58.961217 +0700,
2,2,1,3,letter/letten071.png,letter/lettkh091.png,67,67,0,z,0.21130600001197308,None,0,67,67,67,121.82472010003403,,,,,,,121.82472010003403,122.81072760000825,122.82436820003204,122.82436820003204,123.0402682001004,z,0.21130600001197308,None,123.04033059999347,123.04672119999304,123.22744430007879,122.81738110003062,,,,,,,,PH_en,001,2025-03-09_20h13.38.376,MainFlow,2024.2.4,143.15449518245208,2025-03-09 20h13.58.961217 +0700,
2,1,1,8,letter/letten131.png,letter/lettth022.png,68,68,0,z,0.3116403999738395,None,0,68,68,68,123.23475810000673,,,,,,,123.23475810000673,124.22044810000807,124.23407170001883,124.23407170001883,124.54728830000386,z,0.3116403999738395,None,124.5473508000141,124.55362190003507,124.73429050005507,124.22706890001427,,,,,,,,PH_en,001,2025-03-09_20h13.38.376,MainFlow,2024.2.4,143.15449518245208,2025-03-09 20h13.58.961217 +0700,
2,3,2,4,letter/lettgr063.png,letter/letten062.png,69,69,0,x,0.2543155999155715,None,0,69,69,69,124.74113199999556,,,,,,,124.74113199999556,125.72729460010305,125.74095860007219,125.74095860007219,125.99836090009194,x,0.2543155999155715,None,125.99842740001623,126.00468900008127,126.18542370002251,125.73395990009885,,,,,,,,PH_en,001,2025-03-09_20h13.38.376,MainFlow,2024.2.4,143.15449518245208,2025-03-09 20h13.58.961217 +0700,
2,1,1,6,letter/letten091.png,letter/lettth132.png,70,70,0,z,0.3479360999772325,None,0,70,70,70,126.19229640008416,,,,,,,126.19229640008416,127.17833720007911,127.19199930003379,127.19199930003379,127.54692150000483,z,0.3479360999772325,None,127.5469834000105,127.55342940008268,127.73409909999464,127.18502080009785,,,,,,,,PH_en,001,2025-03-09_20h13.38.376,MainFlow,2024.2.4,143.15449518245208,2025-03-09 20h13.58.961217 +0700,
2,3,2,3,letter/lettgr063.png,letter/letten061.png,71,71,0,x,0.22954910004045814,None,0,71,71,71,127.74117630010005,,,,,,,127.74117630010005,128.7272326000966,128.74085770000238,128.74085770000238,128.97748700005468,x,0.22954910004045814,None,128.97755230008624,128.98410060000606,129.16470850002952,128.7338824000908,,,,,,,,PH_en,001,2025-03-09_20h13.38.376,MainFlow,2024.2.4,143.15449518245208,2025-03-09 20h13.58.961217 +0700,
2,3,2,6,letter/lettgr066.png,letter/letten061.png,72,72,0,x,0.2732006999431178,None,0,72,72,72,129.17360840004403,,,,,,,129.17360840004403,130.15780480008107,130.1714515000349,130.1714515000349,130.44966929999646,x,0.2732006999431178,None,130.44973300001584,130.45609680004418,130.636801600107,130.164425300085,,,,,,,,PH_en,001,2025-03-09_20h13.38.376,MainFlow,2024.2.4,143.15449518245208,2025-03-09 20h13.58.961217 +0700,
2,3,2,7,letter/lettgr065.png,letter/letten062.png,73,73,0,x,0.26161389995831996,None,0,73,73,73,130.6456482000649,,,,,,,130.6456482000649,131.63005540007725,131.64342850004323,131.64342850004323,131.9077174999984,x,0.26161389995831996,None,131.90777819999494,131.91405960009433,132.09555389999878,131.63648139999714,,,,,,,,PH_en,001,2025-03-09_20h13.38.376,MainFlow,2024.2.4,143.15449518245208,2025-03-09 20h13.58.961217 +0700,
2,2,2,2,letter/lettkh013.png,letter/letten121.png,74,74,0,x,0.5603916000109166,None,0,74,74,74,132.1039418000728,,,,,,,132.1039418000728,133.0924468000885,133.09906560007948,133.09906560007948,133.6619130000472,x,0.5603916000109166,None,133.66197570005897,133.66832600010093,133.84902120009065,133.09906560007948,,,,,,,,PH_en,001,2025-03-09_20h13.38.376,MainFlow,2024.2.4,143.15449518245208,2025-03-09 20h13.58.961217 +0700,
2,3,2,7,letter/lettgr065.png,letter/letten062.png,75,75,0,x,0.6633184999227524,None,0,75,75,75,133.85608810000122,,,,,,,133.85608810000122,134.84268600004725,134.8563865000615,134.8563865000615,135.5232518000994,x,0.6633184999227524,None,135.52331120008603,135.52979719999712,135.71051120001357,134.8493504000362,,,,,,,,PH_en,001,2025-03-09_20h13.38.376,MainFlow,2024.2.4,143.15449518245208,2025-03-09 20h13.58.961217 +0700,
2,2,2,7,letter/lettkh083.png,letter/letten112.png,76,76,0,x,0.667379799997434,None,0,76,76,76,135.717485900037,,,,,,,135.717485900037,136.7036386000691,136.71711359999608,136.71711359999608,137.39106650010217,x,0.667379799997434,None,137.39112040004693,137.39751959999558,137.5788055000594,136.71017820003908,,,,,,,,PH_en,001,2025-03-09_20h13.38.376,MainFlow,2024.2.4,143.15449518245208,2025-03-09 20h13.58.961217 +0700,
2,3,2,8,letter/lettgr152.png,letter/letten152.png,77,77,0,x,0.48916100000496954,None,0,77,77,77,137.58582040003967,,,,,,,137.58582040003967,138.57178290002048,138.58547460008413,138.58547460008413,139.07912250002846,x,0.48916100000496954,None,139.07919910002965,139.08547170006204,139.26620940002613,138.5784528000513,,,,,,,,PH_en,001,2025-03-09_20h13.38.376,MainFlow,2024.2.4,143.15449518245208,2025-03-09 20h13.58.961217 +0700,
2,1,2,4,letter/lettth011.png,letter/letten101.png,78,78,0,x,0.5265073999762535,None,0,78,78,78,139.27326140005607,,,,,,,139.27326140005607,140.25916790007614,140.27283800009172,140.27283800009172,140.8013008000562,x,0.5265073999762535,None,140.80135970003903,140.80714460008312,140.9885550000472,140.26580480008852,,,,,,,,PH_en,001,2025-03-09_20h13.38.376,MainFlow,2024.2.4,143.15449518245208,2025-03-09 20h13.58.961217 +0700,
2,3,2,1,letter/lettgr021.png,letter/letten021.png,79,79,0,x,0.3825579999247566,None,0,79,79,79,140.99621060001664,,,,,,,140.99621060001664,141.9854495000327,141.99212150007952,141.99212150007952,142.3816565000452,x,0.3825579999247566,None,142.38172290008515,142.38786330004223,142.56873060006183,141.99212150007952,,,,,,,,PH_en,001,2025-03-09_20h13.38.376,MainFlow,2024.2.4,143.15449518245208,2025-03-09 20h13.58.961217 +0700,
2,3,2,6,letter/lettgr066.png,letter/letten061.png,80,80,0,x,0.48986720002721995,None,0,80,80,80,142.57541760010645,,,,,,,142.57541760010645,143.56156540010124,143.57520570000634,143.57520570000634,144.06892430002335,x,0.48986720002721995,None,144.06899860000703,144.07526940002572,144.2559489000123,143.56822310003918,,,,,,,,PH_en,001,2025-03-09_20h13.38.376,MainFlow,2024.2.4,143.15449518245208,2025-03-09 20h13.58.961217 +0700,
2,1,2,7,letter/lettth132.png,letter/letten062.png,81,81,0,x,0.5020809000125155,None,0,81,81,81,144.2629666000139,,,,,,,144.2629666000139,145.24898830009624,145.26263410004321,145.26263410004321,145.77026000001933,x,0.5020809000125155,None,145.7703284000745,145.7765681000892,145.95783160009887,145.25565380009357,,,,,,,,PH_en,001,2025-03-09_20h13.38.376,MainFlow,2024.2.4,143.15449518245208,2025-03-09 20h13.58.961217 +0700,
2,2,1,4,letter/letten071.png,letter/lettkh055.png,82,82,0,z,2.08528659993317,None,0,82,82,82,145.9648272000486,,,,,,,145.9648272000486,146.95095910003874,146.9645237000659,146.9645237000659,149.05541000002995,z,2.08528659993317,None,149.05546850000974,149.0614069000585,149.24236730008852,146.95755040005315,,,,,,,,PH_en,001,2025-03-09_20h13.38.376,MainFlow,2024.2.4,143.15449518245208,2025-03-09 20h13.58.961217 +0700,
2,1,2,4,letter/lettth011.png,letter/letten101.png,83,83,0,x,0.3109540999867022,None,0,83,83,83,149.24928860005457,,,,,,,149.24928860005457,150.23538590001408,150.2490135000553,150.2490135000553,150.56202220008709,x,0.3109540999867022,None,150.56207590003032,150.56855050008744,150.7492122000549,150.24205850006547,,,,,,,,PH_en,001,2025-03-09_20h13.38.376,MainFlow,2024.2.4,143.15449518245208,2025-03-09 20h13.58.961217 +0700,
2,1,1,7,letter/letten062.png,letter/lettth132.png,84,84,0,z,0.558690799982287,None,0,84,84,84,150.75609700009227,,,,,,,150.75609700009227,151.7424051000271,151.75587480003014,151.75587480003014,152.31889230001252,z,0.558690799982287,None,152.31897160003427,152.3251323000295,152.50644210004248,151.7488790000789,,,,,,,,PH_en,001,2025-03-09_20h13.38.376,MainFlow,2024.2.4,143.15449518245208,2025-03-09 20h13.58.961217 +0700,
2,1,1,1,letter/letten041.png,letter/lettth022.png,85,85,0,z,0.49132169992662966,None,0,85,85,85,152.51312220003456,,,,,,,152.51312220003456,153.4993990000803,153.51243660005275,153.51243660005275,154.0065616000211,z,0.49132169992662966,None,154.0066268000519,154.01298020000104,154.19376410008408,153.50606130005326,,,,,,,,PH_en,001,2025-03-09_20h13.38.376,MainFlow,2024.2.4,143.15449518245208,2025-03-09 20h13.58.961217 +0700,
2,1,1,7,letter/letten062.png,letter/lettth132.png,86,86,0,z,0.5793740000808612,None,0,86,86,86,154.20081730000675,,,,,,,154.20081730000675,155.18680470006075,155.20030940009747,155.20030940009747,155.78399140003603,z,0.5793740000808612,None,155.78404990001582,155.79052310006227,155.9711712000426,155.19335610000417,,,,,,,,PH_en,001,2025-03-09_20h13.38.376,MainFlow,2024.2.4,143.15449518245208,2025-03-09 20h13.58.961217 +0700,
2,3,1,6,letter/letten061.png,letter/lettgr066.png,87,87,0,z,0.46581760002300143,None,0,87,87,87,155.97828000003938,,,,,,,155.97828000003938,156.96421050000936,156.97796930000186,156.97796930000186,157.45048620004673,z,0.46581760002300143,None,157.45054750004783,157.456970200059,157.63781149999704,156.9708998000715,,,,,,,,PH_en,001,2025-03-09_20h13.38.376,MainFlow,2024.2.4,143.15449518245208,2025-03-09 20h13.58.961217 +0700,
2,1,1,3,letter/letten142.png,letter/lettth152.png,88,88,0,z,0.48062930000014603,None,0,88,88,88,157.64457170001697,,,,,,,157.64457170001697,158.63117180007976,158.6441750000231,158.6441750000231,159.12833920004778,z,0.48062930000014603,None,159.1284015000565,159.13479170005303,159.31551640003454,158.63743840006646,,,,,,,,PH_en,001,2025-03-09_20h13.38.376,MainFlow,2024.2.4,143.15449518245208,2025-03-09 20h13.58.961217 +0700,
2,3,2,5,letter/lettgr012.png,letter/letten011.png,89,89,0,x,0.46199870004784316,None,0,89,89,89,159.3222012000624,,,,,,,159.3222012000624,160.30855930002872,160.3221808000235,160.3221808000235,160.78787630004808,x,0.46199870004784316,None,160.78793880005833,160.79424690001179,160.9750826000236,160.31519740005024,,,,,,,,PH_en,001,2025-03-09_20h13.38.376,MainFlow,2024.2.4,143.15449518245208,2025-03-09 20h13.58.961217 +0700,
2,2,2,8,letter/lettkh035.png,letter/letten051.png,90,90,0,x,0.3977105999365449,None,0,90,90,90,160.9819911000086,,,,,,,160.9819911000086,161.96796020003967,161.9815891000908,161.9815891000908,162.38493010005914,x,0.3977105999365449,None,162.3849918000633,162.3913678000681,162.57205780001823,161.97459640004672,,,,,,,,PH_en,001,2025-03-09_20h13.38.376,MainFlow,2024.2.4,143.15449518245208,2025-03-09 20h13.58.961217 +0700,
2,1,1,8,letter/letten131.png,letter/lettth022.png,91,91,0,z,0.34304489998612553,None,0,91,91,91,162.57886980008334,,,,,,,162.57886980008334,163.56208930001594,163.57566279999446,163.57566279999446,163.92366299999412,z,0.34304489998612553,None,163.923718700069,163.93008760001976,164.11077080003452,163.5687120000366,,,,,,,,PH_en,001,2025-03-09_20h13.38.376,MainFlow,2024.2.4,143.15449518245208,2025-03-09 20h13.58.961217 +0700,
2,1,2,1,letter/lettth022.png,letter/letten041.png,92,92,0,x,0.8658580000046641,None,0,92,92,92,164.11771750007756,,,,,,,164.11771750007756,165.1037431000732,165.11739750008564,165.11739750008564,165.98991090001073,x,0.8658580000046641,None,165.98996540007647,165.99636430002283,166.1775424000807,165.11039530008566,,,,,,,,PH_en,001,2025-03-09_20h13.38.376,MainFlow,2024.2.4,143.15449518245208,2025-03-09 20h13.58.961217 +0700,
2,3,1,7,letter/letten062.png,letter/lettgr065.png,93,93,0,x,0.5392152999993414,None,0,93,93,93,166.18438020010944,,,,,,,166.18438020010944,167.17062010010704,167.18420350004453,167.18420350004453,167.72614560008515,x,0.5392152999993414,None,167.72620530007407,167.73252130008768,167.9134010000853,167.17727430001833,,,,,,,,PH_en,001,2025-03-09_20h13.38.376,MainFlow,2024.2.4,143.15449518245208,2025-03-09 20h13.58.961217 +0700,
2,2,1,3,letter/letten071.png,letter/lettkh091.png,94,94,0,z,0.4189730000216514,None,0,94,94,94,167.92077910003718,,,,,,,167.92077910003718,168.9062389000319,168.91995040001348,168.91995040001348,169.34422020008788,z,0.4189730000216514,None,169.3442944000708,169.3506699000718,169.53144270007033,168.91287460003514,,,,,,,,PH_en,001,2025-03-09_20h13.38.376,MainFlow,2024.2.4,143.15449518245208,2025-03-09 20h13.58.961217 +0700,
2,2,2,1,letter/lettkh159.png,letter/letten153.png,95,95,0,x,0.49393780005630106,None,0,95,95,95,169.53835660009645,,,,,,,169.53835660009645,170.5214143000776,170.5350416000001,170.5350416000001,171.03543420007918,x,0.49393780005630106,None,171.0354947000742,171.0419095000252,171.22259450005367,170.52803530008532,,,,,,,,PH_en,001,2025-03-09_20h13.38.376,MainFlow,2024.2.4,143.15449518245208,2025-03-09 20h13.58.961217 +0700,
,,,,,,,,,,,,,,,,,,,,,,,,,,,,,,,,,,,171.22266630001832,171.229324700078,171.229324700078,175.53205999999773,space,4.299064599908888,None,PH_en,001,2025-03-09_20h13.38.376,MainFlow,2024.2.4,143.15449518245208,2025-03-09 20h13.58.961217 +0700,
