lang,langpair,sequence,pairid,firstdir,seconddir,thisN,thisTrialN,thisRepN,key_resp.keys,key_resp.rt,key_resp.duration,trials.thisRepN,trials.thisTrialN,trials.thisN,trials.thisIndex,thisRow.t,notes,tutorial.started,tutorial.stopped,key_instruct.keys,key_instruct.rt,key_instruct.duration,image_first.started,letterselect.started,instruct.started,key_resp.started,letterselect.stopped,trials.key_resp.keys,trials.key_resp.rt,trials.key_resp.duration,blanknext.started,instruct_2.started,blanknext.stopped,image_first.stopped,ending.started,text_3.started,ending_key.started,ending.stopped,ending_key.keys,ending_key.rt,ending_key.duration,participant,session,date,expName,psychopyVersion,frameRate,expStart,
,,,,,,,,,,,,,,,,,,0.002985699917189777,2.5076748999999836,space,2.4871631999267265,None,,,,,,,,,,,,,,,,,,,,PH_th,001,2025-03-09_20h09.32.288,MainFlow,2024.2.4,144.17947447252251,2025-03-09 20h09.44.309625 +0700,
1,1,2,1,letter/letten092.png,letter/lettth022.png,0,0,0,x,3.8034057000186294,None,0,0,0,0,2.540080099948682,,,,,,,2.540080099948682,3.515767299919389,3.5198312998982146,3.5198312998982146,7.324398499913514,x,3.8034057000186294,None,7.326938599930145,7.331407599966042,7.5115746998926625,,,,,,,,,PH_th,001,2025-03-09_20h09.32.288,MainFlow,2024.2.4,144.17947447252251,2025-03-09 20h09.44.309625 +0700,
1,3,2,8,letter/lettgr153.png,letter/lettth013.png,1,1,0,x,0.7699075000127777,None,0,1,1,1,7.520775299984962,,,,,,,7.520775299984962,8.50435869989451,8.517995499889366,8.517995499889366,9.289272199966945,x,0.7699075000127777,None,9.289328399929218,9.295606899890117,9.47649069991894,8.511025999905542,,,,,,,,PH_th,001,2025-03-09_20h09.32.288,MainFlow,2024.2.4,144.17947447252251,2025-03-09 20h09.44.309625 +0700,
1,1,2,1,letter/letten092.png,letter/lettth022.png,2,2,0,x,0.7497642999514937,None,0,2,2,2,9.483738799928688,,,,,,,9.483738799928688,10.469312999979593,10.483024599961936,10.483024599961936,11.233885499997996,x,0.7497642999514937,None,11.233949499903247,11.240189399919473,11.420876699965447,10.475999099900946,,,,,,,,PH_th,001,2025-03-09_20h09.32.288,MainFlow,2024.2.4,144.17947447252251,2025-03-09 20h09.44.309625 +0700,
1,2,2,4,letter/lettkh034.png,letter/lettth153.png,3,3,0,x,0.8089973999885842,None,0,3,3,3,11.429945399984717,,,,,,,11.429945399984717,12.413925500004552,12.427585099940188,12.427585099940188,13.240592299960554,x,0.8089973999885842,None,13.240652499953285,13.247016499983147,13.427724599954672,12.420552099938504,,,,,,,,PH_th,001,2025-03-09_20h09.32.288,MainFlow,2024.2.4,144.17947447252251,2025-03-09 20h09.44.309625 +0700,
1,2,2,4,letter/lettkh034.png,letter/lettth153.png,4,4,0,x,1.227089799940586,None,0,4,4,4,13.43479029997252,,,,,,,13.43479029997252,14.420932299923152,14.434403499937616,14.434403499937616,15.66449959995225,x,1.227089799940586,None,15.664568699896336,15.670629199943505,15.851381199900061,14.427847299957648,,,,,,,,PH_th,001,2025-03-09_20h09.32.288,MainFlow,2024.2.4,144.17947447252251,2025-03-09 20h09.44.309625 +0700,
1,2,1,7,letter/lettth072.png,letter/lettkh033.png,5,5,0,z,0.45328790007624775,None,0,5,5,5,15.86010259995237,,,,,,,15.86010259995237,16.844384099938907,16.858004799927585,16.858004799927585,17.317022599978372,z,0.45328790007624775,None,17.317112599965185,17.323070799931884,17.504337799968198,16.851000999915414,,,,,,,,PH_th,001,2025-03-09_20h09.32.288,MainFlow,2024.2.4,144.17947447252251,2025-03-09 20h09.44.309625 +0700,
1,2,1,2,letter/lettth032.png,letter/lettkh032.png,6,6,0,z,0.46779350005090237,None,0,6,6,6,17.511429899954237,,,,,,,17.511429899954237,18.494555499986745,18.508059699903242,18.508059699903242,18.980676199891604,z,0.46779350005090237,None,18.980749999987893,18.98706679989118,19.167784999939613,18.50113109999802,,,,,,,,PH_th,001,2025-03-09_20h09.32.288,MainFlow,2024.2.4,144.17947447252251,2025-03-09 20h09.44.309625 +0700,
1,3,1,4,letter/lettth024.png,letter/lettgr064.png,7,7,0,z,0.5008690000977367,None,0,7,7,7,19.175379199907184,,,,,,,19.175379199907184,20.160809799912386,20.17447829991579,20.17447829991579,20.679021299933083,z,0.5008690000977367,None,20.67908329993952,20.685418499982916,20.86608399997931,20.167460199911147,,,,,,,,PH_th,001,2025-03-09_20h09.32.288,MainFlow,2024.2.4,144.17947447252251,2025-03-09 20h09.44.309625 +0700,
1,2,1,5,letter/lettth024.png,letter/lettkh023.png,8,8,0,z,5.100073900073767,None,0,8,8,8,20.872872699983418,,,,,,,20.872872699983418,21.859101299894974,21.87275849992875,21.87275849992875,26.974761899909936,z,5.100073900073767,None,26.974817999987863,26.981221199966967,27.16195389989298,21.865793899982236,,,,,,,,PH_th,001,2025-03-09_20h09.32.288,MainFlow,2024.2.4,144.17947447252251,2025-03-09 20h09.44.309625 +0700,
1,1,2,5,letter/letten041.png,letter/lettth152.png,9,9,0,x,0.36396710004191846,None,0,9,9,9,27.171712399926037,,,,,,,27.171712399926037,28.15490839991253,28.168550699949265,28.168550699949265,28.53724529989995,x,0.36396710004191846,None,28.537311199936084,28.543443099944852,28.72430959995836,28.161555200000294,,,,,,,,PH_th,001,2025-03-09_20h09.32.288,MainFlow,2024.2.4,144.17947447252251,2025-03-09 20h09.44.309625 +0700,
1,2,2,6,letter/lettkh033.png,letter/lettth161.png,10,10,0,x,0.1765588999260217,None,0,10,10,10,28.73211319989059,,,,,,,28.73211319989059,29.71718559996225,29.73075989994686,29.73075989994686,29.91179329995066,x,0.1765588999260217,None,29.911852499935776,29.918245999957435,30.09886639995966,29.72377579996828,,,,,,,,PH_th,001,2025-03-09_20h09.32.288,MainFlow,2024.2.4,144.17947447252251,2025-03-09 20h09.44.309625 +0700,
1,3,2,7,letter/lettgr072.png,letter/lettth025.png,11,11,0,x,4.530602099956013,None,0,11,11,11,30.1076140999794,,,,,,,30.1076140999794,31.092431199969724,31.105531799956225,31.105531799956225,35.64099509990774,x,4.530602099956013,None,35.64107019989751,35.64712039998267,35.82841189997271,31.099086699890904,,,,,,,,PH_th,001,2025-03-09_20h09.32.288,MainFlow,2024.2.4,144.17947447252251,2025-03-09 20h09.44.309625 +0700,
1,1,2,2,letter/letten062.png,letter/lettth061.png,12,12,0,x,1.5048827000427991,None,0,12,12,12,35.83649479993619,,,,,,,35.83649479993619,36.82138280000072,36.83514749992173,36.83514749992173,38.34249539999291,x,1.5048827000427991,None,38.342556999996305,38.34895889996551,38.529680399922654,36.82807629997842,,,,,,,,PH_th,001,2025-03-09_20h09.32.288,MainFlow,2024.2.4,144.17947447252251,2025-03-09 20h09.44.309625 +0700,
1,2,2,8,letter/lettkh031.png,letter/lettth153.png,13,13,0,x,3.7683049000333995,None,0,13,13,13,38.53784659993835,,,,,,,38.53784659993835,39.52269739995245,39.53632769989781,39.53632769989781,43.30731439997908,x,3.7683049000333995,None,43.30737659998704,43.313775899936445,43.49452549999114,39.52934229990933,,,,,,,,PH_th,001,2025-03-09_20h09.32.288,MainFlow,2024.2.4,144.17947447252251,2025-03-09 20h09.44.309625 +0700,
1,2,2,2,letter/lettkh032.png,letter/lettth032.png,14,14,0,x,0.40724490000866354,None,0,14,14,14,43.50389319995884,,,,,,,43.50389319995884,44.48746869992465,44.50111299997661,44.50111299997661,44.91152530000545,x,0.40724490000866354,None,44.91159689996857,44.917971099959686,45.09874960000161,44.4941493999213,,,,,,,,PH_th,001,2025-03-09_20h09.32.288,MainFlow,2024.2.4,144.17947447252251,2025-03-09 20h09.44.309625 +0700,
1,3,2,1,letter/lettgr143.png,letter/lettth132.png,15,15,0,x,0.07880120002664626,None,0,15,15,15,45.10618569992948,,,,,,,45.10618569992948,46.092145899892785,46.105185299995355,46.105185299995355,46.189504199894145,x,0.07880120002664626,None,46.18956659990363,46.19598560000304,46.37665709992871,46.09819729998708,,,,,,,,PH_th,001,2025-03-09_20h09.32.288,MainFlow,2024.2.4,144.17947447252251,2025-03-09 20h09.44.309625 +0700,
1,3,2,6,letter/lettgr061.png,letter/lettth082.png,16,16,0,x,1.4755136999301612,None,0,16,16,16,46.38393859995995,,,,,,,46.38393859995995,47.36965199990664,47.383316899999045,47.383316899999045,48.862991499947384,x,1.4755136999301612,None,48.863068599952385,48.869365399936214,49.05011889990419,47.376348099904135,,,,,,,,PH_th,001,2025-03-09_20h09.32.288,MainFlow,2024.2.4,144.17947447252251,2025-03-09 20h09.44.309625 +0700,
1,2,2,6,letter/lettkh033.png,letter/lettth161.png,17,17,0,x,2.8354454999789596,None,0,17,17,17,49.05720659997314,,,,,,,49.05720659997314,50.04313499992713,50.056743199937046,50.056743199937046,52.8977670999011,x,2.8354454999789596,None,52.89783949998673,52.90400839992799,53.08466459996998,50.04971789999399,,,,,,,,PH_th,001,2025-03-09_20h09.32.288,MainFlow,2024.2.4,144.17947447252251,2025-03-09 20h09.44.309625 +0700,
1,3,1,3,letter/lettth155.png,letter/lettgr153.png,18,18,0,z,0.16521530004683882,None,0,18,18,18,53.09168219997082,,,,,,,53.09168219997082,54.078010999946855,54.09134439995978,54.09134439995978,54.25839069997892,z,0.16521530004683882,None,54.25845369999297,54.26480089989491,54.446077100001276,54.08439209999051,,,,,,,,PH_th,001,2025-03-09_20h09.32.288,MainFlow,2024.2.4,144.17947447252251,2025-03-09 20h09.44.309625 +0700,
1,3,2,1,letter/lettgr143.png,letter/lettth132.png,19,19,0,x,0.6309076000470668,None,0,19,19,19,54.45302189991344,,,,,,,54.45302189991344,55.439049499924295,55.45269649999682,55.45269649999682,56.084989199996926,x,0.6309076000470668,None,56.0850520998938,56.09128619998228,56.2722439999925,55.4457121999003,,,,,,,,PH_th,001,2025-03-09_20h09.32.288,MainFlow,2024.2.4,144.17947447252251,2025-03-09 20h09.44.309625 +0700,
1,3,1,1,letter/lettth132.png,letter/lettgr143.png,20,20,0,x,12.408607000019401,None,0,20,20,20,56.27965849998873,,,,,,,56.27965849998873,57.26503409992438,57.27862729993649,57.27862729993649,69.6887710998999,x,12.408607000019401,None,69.68882459995802,69.695247799973,69.8759872999508,57.271640899940394,,,,,,,,PH_th,001,2025-03-09_20h09.32.288,MainFlow,2024.2.4,144.17947447252251,2025-03-09 20h09.44.309625 +0700,
1,1,2,8,letter/letten031.png,letter/lettth161.png,21,21,0,x,0.024982500006444752,None,0,21,21,21,69.88533489999827,,,,,,,69.88533489999827,70.86898269993253,70.88262759998906,70.88262759998906,70.91115189995617,x,0.024982500006444752,None,70.91122409992386,70.91747829993255,71.09821309999097,70.87562539998908,,,,,,,,PH_th,001,2025-03-09_20h09.32.288,MainFlow,2024.2.4,144.17947447252251,2025-03-09 20h09.44.309625 +0700,
1,1,1,5,letter/lettth152.png,letter/letten041.png,22,22,0,z,0.08207789994776249,None,0,22,22,22,71.10567779990379,,,,,,,71.10567779990379,72.09136489999946,72.10483569989447,72.10483569989447,72.18888119992334,z,0.08207789994776249,None,72.18894459994044,72.19512479996774,72.37579570000526,72.09784109995235,,,,,,,,PH_th,001,2025-03-09_20h09.32.288,MainFlow,2024.2.4,144.17947447252251,2025-03-09 20h09.44.309625 +0700,
1,1,2,6,letter/letten153.png,letter/lettth024.png,23,23,0,x,2.928697800030932,None,0,23,23,23,72.38326219993178,,,,,,,72.38326219993178,73.36879849992692,73.38236859999597,73.38236859999597,76.31346699991263,x,2.928697800030932,None,76.313534899964,76.3200125999283,76.50066529994365,73.37538919993676,,,,,,,,PH_th,001,2025-03-09_20h09.32.288,MainFlow,2024.2.4,144.17947447252251,2025-03-09 20h09.44.309625 +0700,
1,1,1,8,letter/lettth161.png,letter/letten031.png,24,24,0,z,1.8785843999357894,None,0,24,24,24,76.5079196000006,,,,,,,76.5079196000006,77.49375939997844,77.50729139999021,77.50729139999021,79.39012919995002,z,1.8785843999357894,None,79.39018909994047,79.3965836999705,79.57729139993899,77.50031759997364,,,,,,,,PH_th,001,2025-03-09_20h09.32.288,MainFlow,2024.2.4,144.17947447252251,2025-03-09 20h09.44.309625 +0700,
1,3,1,1,letter/lettth132.png,letter/lettgr143.png,25,25,0,z,1.7186181000433862,None,0,25,25,25,79.58428739989176,,,,,,,79.58428739989176,80.56741049990524,80.58103109989315,80.58103109989315,82.30372460000217,z,1.7186181000433862,None,82.30378369998652,82.31022349989507,82.49106709996704,80.57403049990535,,,,,,,,PH_th,001,2025-03-09_20h09.32.288,MainFlow,2024.2.4,144.17947447252251,2025-03-09 20h09.44.309625 +0700,
1,3,2,4,letter/lettgr064.png,letter/lettth024.png,26,26,0,x,2.482101999921724,None,0,26,26,26,82.49844539992046,,,,,,,82.49844539992046,83.48393659992144,83.49759619997349,83.49759619997349,85.98102479998488,x,2.482101999921724,None,85.98107959993649,85.9873942999402,86.16803859989159,83.49061639991123,,,,,,,,PH_th,001,2025-03-09_20h09.32.288,MainFlow,2024.2.4,144.17947447252251,2025-03-09 20h09.44.309625 +0700,
1,2,1,6,letter/lettth161.png,letter/lettkh033.png,27,27,0,x,1.9992333999834955,None,0,27,27,27,86.17493409989402,,,,,,,86.17493409989402,87.16132339998148,87.17467320000287,87.17467320000287,89.17883659992367,x,1.9992333999834955,None,89.17889699991792,89.18533669994213,89.36600889998954,87.16769859998021,,,,,,,,PH_th,001,2025-03-09_20h09.32.288,MainFlow,2024.2.4,144.17947447252251,2025-03-09 20h09.44.309625 +0700,
1,2,1,1,letter/lettth061.png,letter/lettkh034.png,28,28,0,z,5.7751455999678,None,0,28,28,28,89.37504109996371,,,,,,,89.37504109996371,90.35901209991425,90.37267620000057,90.37267620000057,96.15067010000348,z,5.7751455999678,None,96.1507346999133,96.15708789997734,96.33833179995418,90.3657160999719,,,,,,,,PH_th,001,2025-03-09_20h09.32.288,MainFlow,2024.2.4,144.17947447252251,2025-03-09 20h09.44.309625 +0700,
1,1,2,7,letter/letten051.png,letter/lettth025.png,29,29,0,x,1.1703574999701232,None,0,29,29,29,96.34750349994283,,,,,,,96.34750349994283,97.33523279998917,97.34190779994242,97.34190779994242,98.5158373999875,x,1.1703574999701232,None,98.51589829998557,98.52226709993556,98.70296519994736,97.34190779994242,,,,,,,,PH_th,001,2025-03-09_20h09.32.288,MainFlow,2024.2.4,144.17947447252251,2025-03-09 20h09.44.309625 +0700,
1,2,2,7,letter/lettkh033.png,letter/lettth072.png,30,30,0,x,0.5275137000717223,None,0,30,30,30,98.71029409999028,,,,,,,98.71029409999028,99.69601479999255,99.70965380000416,99.70965380000416,100.23814169992693,x,0.5275137000717223,None,100.23819879989605,100.24451619992033,100.42529919999652,99.7026628999738,,,,,,,,PH_th,001,2025-03-09_20h09.32.288,MainFlow,2024.2.4,144.17947447252251,2025-03-09 20h09.44.309625 +0700,
1,2,1,8,letter/lettth153.png,letter/lettkh031.png,31,31,0,z,0.5901264001149684,None,0,31,31,31,100.43466319993604,,,,,,,100.43466319993604,101.41852759988979,101.4319538999116,101.4319538999116,102.02651169989258,z,0.5901264001149684,None,102.02658539998811,102.03298309992533,102.21367519989144,101.42502529988997,,,,,,,,PH_th,001,2025-03-09_20h09.32.288,MainFlow,2024.2.4,144.17947447252251,2025-03-09 20h09.44.309625 +0700,
1,1,1,2,letter/lettth061.png,letter/letten062.png,32,32,0,z,0.4064152999781072,None,0,32,32,32,102.22061530000065,,,,,,,102.22061530000065,103.20668049994856,103.22034489992075,103.22034489992075,103.63063629996032,z,0.4064152999781072,None,103.63068979990203,103.63709179998841,103.81786709988955,103.21335559990257,,,,,,,,PH_th,001,2025-03-09_20h09.32.288,MainFlow,2024.2.4,144.17947447252251,2025-03-09 20h09.44.309625 +0700,
1,3,1,7,letter/lettth025.png,letter/lettgr072.png,33,33,0,z,0.22653470002114773,None,0,33,33,33,103.82590499997605,,,,,,,103.82590499997605,104.81087229994591,104.82450659992173,104.82450659992173,105.05426719994284,z,0.22653470002114773,None,105.05432789993938,105.06071729992982,105.24140609998722,104.81744419992901,,,,,,,,PH_th,001,2025-03-09_20h09.32.288,MainFlow,2024.2.4,144.17947447252251,2025-03-09 20h09.44.309625 +0700,
1,1,1,3,letter/lettth092.png,letter/letten041.png,34,34,0,z,0.3360299998894334,None,0,34,34,34,105.24858519993722,,,,,,,105.24858519993722,106.2315002999967,106.24509260000195,106.24509260000195,106.58607609989122,z,0.3360299998894334,None,106.58612799993716,106.59197009995114,106.77334229997359,106.23822299996391,,,,,,,,PH_th,001,2025-03-09_20h09.32.288,MainFlow,2024.2.4,144.17947447252251,2025-03-09 20h09.44.309625 +0700,
1,3,1,5,letter/lettth052.png,letter/lettgr141.png,35,35,0,z,0.4302546000108123,None,0,35,35,35,106.78043699997943,,,,,,,106.78043699997943,107.7662999999011,107.77994189993478,107.77994189993478,108.21117399993818,z,0.4302546000108123,None,108.21124159998726,108.21716669993475,108.3978286999045,107.7729520999128,,,,,,,,PH_th,001,2025-03-09_20h09.32.288,MainFlow,2024.2.4,144.17947447252251,2025-03-09 20h09.44.309625 +0700,
1,1,1,6,letter/lettth024.png,letter/letten153.png,36,36,0,z,0.5401425000745803,None,0,36,36,36,108.40473589999601,,,,,,,108.40473589999601,109.39131999993697,109.40447999991011,109.40447999991011,109.946824499988,z,0.5401425000745803,None,109.94687869993504,109.95329079998191,110.1339813999366,109.39798359991983,,,,,,,,PH_th,001,2025-03-09_20h09.32.288,MainFlow,2024.2.4,144.17947447252251,2025-03-09 20h09.44.309625 +0700,
1,1,1,3,letter/lettth092.png,letter/letten041.png,37,37,0,z,0.5216505998978391,None,0,37,37,37,110.14089869998861,,,,,,,110.14089869998861,111.12461589998566,111.13774729997385,111.13774729997385,111.66626149998046,z,0.5216505998978391,None,111.66632409999147,111.67266029992606,111.85334289993625,111.1312732999213,,,,,,,,PH_th,001,2025-03-09_20h09.32.288,MainFlow,2024.2.4,144.17947447252251,2025-03-09 20h09.44.309625 +0700,
1,1,1,7,letter/lettth025.png,letter/letten051.png,38,38,0,z,0.7529876000480726,None,0,38,38,38,111.86011589993723,,,,,,,111.86011589993723,112.84320089989342,112.8566298999358,112.8566298999358,113.61391429998912,z,0.7529876000480726,None,113.61397399997804,113.62026299990248,113.8011356999632,112.84965429990552,,,,,,,,PH_th,001,2025-03-09_20h09.32.288,MainFlow,2024.2.4,144.17947447252251,2025-03-09 20h09.44.309625 +0700,
1,3,1,6,letter/lettth082.png,letter/lettgr061.png,39,39,0,z,0.6914601000025868,None,0,39,39,39,113.80860929994378,,,,,,,113.80860929994378,114.79395079996902,114.80765049997717,114.80765049997717,115.50261959992349,z,0.6914601000025868,None,115.5026826999383,115.50907269993331,115.68990349990781,114.80065029999241,,,,,,,,PH_th,001,2025-03-09_20h09.32.288,MainFlow,2024.2.4,144.17947447252251,2025-03-09 20h09.44.309625 +0700,
1,2,1,4,letter/lettth153.png,letter/lettkh034.png,40,40,0,z,0.8864703000290319,None,0,40,40,40,115.69707819994073,,,,,,,115.69707819994073,116.68331879994366,116.69701469992287,116.69701469992287,117.59033329994418,z,0.8864703000290319,None,117.59041489998344,117.5966864998918,117.77736439998262,116.68933739990462,,,,,,,,PH_th,001,2025-03-09_20h09.32.288,MainFlow,2024.2.4,144.17947447252251,2025-03-09 20h09.44.309625 +0700,
1,3,2,8,letter/lettgr153.png,letter/lettth013.png,41,41,0,x,0.6439577999990433,None,0,41,41,41,117.78443239990156,,,,,,,117.78443239990156,118.77041369990911,118.78405959997326,118.78405959997326,119.43036239990033,x,0.6439577999990433,None,119.43042719992809,119.4366479999153,119.61725719994865,118.7770668999292,,,,,,,,PH_th,001,2025-03-09_20h09.32.288,MainFlow,2024.2.4,144.17947447252251,2025-03-09 20h09.44.309625 +0700,
1,1,1,4,letter/lettth041.png,letter/letten091.png,42,42,0,z,0.4345636999933049,None,0,42,42,42,119.62482919998001,,,,,,,119.62482919998001,120.61070039996412,120.62387619994115,120.62387619994115,121.06213429989293,z,0.4345636999933049,None,121.06219599989709,121.06860329990741,121.24946550000459,120.61745669995435,,,,,,,,PH_th,001,2025-03-09_20h09.32.288,MainFlow,2024.2.4,144.17947447252251,2025-03-09 20h09.44.309625 +0700,
1,3,1,8,letter/lettth013.png,letter/lettgr153.png,43,43,0,z,0.4493135999655351,None,0,43,43,43,121.25683699990623,,,,,,,121.25683699990623,122.2463596999878,122.2530029999325,122.2530029999325,122.70510109991301,z,0.4493135999655351,None,122.70516099990346,122.71156299998984,122.89252199989278,122.2530029999325,,,,,,,,PH_th,001,2025-03-09_20h09.32.288,MainFlow,2024.2.4,144.17947447252251,2025-03-09 20h09.44.309625 +0700,
1,2,1,3,letter/lettth112.png,letter/lettkh031.png,44,44,0,z,0.4934273000108078,None,0,44,44,44,122.90157859993633,,,,,,,122.90157859993633,123.88559089996852,123.89899999997579,123.89899999997579,124.39947780000512,z,0.4934273000108078,None,124.39953900000546,124.40593449992593,124.58666569995694,123.89207339996938,,,,,,,,PH_th,001,2025-03-09_20h09.32.288,MainFlow,2024.2.4,144.17947447252251,2025-03-09 20h09.44.309625 +0700,
1,1,2,2,letter/letten062.png,letter/lettth061.png,45,45,0,x,0.05348609993234277,None,0,45,45,45,124.59385549998842,,,,,,,124.59385549998842,125.57964929996524,125.59333259996492,125.59333259996492,125.64976079994813,x,0.05348609993234277,None,125.64984069997445,125.65611739992164,125.83683529996779,125.58633809990715,,,,,,,,PH_th,001,2025-03-09_20h09.32.288,MainFlow,2024.2.4,144.17947447252251,2025-03-09 20h09.44.309625 +0700,
1,3,1,7,letter/lettth025.png,letter/lettgr072.png,46,46,0,z,0.37653120001778007,None,0,46,46,46,125.84363409993239,,,,,,,125.84363409993239,126.82692779996432,126.84051789995283,126.84051789995283,127.22285709995776,z,0.37653120001778007,None,127.22291959996801,127.22930849995464,127.41002660000231,126.83353949990124,,,,,,,,PH_th,001,2025-03-09_20h09.32.288,MainFlow,2024.2.4,144.17947447252251,2025-03-09 20h09.44.309625 +0700,
1,1,1,7,letter/lettth025.png,letter/letten051.png,47,47,0,z,0.7788254000479355,None,0,47,47,47,127.41699469997548,,,,,,,127.41699469997548,128.4033392999554,128.4175104999449,128.4175104999449,129.20184519991744,z,0.7788254000479355,None,129.20189999998547,129.20832159998827,129.38899829995353,128.4098203999456,,,,,,,,PH_th,001,2025-03-09_20h09.32.288,MainFlow,2024.2.4,144.17947447252251,2025-03-09 20h09.44.309625 +0700,
1,2,2,5,letter/lettkh023.png,letter/lettth024.png,48,48,0,x,0.3359383000060916,None,0,48,48,48,129.39609049994033,,,,,,,129.39609049994033,130.3825058999937,130.39561979996506,130.39561979996506,130.73409099993296,x,0.3359383000060916,None,130.734153999947,130.74010359996464,130.92084349994548,130.3886151999468,,,,,,,,PH_th,001,2025-03-09_20h09.32.288,MainFlow,2024.2.4,144.17947447252251,2025-03-09 20h09.44.309625 +0700,
1,2,1,5,letter/lettth024.png,letter/lettkh023.png,49,49,0,z,0.5938888000091538,None,0,49,49,49,130.92775639996398,,,,,,,130.92775639996398,131.91382999997586,131.92747499991674,131.92747499991674,132.52514019992668,z,0.5938888000091538,None,132.52520099992398,132.5315787999425,132.71235809999052,131.92040919989813,,,,,,,,PH_th,001,2025-03-09_20h09.32.288,MainFlow,2024.2.4,144.17947447252251,2025-03-09 20h09.44.309625 +0700,
1,3,2,5,letter/lettgr141.png,letter/lettth052.png,50,50,0,x,0.39729069999884814,None,0,50,50,50,132.71967029990628,,,,,,,132.71967029990628,133.70541579998098,133.71892579994164,133.71892579994164,134.12236869998742,x,0.39729069999884814,None,134.12242779997177,134.12875999999233,134.30956209998112,133.71194609999657,,,,,,,,PH_th,001,2025-03-09_20h09.32.288,MainFlow,2024.2.4,144.17947447252251,2025-03-09 20h09.44.309625 +0700,
1,2,2,8,letter/lettkh031.png,letter/lettth153.png,51,51,0,x,0.35712689999490976,None,0,51,51,51,134.31629579991568,,,,,,,134.31629579991568,135.30002129997592,135.31364659999963,135.31364659999963,135.6750259998953,x,0.35712689999490976,None,135.67508429998998,135.6814840999432,135.862269599922,135.30663939996157,,,,,,,,PH_th,001,2025-03-09_20h09.32.288,MainFlow,2024.2.4,144.17947447252251,2025-03-09 20h09.44.309625 +0700,
1,1,2,5,letter/letten041.png,letter/lettth152.png,52,52,0,x,0.6121399000985548,None,0,52,52,52,135.86919289990328,,,,,,,135.86919289990328,136.85521359997801,136.86886889999732,136.86886889999732,137.4846961000003,x,0.6121399000985548,None,137.48475989990402,137.49090749991592,137.6716035999125,136.86188019998372,,,,,,,,PH_th,001,2025-03-09_20h09.32.288,MainFlow,2024.2.4,144.17947447252251,2025-03-09 20h09.44.309625 +0700,
1,1,1,1,letter/lettth022.png,letter/letten092.png,53,53,0,z,0.34151569998357445,None,0,53,53,53,137.67916649999097,,,,,,,137.67916649999097,138.66458679991774,138.67823299998417,138.67823299998417,139.02632029994857,z,0.34151569998357445,None,139.02638199995272,139.03215299989097,139.2134315998992,138.67129139997996,,,,,,,,PH_th,001,2025-03-09_20h09.32.288,MainFlow,2024.2.4,144.17947447252251,2025-03-09 20h09.44.309625 +0700,
1,2,1,1,letter/lettth061.png,letter/lettkh034.png,54,54,0,z,0.30410039995331317,None,0,54,54,54,139.22013539995532,,,,,,,139.22013539995532,140.2065706999274,140.2201530999737,140.2201530999737,140.52617569989525,z,0.30410039995331317,None,140.52623319998384,140.53265989990905,140.7133003999479,140.21314139990136,,,,,,,,PH_th,001,2025-03-09_20h09.32.288,MainFlow,2024.2.4,144.17947447252251,2025-03-09 20h09.44.309625 +0700,
1,3,2,4,letter/lettgr064.png,letter/lettth024.png,55,55,0,x,0.33907680003903806,None,0,55,55,55,140.7196611999534,,,,,,,140.7196611999534,141.70647169998847,141.7200249999296,141.7200249999296,142.0645350998966,x,0.33907680003903806,None,142.06459419999737,142.07199440000113,142.25159679993521,141.7131045999704,,,,,,,,PH_th,001,2025-03-09_20h09.32.288,MainFlow,2024.2.4,144.17947447252251,2025-03-09 20h09.44.309625 +0700,
1,3,1,5,letter/lettth052.png,letter/lettgr141.png,56,56,0,z,0.7859189999289811,None,0,56,56,56,142.25841149990447,,,,,,,142.25841149990447,143.24513769999612,143.25826899998356,143.25826899998356,144.05108799994923,z,0.7859189999289811,None,144.05115749989636,144.057413399918,144.2380788999144,143.2512596999295,,,,,,,,PH_th,001,2025-03-09_20h09.32.288,MainFlow,2024.2.4,144.17947447252251,2025-03-09 20h09.44.309625 +0700,
1,1,1,8,letter/lettth161.png,letter/letten031.png,57,57,0,z,0.5209925000090152,None,0,57,57,57,144.24504879990127,,,,,,,144.24504879990127,145.23104769992642,145.24472550000064,145.24472550000064,145.76642979995813,z,0.5209925000090152,None,145.76648659992497,145.77211269992404,145.9533637999557,145.2379430999281,,,,,,,,PH_th,001,2025-03-09_20h09.32.288,MainFlow,2024.2.4,144.17947447252251,2025-03-09 20h09.44.309625 +0700,
1,1,1,4,letter/lettth041.png,letter/letten091.png,58,58,0,z,0.3976103999884799,None,0,58,58,58,145.96013019990642,,,,,,,145.96013019990642,146.943433099892,146.95698499993887,146.95698499993887,147.36035159998573,z,0.3976103999884799,None,147.36041530000512,147.3666932999622,147.5473812998971,146.95002499991097,,,,,,,,PH_th,001,2025-03-09_20h09.32.288,MainFlow,2024.2.4,144.17947447252251,2025-03-09 20h09.44.309625 +0700,
1,2,1,4,letter/lettth153.png,letter/lettkh034.png,59,59,0,z,0.4741522000404075,None,0,59,59,59,147.55420099990442,,,,,,,147.55420099990442,148.54062379989773,148.55407159996685,148.55407159996685,149.03361169993877,z,0.4741522000404075,None,149.03367069992237,149.04006679996382,149.2207770999521,148.54712759994436,,,,,,,,PH_th,001,2025-03-09_20h09.32.288,MainFlow,2024.2.4,144.17947447252251,2025-03-09 20h09.44.309625 +0700,
1,1,2,3,letter/letten041.png,letter/lettth092.png,60,60,0,x,0.3306228999281302,None,0,60,60,60,149.22780959994998,,,,,,,149.22780959994998,150.21381699992344,150.22747819998767,150.22747819998767,150.56142569996882,x,0.3306228999281302,None,150.56148069992196,150.56790929997806,150.748837799998,150.2204479998909,,,,,,,,PH_th,001,2025-03-09_20h09.32.288,MainFlow,2024.2.4,144.17947447252251,2025-03-09 20h09.44.309625 +0700,
1,3,2,2,letter/lettgr072.png,letter/lettth052.png,61,61,0,x,0.20102100004442036,None,0,61,61,61,150.7559168000007,,,,,,,150.7559168000007,151.73865849990398,151.7522505999077,151.7522505999077,151.9542519999668,x,0.20102100004442036,None,151.95430729992222,151.9606903999811,152.1413312999066,151.74529359990265,,,,,,,,PH_th,001,2025-03-09_20h09.32.288,MainFlow,2024.2.4,144.17947447252251,2025-03-09 20h09.44.309625 +0700,
1,1,2,8,letter/letten031.png,letter/lettth161.png,62,62,0,x,0.42027040000539273,None,0,62,62,62,152.14805779990274,,,,,,,152.14805779990274,153.13438679999672,153.1479849999305,153.1479849999305,153.57225349999499,x,0.42027040000539273,None,153.57231339998543,153.57866139989346,153.75946639990434,153.1411136999959,,,,,,,,PH_th,001,2025-03-09_20h09.32.288,MainFlow,2024.2.4,144.17947447252251,2025-03-09 20h09.44.309625 +0700,
1,1,1,5,letter/lettth152.png,letter/letten041.png,63,63,0,z,0.2516109000425786,None,0,63,63,63,153.7666479999898,,,,,,,153.7666479999898,154.75239509996027,154.7660174999619,154.7660174999619,155.02324619994033,z,0.2516109000425786,None,155.02330050000455,155.02974259993061,155.21111069992185,154.75906759989448,,,,,,,,PH_th,001,2025-03-09_20h09.32.288,MainFlow,2024.2.4,144.17947447252251,2025-03-09 20h09.44.309625 +0700,
1,2,2,2,letter/lettkh032.png,letter/lettth032.png,64,64,0,x,0.3373557000886649,None,0,64,64,64,155.21853129996452,,,,,,,155.21853129996452,156.20812609989662,156.21469880000222,156.21469880000222,156.55510499991942,x,0.3373557000886649,None,156.55518069991376,156.56157429993618,156.7422500998946,156.21469880000222,,,,,,,,PH_th,001,2025-03-09_20h09.32.288,MainFlow,2024.2.4,144.17947447252251,2025-03-09 20h09.44.309625 +0700,
1,3,1,2,letter/lettth052.png,letter/lettgr072.png,65,65,0,z,0.41275210003368556,None,0,65,65,65,156.7493642999325,,,,,,,156.7493642999325,157.7352473998908,157.74892139993608,157.74892139993608,158.16618399997242,z,0.41275210003368556,None,158.16624709998723,158.17267020000145,158.3535468999762,157.74195809999947,,,,,,,,PH_th,001,2025-03-09_20h09.32.288,MainFlow,2024.2.4,144.17947447252251,2025-03-09 20h09.44.309625 +0700,
1,1,2,4,letter/letten091.png,letter/lettth041.png,66,66,0,x,0.3718323999783024,None,0,66,66,66,158.36241439997684,,,,,,,158.36241439997684,159.34633839991875,159.3599653999554,159.3599653999554,159.736080499948,x,0.3718323999783024,None,159.73614289995749,159.74241720000282,159.92001619993243,159.35311789996922,,,,,,,,PH_th,001,2025-03-09_20h09.32.288,MainFlow,2024.2.4,144.17947447252251,2025-03-09 20h09.44.309625 +0700,
1,3,2,5,letter/lettgr141.png,letter/lettth052.png,67,67,0,x,0.6652403000043705,None,0,67,67,67,159.92683029989712,,,,,,,159.92683029989712,160.91302459989674,160.92666959995404,160.92666959995404,161.5936614999082,x,0.6652403000043705,None,161.59372299991082,161.60011499992106,161.7808452999452,160.91968609998003,,,,,,,,PH_th,001,2025-03-09_20h09.32.288,MainFlow,2024.2.4,144.17947447252251,2025-03-09 20h09.44.309625 +0700,
1,2,2,3,letter/lettkh031.png,letter/lettth112.png,68,68,0,x,0.44732139992993325,None,0,68,68,68,161.78784319991246,,,,,,,161.78784319991246,162.7767033999553,162.78337039996404,162.78337039996404,163.235308000003,x,0.44732139992993325,None,163.23537069989834,163.24153759994078,163.42268229997717,162.78337039996404,,,,,,,,PH_th,001,2025-03-09_20h09.32.288,MainFlow,2024.2.4,144.17947447252251,2025-03-09 20h09.44.309625 +0700,
1,3,2,7,letter/lettgr072.png,letter/lettth025.png,69,69,0,x,0.4349596999818459,None,0,69,69,69,163.42957689997274,,,,,,,163.42957689997274,164.41581049992237,164.42944699991494,164.42944699991494,164.86702429992147,x,0.4349596999818459,None,164.86708349990658,164.87349949998315,165.0542232999578,164.4224979999708,,,,,,,,PH_th,001,2025-03-09_20h09.32.288,MainFlow,2024.2.4,144.17947447252251,2025-03-09 20h09.44.309625 +0700,
1,3,2,2,letter/lettgr072.png,letter/lettth052.png,70,70,0,x,0.3652017000131309,None,0,70,70,70,165.0609395999927,,,,,,,165.0609395999927,166.0477605999913,166.06086189998314,166.06086189998314,166.43014219996985,x,0.3652017000131309,None,166.43021959997714,166.43613889999688,166.61327459989116,166.05388449993916,,,,,,,,PH_th,001,2025-03-09_20h09.32.288,MainFlow,2024.2.4,144.17947447252251,2025-03-09 20h09.44.309625 +0700,
1,1,1,1,letter/lettth022.png,letter/letten092.png,71,71,0,z,0.32579919998534024,None,0,71,71,71,166.62019970000256,,,,,,,166.62019970000256,167.60679879994132,167.61991919996217,167.61991919996217,167.94708419998642,z,0.32579919998534024,None,167.94713899993803,167.95353619998787,168.13409169996157,167.61300739995204,,,,,,,,PH_th,001,2025-03-09_20h09.32.288,MainFlow,2024.2.4,144.17947447252251,2025-03-09 20h09.44.309625 +0700,
1,3,1,6,letter/lettth082.png,letter/lettgr061.png,72,72,0,z,0.48010569997131824,None,0,72,72,72,168.1412784999702,,,,,,,168.1412784999702,169.12687849998474,169.14072319993284,169.14072319993284,169.6273887999123,z,0.48010569997131824,None,169.62745299993549,169.6337966999272,169.81502249999903,169.13375739997718,,,,,,,,PH_th,001,2025-03-09_20h09.32.288,MainFlow,2024.2.4,144.17947447252251,2025-03-09 20h09.44.309625 +0700,
1,2,1,7,letter/lettth072.png,letter/lettkh033.png,73,73,0,z,0.2730053000850603,None,0,73,73,73,169.82201499992516,,,,,,,169.82201499992516,170.8081760999048,170.82172469992656,170.82172469992656,171.0967558999546,z,0.2730053000850603,None,171.09681469993666,171.1032834999496,171.28396149992477,170.8148931999458,,,,,,,,PH_th,001,2025-03-09_20h09.32.288,MainFlow,2024.2.4,144.17947447252251,2025-03-09 20h09.44.309625 +0700,
1,3,2,6,letter/lettgr061.png,letter/lettth082.png,74,74,0,x,0.35413709993008524,None,0,74,74,74,171.29119119991083,,,,,,,171.29119119991083,172.27701199997682,172.29079939995427,172.29079939995427,172.64578869997058,x,0.35413709993008524,None,172.6458597999299,172.65154679992702,172.8330161999911,172.28365709993523,,,,,,,,PH_th,001,2025-03-09_20h09.32.288,MainFlow,2024.2.4,144.17947447252251,2025-03-09 20h09.44.309625 +0700,
1,1,2,6,letter/letten153.png,letter/lettth024.png,75,75,0,x,0.2754364999709651,None,0,75,75,75,172.83983889990486,,,,,,,172.83983889990486,173.82580160000362,173.83949479996227,173.83949479996227,174.1176171998959,x,0.2754364999709651,None,174.11767680000048,174.12405359989498,174.30474399996456,173.83273759996518,,,,,,,,PH_th,001,2025-03-09_20h09.32.288,MainFlow,2024.2.4,144.17947447252251,2025-03-09 20h09.44.309625 +0700,
1,2,2,1,letter/lettkh034.png,letter/lettth061.png,76,76,0,x,0.29825470002833754,None,0,76,76,76,174.31162449996918,,,,,,,174.31162449996918,175.29826349997893,175.31153169996105,175.31153169996105,175.61082889989484,x,0.29825470002833754,None,175.61088319995906,175.61713539995253,175.7978415999096,175.30549049994443,,,,,,,,PH_th,001,2025-03-09_20h09.32.288,MainFlow,2024.2.4,144.17947447252251,2025-03-09 20h09.44.309625 +0700,
1,2,1,6,letter/lettth161.png,letter/lettkh033.png,77,77,0,z,0.4152262000134215,None,0,77,77,77,175.80475669994485,,,,,,,175.80475669994485,176.7908393999096,176.80445679998957,176.80445679998957,177.22192809998523,z,0.4152262000134215,None,177.22200169996358,177.22823819995392,177.40885319991503,176.79745989991352,,,,,,,,PH_th,001,2025-03-09_20h09.32.288,MainFlow,2024.2.4,144.17947447252251,2025-03-09 20h09.44.309625 +0700,
1,2,2,7,letter/lettkh033.png,letter/lettth072.png,78,78,0,x,0.41956629999913275,None,0,78,78,78,177.4158513000002,,,,,,,177.4158513000002,178.40177959995344,178.41549719998147,178.41549719998147,178.83971999993082,x,0.41956629999913275,None,178.83978099992964,178.84620199992787,179.02693739999086,178.40852199995425,,,,,,,,PH_th,001,2025-03-09_20h09.32.288,MainFlow,2024.2.4,144.17947447252251,2025-03-09 20h09.44.309625 +0700,
1,2,1,8,letter/lettth153.png,letter/lettkh031.png,79,79,0,z,0.44063520000781864,None,0,79,79,79,179.03360059997067,,,,,,,179.03360059997067,180.02003019989934,180.03363999992143,180.03363999992143,180.4787763999775,z,0.44063520000781864,None,180.4788270998979,180.48526609991677,180.66599169990513,180.02659429993946,,,,,,,,PH_th,001,2025-03-09_20h09.32.288,MainFlow,2024.2.4,144.17947447252251,2025-03-09 20h09.44.309625 +0700,
1,3,1,2,letter/lettth052.png,letter/lettgr072.png,80,80,0,z,0.5112189999781549,None,0,80,80,80,180.67282099998556,,,,,,,180.67282099998556,181.65893689997029,181.67257389996666,181.67257389996666,182.18707919993903,z,0.5112189999781549,None,182.18714029993862,182.19355609989725,182.3741779999109,181.66568320000079,,,,,,,,PH_th,001,2025-03-09_20h09.32.288,MainFlow,2024.2.4,144.17947447252251,2025-03-09 20h09.44.309625 +0700,
1,2,1,2,letter/lettth032.png,letter/lettkh032.png,81,81,0,z,0.5719752999721095,None,0,81,81,81,182.3810388999991,,,,,,,182.3810388999991,183.36731849994976,183.38088219997007,183.38088219997007,183.9575822999468,z,0.5719752999721095,None,183.95764009992126,183.96408119995613,184.144835999934,183.37395779998042,,,,,,,,PH_th,001,2025-03-09_20h09.32.288,MainFlow,2024.2.4,144.17947447252251,2025-03-09 20h09.44.309625 +0700,
1,1,2,7,letter/letten051.png,letter/lettth025.png,82,82,0,x,0.476380999898538,None,0,82,82,82,184.15160270000342,,,,,,,184.15160270000342,185.1383051999146,185.15139949996956,185.15139949996956,185.6314818999963,x,0.476380999898538,None,185.63153429992963,185.6379579999484,185.8186793999048,185.14440439990722,,,,,,,,PH_th,001,2025-03-09_20h09.32.288,MainFlow,2024.2.4,144.17947447252251,2025-03-09 20h09.44.309625 +0700,
1,3,1,4,letter/lettth024.png,letter/lettgr064.png,83,83,0,z,0.44262180000077933,None,0,83,83,83,185.82583579991478,,,,,,,185.82583579991478,186.81169539992698,186.8253327999264,186.8253327999264,187.2700504999375,z,0.44262180000077933,None,187.2701091999188,187.27650099992752,187.45723009994254,186.8183360999683,,,,,,,,PH_th,001,2025-03-09_20h09.32.288,MainFlow,2024.2.4,144.17947447252251,2025-03-09 20h09.44.309625 +0700,
1,3,2,3,letter/lettgr153.png,letter/lettth155.png,84,84,0,x,0.41910830000415444,None,0,84,84,84,187.46377929998562,,,,,,,187.46377929998562,188.45077839994337,188.46391329995822,188.46391329995822,188.8882107998943,x,0.41910830000415444,None,188.88826569996309,188.89457939995918,189.07519519992638,188.45735189993866,,,,,,,,PH_th,001,2025-03-09_20h09.32.288,MainFlow,2024.2.4,144.17947447252251,2025-03-09 20h09.44.309625 +0700,
1,1,1,6,letter/lettth024.png,letter/letten153.png,85,85,0,z,0.31120560003910214,None,0,85,85,85,189.082371699973,,,,,,,189.082371699973,190.06885399995372,190.0819129999727,190.0819129999727,190.39912449999247,z,0.31120560003910214,None,190.39917939994484,190.40586559998337,190.58625219995156,190.0749260999728,,,,,,,,PH_th,001,2025-03-09_20h09.32.288,MainFlow,2024.2.4,144.17947447252251,2025-03-09 20h09.44.309625 +0700,
1,1,2,3,letter/letten041.png,letter/lettth092.png,86,86,0,x,0.46758840000256896,None,0,86,86,86,190.5935556999175,,,,,,,190.5935556999175,191.57970749994274,191.592795799952,191.592795799952,192.06585999997333,x,0.46758840000256896,None,192.06591969996225,192.07234919990879,192.25306549994275,191.58581499999855,,,,,,,,PH_th,001,2025-03-09_20h09.32.288,MainFlow,2024.2.4,144.17947447252251,2025-03-09 20h09.44.309625 +0700,
1,2,2,1,letter/lettkh034.png,letter/lettth061.png,87,87,0,x,0.36722300003748387,None,0,87,87,87,192.26004869991448,,,,,,,192.26004869991448,193.24609339993913,193.25970629998483,193.25970629998483,193.62828129995614,x,0.36722300003748387,None,193.62833279999904,193.63462619995698,193.81529919989407,193.2527170999674,,,,,,,,PH_th,001,2025-03-09_20h09.32.288,MainFlow,2024.2.4,144.17947447252251,2025-03-09 20h09.44.309625 +0700,
1,3,1,3,letter/lettth155.png,letter/lettgr153.png,88,88,0,z,0.8501134000252932,None,0,88,88,88,193.82196410000324,,,,,,,193.82196410000324,194.80835949990433,194.82195239991415,194.82195239991415,195.67678959993646,z,0.8501134000252932,None,195.67684679990634,195.68331569992006,195.86433749995194,194.81488479999825,,,,,,,,PH_th,001,2025-03-09_20h09.32.288,MainFlow,2024.2.4,144.17947447252251,2025-03-09 20h09.44.309625 +0700,
1,2,1,3,letter/lettth112.png,letter/lettkh031.png,89,89,0,z,0.3213934999657795,None,0,89,89,89,195.87118549994193,,,,,,,195.87118549994193,196.85702799994033,196.8706680999603,196.8706680999603,197.19766710000113,z,0.3213934999657795,None,197.19772649998777,197.20417499996256,197.38486639992334,196.86368849989958,,,,,,,,PH_th,001,2025-03-09_20h09.32.288,MainFlow,2024.2.4,144.17947447252251,2025-03-09 20h09.44.309625 +0700,
1,2,2,5,letter/lettkh023.png,letter/lettth024.png,90,90,0,x,0.23873360001016408,None,0,90,90,90,197.39176509995013,,,,,,,197.39176509995013,198.3748845999362,198.38852759997826,198.38852759997826,198.63189359998796,x,0.23873360001016408,None,198.63194669992663,198.6383145999862,198.81955479993485,198.38155629998073,,,,,,,,PH_th,001,2025-03-09_20h09.32.288,MainFlow,2024.2.4,144.17947447252251,2025-03-09 20h09.44.309625 +0700,
1,1,2,4,letter/letten091.png,letter/lettth041.png,91,91,0,x,0.3004388000117615,None,0,91,91,91,198.8264346999349,,,,,,,198.8264346999349,199.81254079996143,199.8261707999045,199.8261707999045,200.1322900999803,x,0.3004388000117615,None,200.13234439992812,200.13811830000486,200.31957259995397,199.81918739993125,,,,,,,,PH_th,001,2025-03-09_20h09.32.288,MainFlow,2024.2.4,144.17947447252251,2025-03-09 20h09.44.309625 +0700,
1,2,2,3,letter/lettkh031.png,letter/lettth112.png,92,92,0,x,0.2651780000887811,None,0,92,92,92,200.32678039988969,,,,,,,200.32678039988969,201.31261829996947,201.32624569989275,201.32624569989275,201.5975790999364,x,0.2651780000887811,None,201.59765139990486,201.60390429990366,201.78461089998018,201.3192622999195,,,,,,,,PH_th,001,2025-03-09_20h09.32.288,MainFlow,2024.2.4,144.17947447252251,2025-03-09 20h09.44.309625 +0700,
1,3,1,8,letter/lettth013.png,letter/lettgr153.png,93,93,0,z,0.27060559997335076,None,0,93,93,93,201.7915811999701,,,,,,,201.7915811999701,202.77814419998322,202.7911891998956,202.7911891998956,203.06297339999583,z,0.27060559997335076,None,203.06303520000074,203.06937579996884,203.25019629998133,202.78421379998326,,,,,,,,PH_th,001,2025-03-09_20h09.32.288,MainFlow,2024.2.4,144.17947447252251,2025-03-09 20h09.44.309625 +0700,
1,1,1,2,letter/lettth061.png,letter/letten062.png,94,94,0,z,0.40982229996006936,None,0,94,94,94,203.2574644999113,,,,,,,203.2574644999113,204.2432104999898,204.25676919997204,204.25676919997204,204.66736939991824,z,0.40982229996006936,None,204.66743279993534,204.67344369995408,204.85426839999855,204.24975279998034,,,,,,,,PH_th,001,2025-03-09_20h09.32.288,MainFlow,2024.2.4,144.17947447252251,2025-03-09 20h09.44.309625 +0700,
1,3,2,3,letter/lettgr153.png,letter/lettth155.png,95,95,0,x,0.1072294000769034,None,0,95,95,95,204.87630739994347,,,,,,,204.87630739994347,205.86302339995746,205.86913199990522,205.86913199990522,205.98088799999095,x,0.1072294000769034,None,205.98094799998216,205.9873171999352,206.16795929998625,205.86913199990522,,,,,,,,PH_th,001,2025-03-09_20h09.32.288,MainFlow,2024.2.4,144.17947447252251,2025-03-09 20h09.44.309625 +0700,
,,,,,,,,,,,,,,,,,,,,,,,,,,,,,,,,,,,206.16804189991672,206.17469359992538,206.17469359992538,213.3837329999078,space,7.205735799972899,None,PH_th,001,2025-03-09_20h09.32.288,MainFlow,2024.2.4,144.17947447252251,2025-03-09 20h09.44.309625 +0700,
