lang,langpair,sequence,pairid,firstdir,seconddir,thisN,thisTrialN,thisRepN,key_resp.keys,key_resp.rt,key_resp.duration,trials.thisRepN,trials.thisTrialN,trials.thisN,trials.thisIndex,thisRow.t,notes,tutorial.started,tutorial.stopped,key_instruct.keys,key_instruct.rt,key_instruct.duration,image_first.started,letterselect.started,instruct.started,key_resp.started,letterselect.stopped,trials.key_resp.keys,trials.key_resp.rt,trials.key_resp.duration,blanknext.started,instruct_2.started,blanknext.stopped,image_first.stopped,ending.started,text_3.started,ending_key.started,ending.stopped,ending_key.keys,ending_key.rt,ending_key.duration,participant,session,date,expName,psychopyVersion,frameRate,expStart,
,,,,,,,,,,,,,,,,,,0.0058824000880122185,1.553323700092733,space,1.510577299981378,None,,,,,,,,,,,,,,,,,,,,PM_th,001,2025-03-07_11h26.56.743,MainFlow,2024.2.4,134.81122388100928,2025-03-07 11h27.12.400751 +0700,
1,1,2,1,letter/letten092.png,letter/lettth022.png,0,0,0,z,0.23173290002159774,None,0,0,0,0,1.6008654000470415,,,,,,,1.6008654000470415,2.5650061999913305,2.569368500029668,2.569368500029668,2.807959800004028,z,0.23173290002159774,None,2.810831499984488,2.8151709000812843,2.9958275000099093,,,,,,,,,PM_th,001,2025-03-07_11h26.56.743,MainFlow,2024.2.4,134.81122388100928,2025-03-07 11h27.12.400751 +0700,
1,3,2,8,letter/lettgr153.png,letter/lettth013.png,1,1,0,x,0.735528799938038,None,0,1,1,1,3.0041865000966936,,,,,,,3.0041865000966936,3.9883864000439644,4.002315300051123,4.002315300051123,4.73953000002075,x,0.735528799938038,None,4.739590400015004,4.744474700069986,4.9257670000661165,3.995503699989058,,,,,,,,PM_th,001,2025-03-07_11h26.56.743,MainFlow,2024.2.4,134.81122388100928,2025-03-07 11h27.12.400751 +0700,
1,1,2,1,letter/letten092.png,letter/lettth022.png,2,2,0,z,0.3994364000391215,None,0,2,2,2,4.933940300019458,,,,,,,4.933940300019458,5.919416900025681,5.932280500070192,5.932280500070192,6.336041600094177,z,0.3994364000391215,None,6.3361444000620395,6.341924200067297,6.523593300022185,5.925779900047928,,,,,,,,PM_th,001,2025-03-07_11h26.56.743,MainFlow,2024.2.4,134.81122388100928,2025-03-07 11h27.12.400751 +0700,
1,2,2,4,letter/lettkh034.png,letter/lettth153.png,3,3,0,x,1.5393690000055358,None,0,3,3,3,6.534879800048657,,,,,,,6.534879800048657,7.523539900081232,7.52989120001439,7.52989120001439,9.072049500071444,x,1.5393690000055358,None,9.07212630007416,9.07876549998764,9.25904520007316,7.52989120001439,,,,,,,,PM_th,001,2025-03-07_11h26.56.743,MainFlow,2024.2.4,134.81122388100928,2025-03-07 11h27.12.400751 +0700,
1,2,2,4,letter/lettkh034.png,letter/lettth153.png,4,4,0,x,0.7565624000271782,None,0,4,4,4,9.26863140007481,,,,,,,9.26863140007481,10.252101500052959,10.266339000081643,10.266339000081643,11.023823900031857,x,0.7565624000271782,None,11.023916800040752,11.029009200050496,11.210402199998498,10.259395100059919,,,,,,,,PM_th,001,2025-03-07_11h26.56.743,MainFlow,2024.2.4,134.81122388100928,2025-03-07 11h27.12.400751 +0700,
1,2,1,7,letter/lettth072.png,letter/lettkh033.png,5,5,0,z,0.5520705999806523,None,0,5,5,5,11.219741300097667,,,,,,,11.219741300097667,12.203542200033553,12.217146400013007,12.217146400013007,12.773817600100301,z,0.5520705999806523,None,12.773917500046082,12.778972700005397,12.960886600078084,12.210149400052615,,,,,,,,PM_th,001,2025-03-07_11h26.56.743,MainFlow,2024.2.4,134.81122388100928,2025-03-07 11h27.12.400751 +0700,
1,2,1,2,letter/lettth032.png,letter/lettkh032.png,6,6,0,z,0.6059400000376627,None,0,6,6,6,12.970731600071304,,,,,,,12.970731600071304,13.953591800061986,13.967099700006656,13.967099700006656,14.578593200072646,z,0.6059400000376627,None,14.57868540007621,14.584700900013559,14.76604610006325,13.960251400014386,,,,,,,,PM_th,001,2025-03-07_11h26.56.743,MainFlow,2024.2.4,134.81122388100928,2025-03-07 11h27.12.400751 +0700,
1,3,1,4,letter/lettth024.png,letter/lettgr064.png,7,7,0,z,0.42402959999162704,None,0,7,7,7,14.77652690000832,,,,,,,14.77652690000832,15.76618540007621,15.772579899989069,15.772579899989069,16.19766930001788,z,0.42402959999162704,None,16.197747600032017,16.20254150009714,16.383893700083718,15.772579899989069,,,,,,,,PM_th,001,2025-03-07_11h26.56.743,MainFlow,2024.2.4,134.81122388100928,2025-03-07 11h27.12.400751 +0700,
1,2,1,5,letter/lettth024.png,letter/lettkh023.png,8,8,0,z,0.5198286999948323,None,0,8,8,8,16.392597700003535,,,,,,,16.392597700003535,17.37738270009868,17.390374100068584,17.390374100068584,17.91263220005203,z,0.5198286999948323,None,17.91272060002666,17.91782199998852,18.099091400043108,17.383439099998213,,,,,,,,PM_th,001,2025-03-07_11h26.56.743,MainFlow,2024.2.4,134.81122388100928,2025-03-07 11h27.12.400751 +0700,
1,1,2,5,letter/letten041.png,letter/lettth152.png,9,9,0,x,0.40752989996690303,None,0,9,9,9,18.10782180004753,,,,,,,18.10782180004753,19.092476000078022,19.10594200005289,19.10594200005289,19.516001700074412,x,0.40752989996690303,None,19.516078300075606,19.522282700054348,19.703740100027062,19.098952100030147,,,,,,,,PM_th,001,2025-03-07_11h26.56.743,MainFlow,2024.2.4,134.81122388100928,2025-03-07 11h27.12.400751 +0700,
1,2,2,6,letter/lettkh033.png,letter/lettth161.png,10,10,0,x,0.4811067000264302,None,0,10,10,10,19.71571350004524,,,,,,,19.71571350004524,20.70365020004101,20.710036000004038,20.710036000004038,21.19747290003579,x,0.4811067000264302,None,21.197617100086063,21.202459100051783,21.38399380003102,20.710036000004038,,,,,,,,PM_th,001,2025-03-07_11h26.56.743,MainFlow,2024.2.4,134.81122388100928,2025-03-07 11h27.12.400751 +0700,
1,3,2,7,letter/lettgr072.png,letter/lettth025.png,11,11,0,x,0.3943696999922395,None,0,11,11,11,21.39431870006956,,,,,,,21.39431870006956,22.383797600050457,22.390340400044806,22.390340400044806,22.786884700064547,x,0.3943696999922395,None,22.78696649998892,22.79261410003528,22.97403560008388,22.390340400044806,,,,,,,,PM_th,001,2025-03-07_11h26.56.743,MainFlow,2024.2.4,134.81122388100928,2025-03-07 11h27.12.400751 +0700,
1,1,2,2,letter/letten062.png,letter/lettth061.png,12,12,0,x,0.32787119993008673,None,0,12,12,12,22.98231630004011,,,,,,,22.98231630004011,23.967103900038637,23.980915300082415,23.980915300082415,24.314687800011598,x,0.32787119993008673,None,24.314771400066093,24.32085260003805,24.502064700005576,23.97365619998891,,,,,,,,PM_th,001,2025-03-07_11h26.56.743,MainFlow,2024.2.4,134.81122388100928,2025-03-07 11h27.12.400751 +0700,
1,2,2,8,letter/lettkh031.png,letter/lettth153.png,13,13,0,x,0.3385858000256121,None,0,13,13,13,24.512834200053476,,,,,,,24.512834200053476,25.502013700082898,25.50839120009914,25.50839120009914,25.849270700011402,x,0.3385858000256121,None,25.849349300027825,25.855362300062552,26.036631800001487,25.50839120009914,,,,,,,,PM_th,001,2025-03-07_11h26.56.743,MainFlow,2024.2.4,134.81122388100928,2025-03-07 11h27.12.400751 +0700,
1,2,2,2,letter/lettkh032.png,letter/lettth032.png,14,14,0,x,0.3868597000837326,None,0,14,14,14,26.047872600029223,,,,,,,26.047872600029223,27.03659360005986,27.043193700024858,27.043193700024858,27.43304390006233,x,0.3868597000837326,None,27.433151800069027,27.43890030006878,27.619947600062005,27.043193700024858,,,,,,,,PM_th,001,2025-03-07_11h26.56.743,MainFlow,2024.2.4,134.81122388100928,2025-03-07 11h27.12.400751 +0700,
1,3,2,1,letter/lettgr143.png,letter/lettth132.png,15,15,0,x,0.39275849994737655,None,0,15,15,15,27.631224500015378,,,,,,,27.631224500015378,28.620099500054494,28.626409800024703,28.626409800024703,29.02307890006341,x,0.39275849994737655,None,29.02318430005107,29.029133500065655,29.209960600011982,28.626409800024703,,,,,,,,PM_th,001,2025-03-07_11h26.56.743,MainFlow,2024.2.4,134.81122388100928,2025-03-07 11h27.12.400751 +0700,
1,3,2,6,letter/lettgr061.png,letter/lettth082.png,16,16,0,x,0.5747176000149921,None,0,16,16,16,29.217703700065613,,,,,,,29.217703700065613,30.20308170001954,30.2167053000303,30.2167053000303,30.793462600093335,x,0.5747176000149921,None,30.793555499985814,30.799697300069965,30.98136760003399,30.209594800020568,,,,,,,,PM_th,001,2025-03-07_11h26.56.743,MainFlow,2024.2.4,134.81122388100928,2025-03-07 11h27.12.400751 +0700,
1,2,2,6,letter/lettkh033.png,letter/lettth161.png,17,17,0,x,0.43815910001285374,None,0,17,17,17,30.989541199989617,,,,,,,30.989541199989617,31.974048800067976,31.987083800020628,31.987083800020628,32.43234699999448,x,0.43815910001285374,None,32.43242970004212,32.43897200003266,32.62057160004042,31.980068700038828,,,,,,,,PM_th,001,2025-03-07_11h26.56.743,MainFlow,2024.2.4,134.81122388100928,2025-03-07 11h27.12.400751 +0700,
1,3,1,3,letter/lettth155.png,letter/lettgr153.png,18,18,0,z,0.25217959994915873,None,0,18,18,18,32.63092410005629,,,,,,,32.63092410005629,33.619695300003514,33.626277600065805,33.626277600065805,33.88404730008915,z,0.25217959994915873,None,33.88413230003789,33.890049000037834,34.071225200081244,33.626277600065805,,,,,,,,PM_th,001,2025-03-07_11h26.56.743,MainFlow,2024.2.4,134.81122388100928,2025-03-07 11h27.12.400751 +0700,
1,3,2,1,letter/lettgr143.png,letter/lettth132.png,19,19,0,x,0.2048553000204265,None,0,19,19,19,34.0806494000135,,,,,,,34.0806494000135,35.064214600017294,35.07768910005689,35.07768910005689,35.28700600005686,x,0.2048553000204265,None,35.287146100075915,35.29281610006001,35.474190999986604,35.070668400032446,,,,,,,,PM_th,001,2025-03-07_11h26.56.743,MainFlow,2024.2.4,134.81122388100928,2025-03-07 11h27.12.400751 +0700,
1,3,1,1,letter/lettth132.png,letter/lettgr143.png,20,20,0,z,0.22088350006379187,None,0,20,20,20,35.48334810009692,,,,,,,35.48334810009692,36.46688180009369,36.480328700039536,36.480328700039536,36.70358239999041,z,0.22088350006379187,None,36.70369870006107,36.70941370003857,36.890604700078256,36.47341590002179,,,,,,,,PM_th,001,2025-03-07_11h26.56.743,MainFlow,2024.2.4,134.81122388100928,2025-03-07 11h27.12.400751 +0700,
1,1,2,8,letter/letten031.png,letter/lettth161.png,21,21,0,x,0.22697730001527816,None,0,21,21,21,36.901424600044265,,,,,,,36.901424600044265,37.89063979999628,37.89705190004315,37.89705190004315,38.12664140004199,x,0.22697730001527816,None,38.12671480001882,38.13281800004188,38.31443280004896,37.89705190004315,,,,,,,,PM_th,001,2025-03-07_11h26.56.743,MainFlow,2024.2.4,134.81122388100928,2025-03-07 11h27.12.400751 +0700,
1,1,1,5,letter/lettth152.png,letter/letten041.png,22,22,0,z,0.2575197999831289,None,0,22,22,22,38.324476700043306,,,,,,,38.324476700043306,39.30731800000649,39.32095910003409,39.32095910003409,39.58561639999971,z,0.2575197999831289,None,39.585815600003116,39.59126000001561,39.772050100029446,39.3141150000738,,,,,,,,PM_th,001,2025-03-07_11h26.56.743,MainFlow,2024.2.4,134.81122388100928,2025-03-07 11h27.12.400751 +0700,
1,1,2,6,letter/letten153.png,letter/lettth024.png,23,23,0,x,0.2877903999760747,None,0,23,23,23,39.782441599993035,,,,,,,39.782441599993035,40.765383500023745,40.778738200082444,40.778738200082444,41.07101370010059,x,0.2877903999760747,None,41.0710869000759,41.07724740006961,41.2582490000641,40.77198180009145,,,,,,,,PM_th,001,2025-03-07_11h26.56.743,MainFlow,2024.2.4,134.81122388100928,2025-03-07 11h27.12.400751 +0700,
1,1,1,8,letter/lettth161.png,letter/letten031.png,24,24,0,z,0.2856428000377491,None,0,24,24,24,41.266857300070114,,,,,,,41.266857300070114,42.25142770004459,42.26462010003161,42.26462010003161,42.55743440007791,z,0.2856428000377491,None,42.55752820009366,42.563115900033154,42.74430030002259,42.25805450009648,,,,,,,,PM_th,001,2025-03-07_11h26.56.743,MainFlow,2024.2.4,134.81122388100928,2025-03-07 11h27.12.400751 +0700,
1,3,1,1,letter/lettth132.png,letter/lettgr143.png,25,25,0,z,0.23918969999067485,None,0,25,25,25,42.752545100054704,,,,,,,42.752545100054704,43.73795030009933,43.750872100004926,43.750872100004926,43.99468580004759,z,0.23918969999067485,None,43.99476150004193,44.000847900053486,44.18182490009349,43.743892800062895,,,,,,,,PM_th,001,2025-03-07_11h26.56.743,MainFlow,2024.2.4,134.81122388100928,2025-03-07 11h27.12.400751 +0700,
1,3,2,4,letter/lettgr064.png,letter/lettth024.png,26,26,0,x,0.32344079995527864,None,0,26,26,26,44.192434500087984,,,,,,,44.192434500087984,45.1816691000713,45.18825500004459,45.18825500004459,45.51550490001682,x,0.32344079995527864,None,45.51557100005448,45.52173170004971,45.7027980000712,45.18825500004459,,,,,,,,PM_th,001,2025-03-07_11h26.56.743,MainFlow,2024.2.4,134.81122388100928,2025-03-07 11h27.12.400751 +0700,
1,2,1,6,letter/lettth161.png,letter/lettkh033.png,27,27,0,z,0.3176390000153333,None,0,27,27,27,45.71156600001268,,,,,,,45.71156600001268,46.69534550001845,46.70919100008905,46.70919100008905,47.029506699997,z,0.3176390000153333,None,47.0295797000872,47.03555120003875,47.216667300090194,46.70224590005819,,,,,,,,PM_th,001,2025-03-07_11h26.56.743,MainFlow,2024.2.4,134.81122388100928,2025-03-07 11h27.12.400751 +0700,
1,2,1,1,letter/lettth061.png,letter/lettkh034.png,28,28,0,z,0.25115919997915626,None,0,28,28,28,47.22821130009834,,,,,,,47.22821130009834,48.217552500078455,48.223018800024875,48.223018800024875,48.48114660009742,z,0.25115919997915626,None,48.48122310009785,48.486510100075975,48.66817640000954,48.223018800024875,,,,,,,,PM_th,001,2025-03-07_11h26.56.743,MainFlow,2024.2.4,134.81122388100928,2025-03-07 11h27.12.400751 +0700,
1,1,2,7,letter/letten051.png,letter/lettth025.png,29,29,0,x,0.17332030006218702,None,0,29,29,29,48.677653199993074,,,,,,,48.677653199993074,49.66124660009518,49.67488810000941,49.67488810000941,49.849289200035855,x,0.17332030006218702,None,49.849408700014465,49.855008300044574,50.03597249998711,49.66767400002573,,,,,,,,PM_th,001,2025-03-07_11h26.56.743,MainFlow,2024.2.4,134.81122388100928,2025-03-07 11h27.12.400751 +0700,
1,2,2,7,letter/lettkh033.png,letter/lettth072.png,30,30,0,x,0.23442410002462566,None,0,30,30,30,50.0458062000107,,,,,,,50.0458062000107,51.02901679999195,51.04237020004075,51.04237020004075,51.27939909999259,x,0.23442410002462566,None,51.27949390001595,51.285487100016326,51.46638880006503,51.03549929999281,,,,,,,,PM_th,001,2025-03-07_11h26.56.743,MainFlow,2024.2.4,134.81122388100928,2025-03-07 11h27.12.400751 +0700,
1,2,1,8,letter/lettth153.png,letter/lettkh031.png,31,31,0,z,0.18654649995733052,None,0,31,31,31,51.47652350005228,,,,,,,51.47652350005228,52.459777600015514,52.473108000005595,52.473108000005595,52.66145850007888,z,0.18654649995733052,None,52.661529700038955,52.667372000054456,52.84832620003726,52.466182600008324,,,,,,,,PM_th,001,2025-03-07_11h26.56.743,MainFlow,2024.2.4,134.81122388100928,2025-03-07 11h27.12.400751 +0700,
1,1,1,2,letter/lettth061.png,letter/letten062.png,32,32,0,z,0.18010670004878193,None,0,32,32,32,52.85827790002804,,,,,,,52.85827790002804,53.843420100049116,53.85503560001962,53.85503560001962,54.03633090003859,z,0.18010670004878193,None,54.03640870004892,54.042227800004184,54.22303460002877,53.84755030006636,,,,,,,,PM_th,001,2025-03-07_11h26.56.743,MainFlow,2024.2.4,134.81122388100928,2025-03-07 11h27.12.400751 +0700,
1,3,1,7,letter/lettth025.png,letter/lettgr072.png,33,33,0,z,0.1983187000732869,None,0,33,33,33,54.23480400000699,,,,,,,54.23480400000699,55.22358830005396,55.229594900039956,55.229594900039956,55.4316867000889,z,0.1983187000732869,None,55.4317744000582,55.43794660002459,55.61983069998678,55.229594900039956,,,,,,,,PM_th,001,2025-03-07_11h26.56.743,MainFlow,2024.2.4,134.81122388100928,2025-03-07 11h27.12.400751 +0700,
1,1,1,3,letter/lettth092.png,letter/letten041.png,34,34,0,z,0.21506019996013492,None,0,34,34,34,55.62926349998452,,,,,,,55.62926349998452,56.612347200047225,56.625824699993245,56.625824699993245,56.84189969999716,z,0.21506019996013492,None,56.84197250008583,56.848285200074315,57.02889359998517,56.61882820003666,,,,,,,,PM_th,001,2025-03-07_11h26.56.743,MainFlow,2024.2.4,134.81122388100928,2025-03-07 11h27.12.400751 +0700,
1,3,1,5,letter/lettth052.png,letter/lettgr141.png,35,35,0,z,0.16858339996542782,None,0,35,35,35,57.0379099000711,,,,,,,57.0379099000711,58.02176730008796,58.03575720009394,58.03575720009394,58.2099999000784,z,0.16858339996542782,None,58.2100995000219,58.21583580004517,58.39685930009,58.02840210008435,,,,,,,,PM_th,001,2025-03-07_11h26.56.743,MainFlow,2024.2.4,134.81122388100928,2025-03-07 11h27.12.400751 +0700,
1,1,1,6,letter/lettth024.png,letter/letten153.png,36,36,0,z,0.1453401999315247,None,0,36,36,36,58.405252500087954,,,,,,,58.405252500087954,59.39017880009487,59.40364590007812,59.40364590007812,59.55040360009298,z,0.1453401999315247,None,59.55049010005314,59.55574380001053,59.73723850003444,59.396657600067556,,,,,,,,PM_th,001,2025-03-07_11h26.56.743,MainFlow,2024.2.4,134.81122388100928,2025-03-07 11h27.12.400751 +0700,
1,1,1,3,letter/lettth092.png,letter/letten041.png,37,37,0,z,0.16294189996551722,None,0,37,37,37,59.746611100039445,,,,,,,59.746611100039445,60.73025520006195,60.74406550009735,60.74406550009735,60.911193200037815,z,0.16294189996551722,None,60.911280300002545,60.917222600081004,61.09819699998479,60.73677250009496,,,,,,,,PM_th,001,2025-03-07_11h26.56.743,MainFlow,2024.2.4,134.81122388100928,2025-03-07 11h27.12.400751 +0700,
1,1,1,7,letter/lettth025.png,letter/letten051.png,38,38,0,z,0.17564710008446127,None,0,38,38,38,61.10799560009036,,,,,,,61.10799560009036,62.09130930004176,62.10468850005418,62.10468850005418,62.28592200006824,z,0.17564710008446127,None,62.285996700054966,62.29208970000036,62.47341050009709,62.09765920008067,,,,,,,,PM_th,001,2025-03-07_11h26.56.743,MainFlow,2024.2.4,134.81122388100928,2025-03-07 11h27.12.400751 +0700,
1,3,1,6,letter/lettth082.png,letter/lettgr061.png,39,39,0,z,0.20966129994485527,None,0,39,39,39,62.484098999993876,,,,,,,62.484098999993876,63.473206100054085,63.47938909998629,63.47938909998629,63.69554099999368,z,0.20966129994485527,None,63.69562560005579,63.701690800022334,63.88251560006756,63.47938909998629,,,,,,,,PM_th,001,2025-03-07_11h26.56.743,MainFlow,2024.2.4,134.81122388100928,2025-03-07 11h27.12.400751 +0700,
1,2,1,4,letter/lettth153.png,letter/lettkh034.png,40,40,0,z,0.14925430004950613,None,0,40,40,40,63.890680200071074,,,,,,,63.890680200071074,64.87630850006826,64.88925200002268,64.88925200002268,65.04305590002332,z,0.14925430004950613,None,65.04314990004059,65.04854019999038,65.23096150008496,64.8823124000337,,,,,,,,PM_th,001,2025-03-07_11h26.56.743,MainFlow,2024.2.4,134.81122388100928,2025-03-07 11h27.12.400751 +0700,
1,3,2,8,letter/lettgr153.png,letter/lettth013.png,41,41,0,x,0.24011569994036108,None,0,41,41,41,65.23962310003117,,,,,,,65.23962310003117,66.22291750006843,66.23663530009799,66.23663530009799,66.48054670006968,x,0.24011569994036108,None,66.48062560008839,66.48647210001945,66.66744680004194,66.2296398000326,,,,,,,,PM_th,001,2025-03-07_11h26.56.743,MainFlow,2024.2.4,134.81122388100928,2025-03-07 11h27.12.400751 +0700,
1,1,1,4,letter/lettth041.png,letter/letten091.png,42,42,0,z,0.20589650003239512,None,0,42,42,42,66.67781610006932,,,,,,,66.67781610006932,67.66755440004636,67.67402740009129,67.67402740009129,67.88333660003264,z,0.20589650003239512,None,67.88340200006496,67.88917300000321,68.06969510007184,67.67402740009129,,,,,,,,PM_th,001,2025-03-07_11h26.56.743,MainFlow,2024.2.4,134.81122388100928,2025-03-07 11h27.12.400751 +0700,
1,3,1,8,letter/lettth013.png,letter/lettgr153.png,43,43,0,z,0.22598960006143898,None,0,43,43,43,68.07981620007195,,,,,,,68.07981620007195,69.06354960007593,69.07697170006577,69.07697170006577,69.3069845000282,z,0.22598960006143898,None,69.30711840000004,69.312396000023,69.49407740007155,69.06988600001205,,,,,,,,PM_th,001,2025-03-07_11h26.56.743,MainFlow,2024.2.4,134.81122388100928,2025-03-07 11h27.12.400751 +0700,
1,2,1,3,letter/lettth112.png,letter/lettkh031.png,44,44,0,z,0.2171012000180781,None,0,44,44,44,69.50439520005602,,,,,,,69.50439520005602,70.49401740008034,70.50040980009362,70.50040980009362,70.72310120007023,z,0.2171012000180781,None,70.72317860007752,70.72929060005117,70.91058770008385,70.50040980009362,,,,,,,,PM_th,001,2025-03-07_11h26.56.743,MainFlow,2024.2.4,134.81122388100928,2025-03-07 11h27.12.400751 +0700,
1,1,2,2,letter/letten062.png,letter/lettth061.png,45,45,0,x,0.20793739997316152,None,0,45,45,45,70.91978310002014,,,,,,,70.91978310002014,71.90376980009023,71.91713710001204,71.91713710001204,72.12643840000965,x,0.20793739997316152,None,72.12651630002074,72.13177310000174,72.31340990005992,71.91020110005047,,,,,,,,PM_th,001,2025-03-07_11h26.56.743,MainFlow,2024.2.4,134.81122388100928,2025-03-07 11h27.12.400751 +0700,
1,3,1,7,letter/lettth025.png,letter/lettgr072.png,46,46,0,z,0.09498579998034984,None,0,46,46,46,72.32265159999952,,,,,,,72.32265159999952,73.30642490007449,73.31985670002177,73.31985670002177,73.41800220008008,z,0.09498579998034984,None,73.41810680006165,73.42385900008958,73.60500630002934,73.31285700004082,,,,,,,,PM_th,001,2025-03-07_11h26.56.743,MainFlow,2024.2.4,134.81122388100928,2025-03-07 11h27.12.400751 +0700,
1,1,1,7,letter/lettth025.png,letter/letten051.png,47,47,0,z,0.2111367000034079,None,0,47,47,47,73.61456160002854,,,,,,,73.61456160002854,74.59790729999077,74.611349600018,74.611349600018,74.82744040002581,z,0.2111367000034079,None,74.82752080005594,74.8335011000745,75.01451190002263,74.6044222000055,,,,,,,,PM_th,001,2025-03-07_11h26.56.743,MainFlow,2024.2.4,134.81122388100928,2025-03-07 11h27.12.400751 +0700,
1,2,2,5,letter/lettkh023.png,letter/lettth024.png,48,48,0,x,0.18486030003987253,None,0,48,48,48,75.02362069999799,,,,,,,75.02362069999799,76.00776519998908,76.02120509999804,76.02120509999804,76.20931559999008,x,0.18486030003987253,None,76.20939760003239,76.2154104000656,76.39630420005415,76.0142129000742,,,,,,,,PM_th,001,2025-03-07_11h26.56.743,MainFlow,2024.2.4,134.81122388100928,2025-03-07 11h27.12.400751 +0700,
1,2,1,5,letter/lettth024.png,letter/lettkh023.png,49,49,0,z,0.18714699998963624,None,0,49,49,49,76.40512390004005,,,,,,,76.40512390004005,77.38954350003041,77.40286410006229,77.40286410006229,77.59124620002694,z,0.18714699998963624,None,77.59132460004184,77.59726670000236,77.7782457000576,77.39609689998906,,,,,,,,PM_th,001,2025-03-07_11h26.56.743,MainFlow,2024.2.4,134.81122388100928,2025-03-07 11h27.12.400751 +0700,
1,3,2,5,letter/lettgr141.png,letter/lettth052.png,50,50,0,x,0.12529869994614273,None,0,50,50,50,77.7888232000405,,,,,,,77.7888232000405,78.7781647000229,78.78456290008035,78.78456290008035,78.91082940006163,x,0.12529869994614273,None,78.91093440004624,78.91674310003873,79.09783260000404,78.78456290008035,,,,,,,,PM_th,001,2025-03-07_11h26.56.743,MainFlow,2024.2.4,134.81122388100928,2025-03-07 11h27.12.400751 +0700,
1,2,2,8,letter/lettkh031.png,letter/lettth153.png,51,51,0,x,0.19225820002611727,None,0,51,51,51,79.10636610002257,,,,,,,79.10636610002257,80.09072440001182,80.10452960000839,80.10452960000839,80.29927790001966,x,0.19225820002611727,None,80.29933950002305,80.30548730003648,80.48705260001589,80.09738910000306,,,,,,,,PM_th,001,2025-03-07_11h26.56.743,MainFlow,2024.2.4,134.81122388100928,2025-03-07 11h27.12.400751 +0700,
1,1,2,5,letter/letten041.png,letter/lettth152.png,52,52,0,x,0.20342550007626414,None,0,52,52,52,80.49495710001793,,,,,,,80.49495710001793,81.47984390007332,81.49288020003587,81.49288020003587,81.70287550007924,x,0.20342550007626414,None,81.70295479998458,81.70796660007909,81.8898253000807,81.48589160002302,,,,,,,,PM_th,001,2025-03-07_11h26.56.743,MainFlow,2024.2.4,134.81122388100928,2025-03-07 11h27.12.400751 +0700,
1,1,1,1,letter/lettth022.png,letter/letten092.png,53,53,0,z,0.17323519999627024,None,0,53,53,53,81.89990180009045,,,,,,,81.89990180009045,82.88982490007766,82.89628410001751,82.89628410001751,83.07086340000387,z,0.17323519999627024,None,83.07093839999288,83.07641740003601,83.25747280009091,82.89628410001751,,,,,,,,PM_th,001,2025-03-07_11h26.56.743,MainFlow,2024.2.4,134.81122388100928,2025-03-07 11h27.12.400751 +0700,
1,2,1,1,letter/lettth061.png,letter/lettkh034.png,54,54,0,z,0.28906300000380725,None,0,54,54,54,83.267495600041,,,,,,,83.267495600041,84.25043070001993,84.2639102000976,84.2639102000976,84.55632199998945,z,0.28906300000380725,None,84.55643320002127,84.56245110009331,84.74359219998587,84.25691400002688,,,,,,,,PM_th,001,2025-03-07_11h26.56.743,MainFlow,2024.2.4,134.81122388100928,2025-03-07 11h27.12.400751 +0700,
1,3,2,4,letter/lettgr064.png,letter/lettth024.png,55,55,0,x,0.1980231999186799,None,0,55,55,55,84.75484850001521,,,,,,,84.75484850001521,85.74340530007612,85.74985740007833,85.74985740007833,85.9521530000493,x,0.1980231999186799,None,85.9522399000125,85.95823310001288,86.13918530009687,85.74985740007833,,,,,,,,PM_th,001,2025-03-07_11h26.56.743,MainFlow,2024.2.4,134.81122388100928,2025-03-07 11h27.12.400751 +0700,
1,3,1,5,letter/lettth052.png,letter/lettgr141.png,56,56,0,z,0.1750560998916626,None,0,56,56,56,86.14823709998745,,,,,,,86.14823709998745,87.1321137000341,87.14574410009664,87.14574410009664,87.32687570003327,z,0.1750560998916626,None,87.3269706000574,87.33303540002089,87.51412060006987,87.13872120005544,,,,,,,,PM_th,001,2025-03-07_11h26.56.743,MainFlow,2024.2.4,134.81122388100928,2025-03-07 11h27.12.400751 +0700,
1,1,1,8,letter/lettth161.png,letter/letten031.png,57,57,0,z,0.19527819997165352,None,0,57,57,57,87.52262260008138,,,,,,,87.52262260008138,88.50737120001577,88.52088870003354,88.52088870003354,88.72314820007887,z,0.19527819997165352,None,88.72322400007397,88.72909160004929,88.91040560009424,88.51387900009286,,,,,,,,PM_th,001,2025-03-07_11h26.56.743,MainFlow,2024.2.4,134.81122388100928,2025-03-07 11h27.12.400751 +0700,
1,1,1,4,letter/lettth041.png,letter/letten091.png,58,58,0,z,0.15607460006140172,None,0,58,58,58,88.9203682000516,,,,,,,88.9203682000516,89.9032881000312,89.91685949999373,89.91685949999373,90.07690210000146,z,0.15607460006140172,None,90.07697679998819,90.08391849999316,90.26411390001886,89.90974380006082,,,,,,,,PM_th,001,2025-03-07_11h26.56.743,MainFlow,2024.2.4,134.81122388100928,2025-03-07 11h27.12.400751 +0700,
1,2,1,4,letter/lettth153.png,letter/lettkh034.png,59,59,0,z,0.5555081999627873,None,0,59,59,59,90.27324960008264,,,,,,,90.27324960008264,91.25785610009916,91.27050550002605,91.27050550002605,91.82727400003932,z,0.5555081999627873,None,91.82734260009602,91.83312110009138,92.01412070007063,91.26362890005112,,,,,,,,PM_th,001,2025-03-07_11h26.56.743,MainFlow,2024.2.4,134.81122388100928,2025-03-07 11h27.12.400751 +0700,
1,1,2,3,letter/letten041.png,letter/lettth092.png,60,60,0,x,0.22332620003726333,None,0,60,60,60,92.02311469998676,,,,,,,92.02311469998676,93.00719999999274,93.02058800007217,93.02058800007217,93.2506528000813,x,0.22332620003726333,None,93.25073640001938,93.25622199999634,93.43773070001043,93.01364410005044,,,,,,,,PM_th,001,2025-03-07_11h26.56.743,MainFlow,2024.2.4,134.81122388100928,2025-03-07 11h27.12.400751 +0700,
1,3,2,2,letter/lettgr072.png,letter/lettth052.png,61,61,0,x,0.22889009991195053,None,0,61,61,61,93.44590689998586,,,,,,,93.44590689998586,94.43087550008204,94.44398270000238,94.44398270000238,94.6740320000099,x,0.22889009991195053,None,94.67412390001118,94.68010080000386,94.86143120005727,94.43764410004951,,,,,,,,PM_th,001,2025-03-07_11h26.56.743,MainFlow,2024.2.4,134.81122388100928,2025-03-07 11h27.12.400751 +0700,
1,1,2,8,letter/letten031.png,letter/lettth161.png,62,62,0,x,0.1357041000155732,None,0,62,62,62,94.8697326000547,,,,,,,94.8697326000547,95.85453220002819,95.8682262999937,95.8682262999937,96.00807370000985,x,0.1357041000155732,None,96.00815860007424,96.01309600006789,96.19525730004534,95.86117010004818,,,,,,,,PM_th,001,2025-03-07_11h26.56.743,MainFlow,2024.2.4,134.81122388100928,2025-03-07 11h27.12.400751 +0700,
1,1,1,5,letter/lettth152.png,letter/letten041.png,63,63,0,z,0.21915360004641116,None,0,63,63,63,96.20554200001061,,,,,,,96.20554200001061,97.19447170000058,97.2009049000917,97.2009049000917,97.42416030005552,z,0.21915360004641116,None,97.42424459999893,97.43019250000361,97.61111669999082,97.2009049000917,,,,,,,,PM_th,001,2025-03-07_11h26.56.743,MainFlow,2024.2.4,134.81122388100928,2025-03-07 11h27.12.400751 +0700,
1,2,2,2,letter/lettkh032.png,letter/lettth032.png,64,64,0,x,0.17128859995864332,None,0,64,64,64,97.62078670004848,,,,,,,97.62078670004848,98.60426839999855,98.61758240009658,98.61758240009658,98.79249750007875,x,0.17128859995864332,None,98.79260170005728,98.79834740003571,98.9793397000758,98.61064000008628,,,,,,,,PM_th,001,2025-03-07_11h26.56.743,MainFlow,2024.2.4,134.81122388100928,2025-03-07 11h27.12.400751 +0700,
1,3,1,2,letter/lettth052.png,letter/lettgr072.png,65,65,0,z,0.17169200000353158,None,0,65,65,65,98.99059240007773,,,,,,,98.99059240007773,99.97948209999595,99.98588130006101,99.98588130006101,100.1602176000597,z,0.17169200000353158,None,100.16030900005717,100.16631470003631,100.3472162000835,99.98588130006101,,,,,,,,PM_th,001,2025-03-07_11h26.56.743,MainFlow,2024.2.4,134.81122388100928,2025-03-07 11h27.12.400751 +0700,
1,1,2,4,letter/letten091.png,letter/lettth041.png,66,66,0,x,0.12191340001299977,None,0,66,66,66,100.35855560004711,,,,,,,100.35855560004711,101.34728190000169,101.35372120002285,101.35372120002285,101.47979740006849,x,0.12191340001299977,None,101.4798790999921,101.48570409999229,101.66654120001476,101.35372120002285,,,,,,,,PM_th,001,2025-03-07_11h26.56.743,MainFlow,2024.2.4,134.81122388100928,2025-03-07 11h27.12.400751 +0700,
1,3,2,5,letter/lettgr141.png,letter/lettth052.png,67,67,0,x,0.20234650000929832,None,0,67,67,67,101.67496120010037,,,,,,,101.67496120010037,102.65964219998568,102.67317710001953,102.67317710001953,102.88225870009046,x,0.20234650000929832,None,102.88235420000274,102.88838450005278,103.07017070008442,102.6661155000329,,,,,,,,PM_th,001,2025-03-07_11h26.56.743,MainFlow,2024.2.4,134.81122388100928,2025-03-07 11h27.12.400751 +0700,
1,2,2,3,letter/lettkh031.png,letter/lettth112.png,68,68,0,x,0.16203939996194094,None,0,68,68,68,103.0786073000636,,,,,,,103.0786073000636,104.06241860007867,104.07579690008424,104.07579690008424,104.24335010000505,x,0.16203939996194094,None,104.24343870009761,104.24932290008292,104.43018260004465,104.06881460000295,,,,,,,,PM_th,001,2025-03-07_11h26.56.743,MainFlow,2024.2.4,134.81122388100928,2025-03-07 11h27.12.400751 +0700,
1,3,2,7,letter/lettgr072.png,letter/lettth025.png,69,69,0,x,0.195715400041081,None,0,69,69,69,104.4378788000904,,,,,,,104.4378788000904,105.42382600007113,105.43675620004069,105.43675620004069,105.63954990007915,x,0.195715400041081,None,105.63964320009109,105.64479510008823,105.82641520001926,105.42991710000206,,,,,,,,PM_th,001,2025-03-07_11h26.56.743,MainFlow,2024.2.4,134.81122388100928,2025-03-07 11h27.12.400751 +0700,
1,3,2,2,letter/lettgr072.png,letter/lettth052.png,70,70,0,x,0.11404020001646131,None,0,70,70,70,105.83400210004766,,,,,,,105.83400210004766,106.81935580004938,106.8326442000689,106.8326442000689,106.951511100051,x,0.11404020001646131,None,106.95160930010024,106.95783010008745,107.13900220009964,106.82616370008327,,,,,,,,PM_th,001,2025-03-07_11h26.56.743,MainFlow,2024.2.4,134.81122388100928,2025-03-07 11h27.12.400751 +0700,
1,1,1,1,letter/lettth022.png,letter/letten092.png,71,71,0,z,0.20384820003528148,None,0,71,71,71,107.14939889998641,,,,,,,107.14939889998641,108.13891370000783,108.14539349998813,108.14539349998813,108.3544543000171,z,0.20384820003528148,None,108.35453650006093,108.36013350007124,108.54176150006242,108.14539349998813,,,,,,,,PM_th,001,2025-03-07_11h26.56.743,MainFlow,2024.2.4,134.81122388100928,2025-03-07 11h27.12.400751 +0700,
1,3,1,6,letter/lettth082.png,letter/lettgr061.png,72,72,0,z,0.1545176999643445,None,0,72,72,72,108.5512079000473,,,,,,,108.5512079000473,109.53496540000197,109.5482653999934,109.5482653999934,109.70892310002819,z,0.1545176999643445,None,109.70902210008353,109.71425610000733,109.89574040006846,109.54120700003114,,,,,,,,PM_th,001,2025-03-07_11h26.56.743,MainFlow,2024.2.4,134.81122388100928,2025-03-07 11h27.12.400751 +0700,
1,2,1,7,letter/lettth072.png,letter/lettkh033.png,73,73,0,z,0.21486049995291978,None,0,73,73,73,109.9078109000111,,,,,,,109.9078109000111,110.89567760005593,110.90213180007413,110.90213180007413,111.11848910001572,z,0.21486049995291978,None,111.11859000008553,111.12398130004294,111.30532620009035,110.90213180007413,,,,,,,,PM_th,001,2025-03-07_11h26.56.743,MainFlow,2024.2.4,134.81122388100928,2025-03-07 11h27.12.400751 +0700,
1,3,2,6,letter/lettgr061.png,letter/lettth082.png,74,74,0,x,0.19219709991011769,None,0,74,74,74,111.31483390007634,,,,,,,111.31483390007634,112.29839430004358,112.31268309999723,112.31268309999723,112.5072763999924,x,0.19219709991011769,None,112.50736729998607,112.51288620010018,112.69404960004613,112.30484400002751,,,,,,,,PM_th,001,2025-03-07_11h26.56.743,MainFlow,2024.2.4,134.81122388100928,2025-03-07 11h27.12.400751 +0700,
1,1,2,6,letter/letten153.png,letter/lettth024.png,75,75,0,x,0.5625337999081239,None,0,75,75,75,112.70322830008809,,,,,,,112.70322830008809,113.68703570007347,113.70050060003996,113.70050060003996,114.26408110000193,x,0.5625337999081239,None,114.2641521000769,114.27006550005171,114.45110549998935,113.69352760002948,,,,,,,,PM_th,001,2025-03-07_11h26.56.743,MainFlow,2024.2.4,134.81122388100928,2025-03-07 11h27.12.400751 +0700,
1,2,2,1,letter/lettkh034.png,letter/lettth061.png,76,76,0,x,0.2498931000009179,None,0,76,76,76,114.45917340007145,,,,,,,114.45917340007145,115.4440533000743,115.45752530009486,115.45752530009486,115.70849570003338,x,0.2498931000009179,None,115.7085672999965,115.71430059999693,115.89519690000452,115.45055390009657,,,,,,,,PM_th,001,2025-03-07_11h26.56.743,MainFlow,2024.2.4,134.81122388100928,2025-03-07 11h27.12.400751 +0700,
1,2,1,6,letter/lettth161.png,letter/lettkh033.png,77,77,0,z,0.25955039996188134,None,0,77,77,77,115.90329190006014,,,,,,,115.90329190006014,116.88880960003007,116.90173789998516,116.90173789998516,117.1666622000048,z,0.25955039996188134,None,117.1667393000098,117.17272380006034,117.35378950007726,116.8952821000712,,,,,,,,PM_th,001,2025-03-07_11h26.56.743,MainFlow,2024.2.4,134.81122388100928,2025-03-07 11h27.12.400751 +0700,
1,2,2,7,letter/lettkh033.png,letter/lettth072.png,78,78,0,x,0.3289317999733612,None,0,78,78,78,117.36209160008002,,,,,,,117.36209160008002,118.34687990008388,118.36020930006634,118.36020930006634,118.6944789000554,x,0.3289317999733612,None,118.69455540005583,118.7005181000568,118.88157650001813,118.35324259998742,,,,,,,,PM_th,001,2025-03-07_11h26.56.743,MainFlow,2024.2.4,134.81122388100928,2025-03-07 11h27.12.400751 +0700,
1,2,1,8,letter/lettth153.png,letter/lettkh031.png,79,79,0,z,0.26449750002939254,None,0,79,79,79,118.88956650008913,,,,,,,118.88956650008913,119.87449700001162,119.88801510003395,119.88801510003395,120.15928140003234,z,0.26449750002939254,None,120.15939040004741,120.16565710003488,120.34654470009264,119.88101680006366,,,,,,,,PM_th,001,2025-03-07_11h26.56.743,MainFlow,2024.2.4,134.81122388100928,2025-03-07 11h27.12.400751 +0700,
1,3,1,2,letter/lettth052.png,letter/lettgr072.png,80,80,0,z,0.19295499997679144,None,0,80,80,80,120.3545671000611,,,,,,,120.3545671000611,121.33952430007048,121.3532776000211,121.3532776000211,121.54856550006662,z,0.19295499997679144,None,121.5486579000717,121.5546637000516,121.7358593000099,121.34607860003598,,,,,,,,PM_th,001,2025-03-07_11h26.56.743,MainFlow,2024.2.4,134.81122388100928,2025-03-07 11h27.12.400751 +0700,
1,2,1,2,letter/lettth032.png,letter/lettkh032.png,81,81,0,z,0.2139228000305593,None,0,81,81,81,121.74433350004256,,,,,,,121.74433350004256,122.7289286000887,122.7424170000013,122.7424170000013,122.9581958000781,z,0.2139228000305593,None,122.9582737000892,122.96426390006673,123.14517340005841,122.73559560009744,,,,,,,,PM_th,001,2025-03-07_11h26.56.743,MainFlow,2024.2.4,134.81122388100928,2025-03-07 11h27.12.400751 +0700,
1,1,2,7,letter/letten051.png,letter/lettth025.png,82,82,0,x,0.22130749991629273,None,0,82,82,82,123.15435309999157,,,,,,,123.15435309999157,124.13880399998743,124.15216420008801,124.15216420008801,124.37481950002257,x,0.22130749991629273,None,124.37489199999254,124.38092660007533,124.56178820005152,124.14512880006805,,,,,,,,PM_th,001,2025-03-07_11h26.56.743,MainFlow,2024.2.4,134.81122388100928,2025-03-07 11h27.12.400751 +0700,
1,3,1,4,letter/lettth024.png,letter/lettgr064.png,83,83,0,z,0.2134825000539422,None,0,83,83,83,124.57155290001538,,,,,,,124.57155290001538,125.55495050002355,125.56890730001032,125.56890730001032,125.78453639999498,z,0.2134825000539422,None,125.78461430000607,125.79057870001998,125.9714356000768,125.5618422999978,,,,,,,,PM_th,001,2025-03-07_11h26.56.743,MainFlow,2024.2.4,134.81122388100928,2025-03-07 11h27.12.400751 +0700,
1,3,2,3,letter/lettgr153.png,letter/lettth155.png,84,84,0,x,0.19880209991242737,None,0,84,84,84,125.98062859999482,,,,,,,125.98062859999482,126.96437230007723,126.97788000002038,126.97788000002038,127.18010470003355,x,0.19880209991242737,None,127.1801919999998,127.18628880009055,127.36706449999474,126.97092029999476,,,,,,,,PM_th,001,2025-03-07_11h26.56.743,MainFlow,2024.2.4,134.81122388100928,2025-03-07 11h27.12.400751 +0700,
1,1,1,6,letter/lettth024.png,letter/letten153.png,85,85,0,z,0.16657450003549457,None,0,85,85,85,127.37502090004273,,,,,,,127.37502090004273,128.36055510002188,128.37362500000745,128.37362500000745,128.54165040003136,z,0.16657450003549457,None,128.5417450000532,128.54750430001877,128.72840710007586,128.36711490002926,,,,,,,,PM_th,001,2025-03-07_11h26.56.743,MainFlow,2024.2.4,134.81122388100928,2025-03-07 11h27.12.400751 +0700,
1,1,2,3,letter/letten041.png,letter/lettth092.png,86,86,0,x,0.24313859990797937,None,0,86,86,86,128.7364272000268,,,,,,,128.7364272000268,129.7215272000758,129.7351504000835,129.7351504000835,129.97932280006353,x,0.24313859990797937,None,129.97941130003892,129.98446340009104,130.16627879999578,129.7281387000112,,,,,,,,PM_th,001,2025-03-07_11h26.56.743,MainFlow,2024.2.4,134.81122388100928,2025-03-07 11h27.12.400751 +0700,
1,2,2,1,letter/lettkh034.png,letter/lettth061.png,87,87,0,x,0.2244335999712348,None,0,87,87,87,130.17621960001998,,,,,,,130.17621960001998,131.15927549998742,131.1726067001,131.1726067001,131.40231470006984,x,0.2244335999712348,None,131.402403300046,131.40840740001295,131.5899025000399,131.1655973000452,,,,,,,,PM_th,001,2025-03-07_11h26.56.743,MainFlow,2024.2.4,134.81122388100928,2025-03-07 11h27.12.400751 +0700,
1,3,1,3,letter/lettth155.png,letter/lettgr153.png,88,88,0,z,0.28477490006480366,None,0,88,88,88,131.5999838000862,,,,,,,131.5999838000862,132.5898624000838,132.59623520006426,132.59623520006426,132.88194210000802,z,0.28477490006480366,None,132.88203000009526,132.88768110005185,133.06865030003246,132.59623520006426,,,,,,,,PM_th,001,2025-03-07_11h26.56.743,MainFlow,2024.2.4,134.81122388100928,2025-03-07 11h27.12.400751 +0700,
1,2,1,3,letter/lettth112.png,letter/lettkh031.png,89,89,0,z,0.18865589995402843,None,0,89,89,89,133.07879649999086,,,,,,,133.07879649999086,134.0618286000099,134.0752366000088,134.0752366000088,134.27047840005253,z,0.18865589995402843,None,134.27055620006286,134.27650300005917,134.457653200021,134.06831860006787,,,,,,,,PM_th,001,2025-03-07_11h26.56.743,MainFlow,2024.2.4,134.81122388100928,2025-03-07 11h27.12.400751 +0700,
1,2,2,5,letter/lettkh023.png,letter/lettth024.png,90,90,0,x,0.20521990000270307,None,0,90,90,90,134.4651902000187,,,,,,,134.4651902000187,135.45054880005773,135.46392200002447,135.46392200002447,135.67317000008188,x,0.20521990000270307,None,135.67325290001463,135.67948060005438,135.86016580008436,135.45712859998457,,,,,,,,PM_th,001,2025-03-07_11h26.56.743,MainFlow,2024.2.4,134.81122388100928,2025-03-07 11h27.12.400751 +0700,
1,1,2,4,letter/letten091.png,letter/lettth041.png,91,91,0,x,0.16483240004163235,None,0,91,91,91,135.86885110009462,,,,,,,135.86885110009462,136.85322650009766,136.86667360004503,136.86667360004503,137.0340186000103,x,0.16483240004163235,None,137.03411140001845,137.0401167999953,137.22143730008975,136.85970999998972,,,,,,,,PM_th,001,2025-03-07_11h26.56.743,MainFlow,2024.2.4,134.81122388100928,2025-03-07 11h27.12.400751 +0700,
1,2,2,3,letter/lettkh031.png,letter/lettth112.png,92,92,0,x,0.17156669998075813,None,0,92,92,92,137.22963250009343,,,,,,,137.22963250009343,138.21455670008436,138.22827070008498,138.22827070008498,138.40218010009266,x,0.17156669998075813,None,138.40226060000714,138.40832330007106,138.5893791000126,138.22142459999304,,,,,,,,PM_th,001,2025-03-07_11h26.56.743,MainFlow,2024.2.4,134.81122388100928,2025-03-07 11h27.12.400751 +0700,
1,3,1,8,letter/lettth013.png,letter/lettgr153.png,93,93,0,z,0.21805470006074756,None,0,93,93,93,138.597651100019,,,,,,,138.597651100019,139.5823578001,139.59590020007454,139.59590020007454,139.81897460005712,z,0.21805470006074756,None,139.8191009000875,139.8250392000191,140.00598260003608,139.58888940000907,,,,,,,,PM_th,001,2025-03-07_11h26.56.743,MainFlow,2024.2.4,134.81122388100928,2025-03-07 11h27.12.400751 +0700,
1,1,1,2,letter/lettth061.png,letter/letten062.png,94,94,0,z,0.15940599993336946,None,0,94,94,94,140.01542110007722,,,,,,,140.01542110007722,140.99900559999514,141.01251959998626,141.01251959998626,141.17310530005489,z,0.15940599993336946,None,141.17318450007588,141.17902919999324,141.36023670004215,141.0054912000196,,,,,,,,PM_th,001,2025-03-07_11h26.56.743,MainFlow,2024.2.4,134.81122388100928,2025-03-07 11h27.12.400751 +0700,
1,3,2,3,letter/lettgr153.png,letter/lettth155.png,95,95,0,x,0.17930030007846653,None,0,95,95,95,141.3682809000602,,,,,,,141.3682809000602,142.35356680001132,142.3663557000691,142.3663557000691,142.54818100004923,x,0.17930030007846653,None,142.5482817000011,142.5541227000067,142.73534270003438,142.35963100008667,,,,,,,,PM_th,001,2025-03-07_11h26.56.743,MainFlow,2024.2.4,134.81122388100928,2025-03-07 11h27.12.400751 +0700,
,,,,,,,,,,,,,,,,,,,,,,,,,,,,,,,,,,,142.73544409999158,142.74155969999265,142.74155969999265,152.63094599999022,space,9.884813099983148,None,PM_th,001,2025-03-07_11h26.56.743,MainFlow,2024.2.4,134.81122388100928,2025-03-07 11h27.12.400751 +0700,
