lang,langpair,sequence,pairid,firstdir,seconddir,thisN,thisTrialN,thisRepN,key_resp.keys,key_resp.rt,key_resp.duration,trials.thisRepN,trials.thisTrialN,trials.thisN,trials.thisIndex,thisRow.t,notes,tutorial.started,tutorial.stopped,key_instruct.keys,key_instruct.rt,key_instruct.duration,image_first.started,letterselect.started,instruct.started,key_resp.started,letterselect.stopped,trials.key_resp.keys,trials.key_resp.rt,trials.key_resp.duration,blanknext.started,instruct_2.started,blanknext.stopped,image_first.stopped,ending.started,text_3.started,ending_key.started,ending.stopped,ending_key.keys,ending_key.rt,ending_key.duration,participant,session,date,expName,psychopyVersion,frameRate,expStart,
,,,,,,,,,,,,,,,,,,0.010498700001335237,3.557795000000624,space,3.5207733000061125,None,,,,,,,,,,,,,,,,,,,,PN_en,001,2025-03-14_19h21.54.102,MainFlow,2024.2.4,144.36222213572165,2025-03-14 19h22.05.444332 +0700,
2,2,1,6,letter/letten061.png,letter/lettkh155.png,0,0,0,z,1.3039771999974619,None,0,0,0,0,3.6038958999997703,,,,,,,3.6038958999997703,4.5685333000001265,4.576942200001213,4.576942200001213,5.884347799998068,z,1.3039771999974619,None,5.886655700000119,5.897733600002539,6.071704000001773,,,,,,,,,PN_en,001,2025-03-14_19h21.54.102,MainFlow,2024.2.4,144.36222213572165,2025-03-14 19h22.05.444332 +0700,
2,1,2,2,letter/lettth142.png,letter/letten181.png,1,1,0,x,0.21750810000230558,None,0,1,1,1,6.085404099998414,,,,,,,6.085404099998414,7.072722700002487,7.079437899999903,7.079437899999903,7.3024431000012555,x,0.21750810000230558,None,7.302498999997624,7.308847200001765,7.489785800004029,7.079437899999903,,,,,,,,PN_en,001,2025-03-14_19h21.54.102,MainFlow,2024.2.4,144.36222213572165,2025-03-14 19h22.05.444332 +0700,
2,1,1,2,letter/letten181.png,letter/lettth142.png,2,2,0,z,0.5033977000057348,None,0,2,2,2,7.5034969999978784,,,,,,,7.5034969999978784,8.490847799999756,8.497519299999112,8.497519299999112,9.005479400002514,z,0.5033977000057348,None,9.005534600000829,9.011968099999649,9.192892899998697,8.497519299999112,,,,,,,,PN_en,001,2025-03-14_19h21.54.102,MainFlow,2024.2.4,144.36222213572165,2025-03-14 19h22.05.444332 +0700,
2,2,1,8,letter/letten051.png,letter/lettkh035.png,3,3,0,z,0.20831660000112606,None,0,3,3,3,9.20656130000134,,,,,,,9.20656130000134,10.193952800000261,10.200606899998093,10.200606899998093,10.409695599999395,z,0.20831660000112606,None,10.409746600002109,10.416023400000995,10.597110100003192,10.200606899998093,,,,,,,,PN_en,001,2025-03-14_19h21.54.102,MainFlow,2024.2.4,144.36222213572165,2025-03-14 19h22.05.444332 +0700,
2,3,2,2,letter/lettgr061.png,letter/letten061.png,4,4,0,x,0.7801292000003741,None,0,4,4,4,10.610757900001772,,,,,,,10.610757900001772,11.598114100001112,11.6047968999992,11.6047968999992,12.390811999997823,x,0.7801292000003741,None,12.390871199997491,12.397116000000096,12.578219199996965,11.6047968999992,,,,,,,,PN_en,001,2025-03-14_19h21.54.102,MainFlow,2024.2.4,144.36222213572165,2025-03-14 19h22.05.444332 +0700,
2,3,1,7,letter/letten062.png,letter/lettgr065.png,5,5,0,z,0.23203720000310568,None,0,5,5,5,12.591897700003756,,,,,,,12.591897700003756,13.579263699997682,13.585897099997965,13.585897099997965,13.822912700001325,z,0.23203720000310568,None,13.82297760000074,13.8292328000025,14.010196199997154,13.585897099997965,,,,,,,,PN_en,001,2025-03-14_19h21.54.102,MainFlow,2024.2.4,144.36222213572165,2025-03-14 19h22.05.444332 +0700,
2,2,1,7,letter/letten112.png,letter/lettkh083.png,6,6,0,z,0.21600710000348045,None,0,6,6,6,14.023884599999292,,,,,,,14.023884599999292,15.011257400001341,15.017914800002472,15.017914800002472,15.240857800003141,z,0.21600710000348045,None,15.240914399997564,15.247306500001287,15.42825399999856,15.017914800002472,,,,,,,,PN_en,001,2025-03-14_19h21.54.102,MainFlow,2024.2.4,144.36222213572165,2025-03-14 19h22.05.444332 +0700,
2,1,1,1,letter/letten041.png,letter/lettth022.png,7,7,0,z,0.22994049999397248,None,0,7,7,7,15.441956599999685,,,,,,,15.441956599999685,16.429261500001303,16.43599610000092,16.43599610000092,16.672828000002482,z,0.22994049999397248,None,16.672885400002997,16.679305400000885,16.86026010000205,16.43599610000092,,,,,,,,PN_en,001,2025-03-14_19h21.54.102,MainFlow,2024.2.4,144.36222213572165,2025-03-14 19h22.05.444332 +0700,
2,3,1,6,letter/letten061.png,letter/lettgr066.png,8,8,0,z,0.19793819999904372,None,0,8,8,8,16.87398740000208,,,,,,,16.87398740000208,17.861301999997522,17.86798209999688,17.86798209999688,18.07007370000065,z,0.19793819999904372,None,18.07012450000184,18.076522000003024,18.257483699999284,17.86798209999688,,,,,,,,PN_en,001,2025-03-14_19h21.54.102,MainFlow,2024.2.4,144.36222213572165,2025-03-14 19h22.05.444332 +0700,
2,2,2,6,letter/lettkh155.png,letter/letten061.png,9,9,0,x,0.5527369000046747,None,0,9,9,9,18.271144300000742,,,,,,,18.271144300000742,19.25853449999704,19.26520580000215,19.26520580000215,19.821824400001788,x,0.5527369000046747,None,19.821881099996972,19.828284600000188,20.00925560000178,19.26520580000215,,,,,,,,PN_en,001,2025-03-14_19h21.54.102,MainFlow,2024.2.4,144.36222213572165,2025-03-14 19h22.05.444332 +0700,
2,1,2,6,letter/lettth132.png,letter/letten091.png,10,10,0,x,0.1619730000020354,None,0,10,10,10,20.0229107999985,,,,,,,20.0229107999985,21.01031299999886,21.01694619999762,21.01694619999762,21.184301699999196,x,0.1619730000020354,None,21.18435309999768,21.190742099999625,21.37168930000189,21.01694619999762,,,,,,,,PN_en,001,2025-03-14_19h21.54.102,MainFlow,2024.2.4,144.36222213572165,2025-03-14 19h22.05.444332 +0700,
2,2,1,5,letter/letten051.png,letter/lettkh157.png,11,11,0,z,0.22350379999988945,None,0,11,11,11,21.38534190000064,,,,,,,21.38534190000064,22.372735700002522,22.37942469999689,22.37942469999689,22.60930609999923,z,0.22350379999988945,None,22.609364000003552,22.615770800002792,22.796730499998375,22.37942469999689,,,,,,,,PN_en,001,2025-03-14_19h21.54.102,MainFlow,2024.2.4,144.36222213572165,2025-03-14 19h22.05.444332 +0700,
2,3,1,3,letter/letten061.png,letter/lettgr063.png,12,12,0,z,0.10246560000086902,None,0,12,12,12,22.81042190000153,,,,,,,22.81042190000153,23.79778880000231,23.80445779999718,23.80445779999718,23.909176599998318,z,0.10246560000086902,None,23.909224100003485,23.915676299999177,24.096637200003897,23.80445779999718,,,,,,,,PN_en,001,2025-03-14_19h21.54.102,MainFlow,2024.2.4,144.36222213572165,2025-03-14 19h22.05.444332 +0700,
2,2,2,8,letter/lettkh035.png,letter/letten051.png,13,13,0,x,0.6184943000043859,None,0,13,13,13,24.110338799997407,,,,,,,24.110338799997407,25.09770489999937,25.10442680000415,25.10442680000415,25.723757799998566,x,0.6184943000043859,None,25.723823000000266,25.729995900001086,25.91098310000234,25.10442680000415,,,,,,,,PN_en,001,2025-03-14_19h21.54.102,MainFlow,2024.2.4,144.36222213572165,2025-03-14 19h22.05.444332 +0700,
2,1,2,3,letter/lettth152.png,letter/letten142.png,14,14,0,x,0.23625650000030873,None,0,14,14,14,25.92464170000312,,,,,,,25.92464170000312,26.912015399997472,26.918680299997504,26.918680299997504,27.155646100000013,x,0.23625650000030873,None,27.15569900000264,27.161957000003895,27.342962200003967,26.918680299997504,,,,,,,,PN_en,001,2025-03-14_19h21.54.102,MainFlow,2024.2.4,144.36222213572165,2025-03-14 19h22.05.444332 +0700,
2,2,2,6,letter/lettkh155.png,letter/letten061.png,15,15,0,x,0.2132694000029005,None,0,15,15,15,27.35661329999857,,,,,,,27.35661329999857,28.34401770000113,28.35064820000116,28.35064820000116,28.566652200002864,x,0.2132694000029005,None,28.566706700003124,28.573111300000164,28.754124400002183,28.35064820000116,,,,,,,,PN_en,001,2025-03-14_19h21.54.102,MainFlow,2024.2.4,144.36222213572165,2025-03-14 19h22.05.444332 +0700,
2,3,1,1,letter/letten021.png,letter/lettgr021.png,16,16,0,z,0.15412089999881573,None,0,16,16,16,28.767771099999663,,,,,,,28.767771099999663,29.755119499997818,29.761803399997007,29.761803399997007,29.92212599999766,z,0.15412089999881573,None,29.922174600003927,29.92861619999894,30.109592100001464,29.761803399997007,,,,,,,,PN_en,001,2025-03-14_19h21.54.102,MainFlow,2024.2.4,144.36222213572165,2025-03-14 19h22.05.444332 +0700,
2,3,1,3,letter/letten061.png,letter/lettgr063.png,17,17,0,z,0.20661809999728575,None,0,17,17,17,30.12325370000326,,,,,,,30.12325370000326,31.11062530000345,31.11730879999959,31.11730879999959,31.326498499998706,z,0.20661809999728575,None,31.326562399997783,31.332803199999034,31.51377130000037,31.11730879999959,,,,,,,,PN_en,001,2025-03-14_19h21.54.102,MainFlow,2024.2.4,144.36222213572165,2025-03-14 19h22.05.444332 +0700,
2,2,1,1,letter/letten153.png,letter/lettkh159.png,18,18,0,z,0.4025566999989678,None,0,18,18,18,31.527408800000558,,,,,,,31.527408800000558,32.51479809999728,32.521363899999415,32.521363899999415,32.925189300003694,z,0.4025566999989678,None,32.925245300000824,32.93151039999793,33.11265249999997,32.521363899999415,,,,,,,,PN_en,001,2025-03-14_19h21.54.102,MainFlow,2024.2.4,144.36222213572165,2025-03-14 19h22.05.444332 +0700,
2,1,1,6,letter/letten091.png,letter/lettth132.png,19,19,0,z,0.3076188999984879,None,0,19,19,19,33.126269799999136,,,,,,,33.126269799999136,34.11362640000152,34.1203119999991,34.1203119999991,34.43358199999784,z,0.3076188999984879,None,34.433634599998186,34.44007930000225,34.62101499999699,34.1203119999991,,,,,,,,PN_en,001,2025-03-14_19h21.54.102,MainFlow,2024.2.4,144.36222213572165,2025-03-14 19h22.05.444332 +0700,
2,3,2,5,letter/lettgr012.png,letter/letten011.png,20,20,0,x,0.5041657999972813,None,0,20,20,20,34.63472460000048,,,,,,,34.63472460000048,35.62212890000228,35.62875930000155,35.62875930000155,36.13669710000249,x,0.5041657999972813,None,36.13675140000123,36.1431694999992,36.324122300000454,35.62875930000155,,,,,,,,PN_en,001,2025-03-14_19h21.54.102,MainFlow,2024.2.4,144.36222213572165,2025-03-14 19h22.05.444332 +0700,
2,1,1,2,letter/letten181.png,letter/lettth142.png,21,21,0,z,0.22508229999948526,None,0,21,21,21,36.3377971000009,,,,,,,36.3377971000009,37.3252100000027,37.331836600002134,37.331836600002134,37.56164600000193,z,0.22508229999948526,None,37.56170230000134,37.56819830000313,37.74915440000041,37.331836600002134,,,,,,,,PN_en,001,2025-03-14_19h21.54.102,MainFlow,2024.2.4,144.36222213572165,2025-03-14 19h22.05.444332 +0700,
2,2,1,5,letter/letten051.png,letter/lettkh157.png,22,22,0,z,0.3281124999994063,None,0,22,22,22,37.76279760000034,,,,,,,37.76279760000034,38.750229500001296,38.75688239999727,38.75688239999727,39.091053800002555,z,0.3281124999994063,None,39.09110630000214,39.09749040000315,39.278459200002544,38.75688239999727,,,,,,,,PN_en,001,2025-03-14_19h21.54.102,MainFlow,2024.2.4,144.36222213572165,2025-03-14 19h22.05.444332 +0700,
2,3,1,4,letter/letten062.png,letter/lettgr063.png,23,23,0,z,0.158753900002921,None,0,23,23,23,39.29212689999986,,,,,,,39.29212689999986,40.27951369999937,40.286175100001856,40.286175100001856,40.4465474000026,z,0.158753900002921,None,40.446604199998546,40.45301019999897,40.63400569999794,40.286175100001856,,,,,,,,PN_en,001,2025-03-14_19h21.54.102,MainFlow,2024.2.4,144.36222213572165,2025-03-14 19h22.05.444332 +0700,
2,3,2,3,letter/lettgr063.png,letter/letten061.png,24,24,0,x,0.21122060000197962,None,0,24,24,24,40.64765559999796,,,,,,,40.64765559999796,41.63505769999756,41.641697200000635,41.641697200000635,41.8577013000031,x,0.21122060000197962,None,41.85775399999693,41.86414530000184,42.045104199998605,41.641697200000635,,,,,,,,PN_en,001,2025-03-14_19h21.54.102,MainFlow,2024.2.4,144.36222213572165,2025-03-14 19h22.05.444332 +0700,
2,2,2,5,letter/lettkh157.png,letter/letten051.png,25,25,0,x,0.801087899999402,None,0,25,25,25,42.05880369999795,,,,,,,42.05880369999795,43.046159600002284,43.052830799999356,43.052830799999356,43.85956569999689,x,0.801087899999402,None,43.85962129999825,43.8661523999981,44.047087300001294,43.052830799999356,,,,,,,,PN_en,001,2025-03-14_19h21.54.102,MainFlow,2024.2.4,144.36222213572165,2025-03-14 19h22.05.444332 +0700,
2,3,1,5,letter/letten011.png,letter/lettgr012.png,26,26,0,z,0.22310560000187252,None,0,26,26,26,44.060787100002926,,,,,,,44.060787100002926,45.04815300000337,45.05483549999917,45.05483549999917,45.2847161000027,z,0.22310560000187252,None,45.28476750000118,45.29116570000042,45.472154000002774,45.05483549999917,,,,,,,,PN_en,001,2025-03-14_19h21.54.102,MainFlow,2024.2.4,144.36222213572165,2025-03-14 19h22.05.444332 +0700,
2,3,1,1,letter/letten021.png,letter/lettgr021.png,27,27,0,z,0.2700752000018838,None,0,27,27,27,45.48581310000009,,,,,,,45.48581310000009,46.47317610000027,46.479849100003776,46.479849100003776,46.75145519999933,z,0.2700752000018838,None,46.75150679999933,46.75792579999688,46.93889560000389,46.479849100003776,,,,,,,,PN_en,001,2025-03-14_19h21.54.102,MainFlow,2024.2.4,144.36222213572165,2025-03-14 19h22.05.444332 +0700,
2,2,1,8,letter/letten051.png,letter/lettkh035.png,28,28,0,z,0.2993568000019877,None,0,28,28,28,46.952546900000016,,,,,,,46.952546900000016,47.93993290000071,47.94656699999905,47.94656699999905,48.25291029999789,z,0.2993568000019877,None,48.25296240000171,48.25940940000146,48.44036049999704,47.94656699999905,,,,,,,,PN_en,001,2025-03-14_19h21.54.102,MainFlow,2024.2.4,144.36222213572165,2025-03-14 19h22.05.444332 +0700,
2,3,1,4,letter/letten062.png,letter/lettgr063.png,29,29,0,z,0.2298307000019122,None,0,29,29,29,48.45405600000231,,,,,,,48.45405600000231,49.441434400003345,49.44809330000135,49.44809330000135,49.68505459999869,z,0.2298307000019122,None,49.685111799997685,49.691385199999786,49.87238179999986,49.44809330000135,,,,,,,,PN_en,001,2025-03-14_19h21.54.102,MainFlow,2024.2.4,144.36222213572165,2025-03-14 19h22.05.444332 +0700,
2,1,2,8,letter/lettth022.png,letter/letten131.png,30,30,0,x,0.214907099994889,None,0,30,30,30,49.886059500000556,,,,,,,49.886059500000556,50.873415300004126,50.88007060000382,50.88007060000382,51.09608509999816,x,0.214907099994889,None,51.09614359999978,51.102536500002316,51.283506300002045,50.88007060000382,,,,,,,,PN_en,001,2025-03-14_19h21.54.102,MainFlow,2024.2.4,144.36222213572165,2025-03-14 19h22.05.444332 +0700,
2,2,1,1,letter/letten153.png,letter/lettkh159.png,31,31,0,z,0.21171410000533797,None,0,31,31,31,51.29715710000164,,,,,,,51.29715710000164,52.284549299998616,52.2912043000033,52.2912043000033,52.50721789999807,z,0.21171410000533797,None,52.50727339999867,52.51364540000213,52.69451560000016,52.2912043000033,,,,,,,,PN_en,001,2025-03-14_19h21.54.102,MainFlow,2024.2.4,144.36222213572165,2025-03-14 19h22.05.444332 +0700,
2,2,1,4,letter/letten071.png,letter/lettkh055.png,32,32,0,z,0.22858840000117198,None,0,32,32,32,52.70830589999969,,,,,,,52.70830589999969,53.6956840999992,53.702331499996944,53.702331499996944,53.932252500002505,z,0.22858840000117198,None,53.932308100003866,53.93854129999818,54.119620700003,53.702331499996944,,,,,,,,PN_en,001,2025-03-14_19h21.54.102,MainFlow,2024.2.4,144.36222213572165,2025-03-14 19h22.05.444332 +0700,
2,1,1,5,letter/letten121.png,letter/lettth101.png,33,33,0,z,0.19155619999946794,None,0,33,33,33,54.13334230000328,,,,,,,54.13334230000328,55.1206996999972,55.127388300003076,55.127388300003076,55.322503100003814,z,0.19155619999946794,None,55.322554300000775,55.32897090000188,55.50991410000279,55.127388300003076,,,,,,,,PN_en,001,2025-03-14_19h21.54.102,MainFlow,2024.2.4,144.36222213572165,2025-03-14 19h22.05.444332 +0700,
2,2,2,4,letter/lettkh055.png,letter/letten071.png,34,34,0,x,0.20927349999692524,None,0,34,34,34,55.52360950000002,,,,,,,55.52360950000002,56.51095969999733,56.51765239999804,56.51765239999804,56.73359370000253,x,0.20927349999692524,None,56.733648900000844,56.74008750000212,56.921064000001934,56.51765239999804,,,,,,,,PN_en,001,2025-03-14_19h21.54.102,MainFlow,2024.2.4,144.36222213572165,2025-03-14 19h22.05.444332 +0700,
2,1,1,5,letter/letten121.png,letter/lettth101.png,35,35,0,z,0.15816800000175135,None,0,35,35,35,56.934738600000856,,,,,,,56.934738600000856,57.92210150000028,57.92878110000311,57.92878110000311,58.08918039999844,z,0.15816800000175135,None,58.08923119999963,58.09559660000377,58.27656759999809,57.92878110000311,,,,,,,,PN_en,001,2025-03-14_19h21.54.102,MainFlow,2024.2.4,144.36222213572165,2025-03-14 19h22.05.444332 +0700,
2,2,2,3,letter/lettkh091.png,letter/letten071.png,36,36,0,x,0.18762789999891538,None,0,36,36,36,58.2902494000009,,,,,,,58.2902494000009,59.27765050000016,59.2842942999996,59.2842942999996,59.472705100000894,x,0.18762789999891538,None,59.472769200001494,59.4788142000034,59.65992849999748,59.2842942999996,,,,,,,,PN_en,001,2025-03-14_19h21.54.102,MainFlow,2024.2.4,144.36222213572165,2025-03-14 19h22.05.444332 +0700,
2,2,1,6,letter/letten061.png,letter/lettkh155.png,37,37,0,z,0.25232669999968493,None,0,37,37,37,59.67358200000308,,,,,,,59.67358200000308,60.66093550000369,60.66762089999975,60.66762089999975,60.9253377999994,z,0.25232669999968493,None,60.92539150000084,60.93177129999822,61.112635299999965,60.66762089999975,,,,,,,,PN_en,001,2025-03-14_19h21.54.102,MainFlow,2024.2.4,144.36222213572165,2025-03-14 19h22.05.444332 +0700,
2,1,1,4,letter/letten101.png,letter/lettth011.png,38,38,0,z,0.07944750000024214,None,0,38,38,38,61.12644100000034,,,,,,,61.12644100000034,62.11380430000281,62.120469300003606,62.120469300003606,62.20437590000074,z,0.07944750000024214,None,62.20442319999711,62.21084130000236,62.39177159999963,62.120469300003606,,,,,,,,PN_en,001,2025-03-14_19h21.54.102,MainFlow,2024.2.4,144.36222213572165,2025-03-14 19h22.05.444332 +0700,
2,3,2,4,letter/lettgr063.png,letter/letten062.png,39,39,0,x,0.0324179000017466,None,0,39,39,39,62.4054746000038,,,,,,,62.4054746000038,63.392836799997895,63.39950430000317,63.39950430000317,63.43475580000086,x,0.0324179000017466,None,63.43480360000103,63.44120110000222,63.62220410000009,63.39950430000317,,,,,,,,PN_en,001,2025-03-14_19h21.54.102,MainFlow,2024.2.4,144.36222213572165,2025-03-14 19h22.05.444332 +0700,
2,3,1,2,letter/letten061.png,letter/lettgr061.png,40,40,0,z,0.08999629999743775,None,0,40,40,40,63.635874599996896,,,,,,,63.635874599996896,64.62323869999818,64.62992140000279,64.62992140000279,64.72080950000236,z,0.08999629999743775,None,64.72085869999864,64.72721660000389,64.9082081000015,64.62992140000279,,,,,,,,PN_en,001,2025-03-14_19h21.54.102,MainFlow,2024.2.4,144.36222213572165,2025-03-14 19h22.05.444332 +0700,
2,2,2,7,letter/lettkh083.png,letter/letten112.png,41,41,0,x,0.1569923999995808,None,0,41,41,41,64.92189460000372,,,,,,,64.92189460000372,65.90923979999934,65.91592649999802,65.91592649999802,66.07636769999954,x,0.1569923999995808,None,66.0764194000003,66.08273290000216,66.26370049999969,65.91592649999802,,,,,,,,PN_en,001,2025-03-14_19h21.54.102,MainFlow,2024.2.4,144.36222213572165,2025-03-14 19h22.05.444332 +0700,
2,1,2,2,letter/lettth142.png,letter/letten181.png,42,42,0,x,0.1775783999983105,None,0,42,42,42,66.27738410000165,,,,,,,66.27738410000165,67.26475760000176,67.2713941999973,67.2713941999973,67.45263459999842,x,0.1775783999983105,None,67.45269019999978,67.45917899999768,67.64011929999833,67.2713941999973,,,,,,,,PN_en,001,2025-03-14_19h21.54.102,MainFlow,2024.2.4,144.36222213572165,2025-03-14 19h22.05.444332 +0700,
2,2,1,7,letter/letten112.png,letter/lettkh083.png,43,43,0,z,0.16910890000144718,None,0,43,43,43,67.65376690000267,,,,,,,67.65376690000267,68.6411522999988,68.64780969999993,68.64780969999993,68.82211890000326,z,0.16910890000144718,None,68.82217630000378,68.828537399997,69.00949319999927,68.64780969999993,,,,,,,,PN_en,001,2025-03-14_19h21.54.102,MainFlow,2024.2.4,144.36222213572165,2025-03-14 19h22.05.444332 +0700,
2,2,2,3,letter/lettkh091.png,letter/letten071.png,44,44,0,x,0.25571740000305,None,0,44,44,44,69.02316450000217,,,,,,,69.02316450000217,70.0105457000027,70.01722890000383,70.01722890000383,70.27491340000415,x,0.25571740000305,None,70.27497030000086,70.28137450000213,70.46236859999772,70.01722890000383,,,,,,,,PN_en,001,2025-03-14_19h21.54.102,MainFlow,2024.2.4,144.36222213572165,2025-03-14 19h22.05.444332 +0700,
2,2,2,5,letter/lettkh157.png,letter/letten051.png,45,45,0,x,0.034867500005930196,None,0,45,45,45,70.47602159999951,,,,,,,70.47602159999951,71.46341360000224,71.47006269999838,71.47006269999838,71.505591000001,x,0.034867500005930196,None,71.50564200000372,71.5117756000036,71.6927457999991,71.47006269999838,,,,,,,,PN_en,001,2025-03-14_19h21.54.102,MainFlow,2024.2.4,144.36222213572165,2025-03-14 19h22.05.444332 +0700,
2,1,2,3,letter/lettth152.png,letter/letten142.png,46,46,0,x,0.3966128999963985,None,0,46,46,46,71.70642370000132,,,,,,,71.70642370000132,72.69378639999923,72.70045740000205,72.70045740000205,73.10405249999894,x,0.3966128999963985,None,73.10410840000259,73.11060670000006,73.29154440000275,72.70045740000205,,,,,,,,PN_en,001,2025-03-14_19h21.54.102,MainFlow,2024.2.4,144.36222213572165,2025-03-14 19h22.05.444332 +0700,
2,2,2,2,letter/lettkh013.png,letter/letten121.png,47,47,0,x,0.11068590000650147,None,0,47,47,47,73.30524619999778,,,,,,,73.30524619999778,74.29262480000034,74.29923810000037,74.29923810000037,74.411016500002,x,0.11068590000650147,None,74.41106890000083,74.41745190000074,74.59842580000259,74.29923810000037,,,,,,,,PN_en,001,2025-03-14_19h21.54.102,MainFlow,2024.2.4,144.36222213572165,2025-03-14 19h22.05.444332 +0700,
2,1,2,6,letter/lettth132.png,letter/letten091.png,48,48,0,x,0.23177729999588337,None,0,48,48,48,74.61210769999889,,,,,,,74.61210769999889,75.59947049999755,75.60614199999691,75.60614199999691,75.84298660000059,x,0.23177729999588337,None,75.84303840000211,75.84944099999848,76.03039569999964,75.60614199999691,,,,,,,,PN_en,001,2025-03-14_19h21.54.102,MainFlow,2024.2.4,144.36222213572165,2025-03-14 19h22.05.444332 +0700,
2,1,2,1,letter/lettth022.png,letter/letten041.png,49,49,0,x,0.6197918999969261,None,0,49,49,49,76.04407509999874,,,,,,,76.04407509999874,77.03144959999918,77.03813359999913,77.03813359999913,77.6642783999996,x,0.6197918999969261,None,77.66433539999707,77.67069340000307,77.85152290000406,77.03813359999913,,,,,,,,PN_en,001,2025-03-14_19h21.54.102,MainFlow,2024.2.4,144.36222213572165,2025-03-14 19h22.05.444332 +0700,
2,1,1,3,letter/letten142.png,letter/lettth152.png,50,50,0,z,0.0945588000031421,None,0,50,50,50,77.86535559999902,,,,,,,77.86535559999902,78.85272650000115,78.85938159999932,78.85938159999932,78.95720170000277,z,0.0945588000031421,None,78.95725050000328,78.96363579999888,79.14463090000208,78.85938159999932,,,,,,,,PN_en,001,2025-03-14_19h21.54.102,MainFlow,2024.2.4,144.36222213572165,2025-03-14 19h22.05.444332 +0700,
2,1,2,8,letter/lettth022.png,letter/letten131.png,51,51,0,x,0.21373350000067148,None,0,51,51,51,79.15827790000185,,,,,,,79.15827790000185,80.1456795999984,80.15218650000315,80.15218650000315,80.36832690000301,x,0.21373350000067148,None,80.36837820000073,80.37479069999972,80.55574940000224,80.15218650000315,,,,,,,,PN_en,001,2025-03-14_19h21.54.102,MainFlow,2024.2.4,144.36222213572165,2025-03-14 19h22.05.444332 +0700,
2,2,1,2,letter/letten121.png,letter/lettkh013.png,52,52,0,z,0.1754538999957731,None,0,52,52,52,80.56942069999786,,,,,,,80.56942069999786,81.55681410000398,81.56346060000214,81.56346060000214,81.7446764999986,z,0.1754538999957731,None,81.74472490000335,81.75115820000065,81.93211799999699,81.56346060000214,,,,,,,,PN_en,001,2025-03-14_19h21.54.102,MainFlow,2024.2.4,144.36222213572165,2025-03-14 19h22.05.444332 +0700,
2,3,1,2,letter/letten061.png,letter/lettgr061.png,53,53,0,z,0.2150947999980417,None,0,53,53,53,81.94580670000141,,,,,,,81.94580670000141,82.93316390000109,82.93984130000172,82.93984130000172,83.15582050000376,z,0.2150947999980417,None,83.15587059999962,83.16228099999717,83.343237400004,82.93984130000172,,,,,,,,PN_en,001,2025-03-14_19h21.54.102,MainFlow,2024.2.4,144.36222213572165,2025-03-14 19h22.05.444332 +0700,
2,2,2,1,letter/lettkh159.png,letter/letten153.png,54,54,0,x,0.17194909999670926,None,0,54,54,54,83.3569392999998,,,,,,,83.3569392999998,84.34428820000176,84.3509686000034,84.3509686000034,84.52524730000005,x,0.17194909999670926,None,84.52530100000149,84.53170539999701,84.71265950000088,84.3509686000034,,,,,,,,PN_en,001,2025-03-14_19h21.54.102,MainFlow,2024.2.4,144.36222213572165,2025-03-14 19h22.05.444332 +0700,
2,1,1,4,letter/letten101.png,letter/lettth011.png,55,55,0,z,1.9385418000019854,None,0,55,55,55,84.72635499999888,,,,,,,84.72635499999888,85.7137206999978,85.7203806999969,85.7203806999969,87.66035640000337,z,1.9385418000019854,None,87.66041430000041,87.66677960000379,87.84772879999946,85.7203806999969,,,,,,,,PN_en,001,2025-03-14_19h21.54.102,MainFlow,2024.2.4,144.36222213572165,2025-03-14 19h22.05.444332 +0700,
2,3,1,8,letter/letten152.png,letter/lettgr152.png,56,56,0,z,0.252468200000294,None,0,56,56,56,87.86143450000236,,,,,,,87.86143450000236,88.84877319999941,88.85546340000292,88.85546340000292,89.11320169999817,z,0.252468200000294,None,89.11325539999962,89.11950079999951,89.30058970000391,88.85546340000292,,,,,,,,PN_en,001,2025-03-14_19h21.54.102,MainFlow,2024.2.4,144.36222213572165,2025-03-14 19h22.05.444332 +0700,
2,3,2,1,letter/lettgr021.png,letter/letten021.png,57,57,0,x,0.2716311999975005,None,0,57,57,57,89.3142702000041,,,,,,,89.3142702000041,90.30163619999803,90.30829200000153,90.30829200000153,90.58683069999825,x,0.2716311999975005,None,90.58689050000248,90.59330400000181,90.77426160000323,90.30829200000153,,,,,,,,PN_en,001,2025-03-14_19h21.54.102,MainFlow,2024.2.4,144.36222213572165,2025-03-14 19h22.05.444332 +0700,
2,1,2,7,letter/lettth132.png,letter/letten062.png,58,58,0,x,0.3099082999979146,None,0,58,58,58,90.787943000003,,,,,,,90.787943000003,91.77532120000251,91.78201850000187,91.78201850000187,92.09536430000298,x,0.3099082999979146,None,92.09541639999952,92.10176910000155,92.28274989999773,91.78201850000187,,,,,,,,PN_en,001,2025-03-14_19h21.54.102,MainFlow,2024.2.4,144.36222213572165,2025-03-14 19h22.05.444332 +0700,
2,3,2,2,letter/lettgr061.png,letter/letten061.png,59,59,0,x,0.16148089999478543,None,0,59,59,59,92.29639490000409,,,,,,,92.29639490000409,93.28377480000199,93.29045159999805,93.29045159999805,93.45790200000192,x,0.16148089999478543,None,93.45796990000235,93.46428690000175,93.64520559999801,93.29045159999805,,,,,,,,PN_en,001,2025-03-14_19h21.54.102,MainFlow,2024.2.4,144.36222213572165,2025-03-14 19h22.05.444332 +0700,
2,2,2,4,letter/lettkh055.png,letter/letten071.png,60,60,0,x,0.20713470000191592,None,0,60,60,60,93.6588746999987,,,,,,,93.6588746999987,94.64625740000338,94.65278699999908,94.65278699999908,94.86196670000209,x,0.20713470000191592,None,94.86202390000108,94.86839560000226,95.04935729999852,94.65278699999908,,,,,,,,PN_en,001,2025-03-14_19h21.54.102,MainFlow,2024.2.4,144.36222213572165,2025-03-14 19h22.05.444332 +0700,
2,1,2,5,letter/lettth101.png,letter/letten121.png,61,61,0,x,0.6358354000039981,None,0,61,61,61,95.0630530999988,,,,,,,95.0630530999988,96.05041180000262,96.05708009999944,96.05708009999944,96.69725150000158,x,0.6358354000039981,None,96.69731470000261,96.70356999999785,96.88453399999707,96.05708009999944,,,,,,,,PN_en,001,2025-03-14_19h21.54.102,MainFlow,2024.2.4,144.36222213572165,2025-03-14 19h22.05.444332 +0700,
2,3,1,8,letter/letten152.png,letter/lettgr152.png,62,62,0,z,0.4406598000059603,None,0,62,62,62,96.89816669999709,,,,,,,96.89816669999709,97.88559589999932,97.89225779999833,97.89225779999833,98.33760759999859,z,0.4406598000059603,None,98.33766289999767,98.34408999999869,98.52516270000342,97.89225779999833,,,,,,,,PN_en,001,2025-03-14_19h21.54.102,MainFlow,2024.2.4,144.36222213572165,2025-03-14 19h22.05.444332 +0700,
2,1,2,5,letter/lettth101.png,letter/letten121.png,63,63,0,x,0.3441289999973378,None,0,63,63,63,98.53876490000403,,,,,,,98.53876490000403,99.52611500000057,99.53278860000137,99.53278860000137,99.88085000000137,x,0.3441289999973378,None,99.88090799999918,99.88717449999967,100.06826800000272,99.53278860000137,,,,,,,,PN_en,001,2025-03-14_19h21.54.102,MainFlow,2024.2.4,144.36222213572165,2025-03-14 19h22.05.444332 +0700,
2,3,2,8,letter/lettgr152.png,letter/letten152.png,64,64,0,x,0.34492320000572363,None,0,64,64,64,100.0819421999986,,,,,,,100.0819421999986,101.06934950000141,101.07600169999932,101.07600169999932,101.42406499999925,x,0.34492320000572363,None,101.42411939999874,101.43050000000221,101.6114860000016,101.07600169999932,,,,,,,,PN_en,001,2025-03-14_19h21.54.102,MainFlow,2024.2.4,144.36222213572165,2025-03-14 19h22.05.444332 +0700,
2,2,1,2,letter/letten121.png,letter/lettkh013.png,65,65,0,z,0.22577540000202134,None,0,65,65,65,101.62514730000112,,,,,,,101.62514730000112,102.61251379999885,102.61919910000142,102.61919910000142,102.84905170000275,z,0.22577540000202134,None,102.8491028999997,102.85552969999844,103.03650210000342,102.61919910000142,,,,,,,,PN_en,001,2025-03-14_19h21.54.102,MainFlow,2024.2.4,144.36222213572165,2025-03-14 19h22.05.444332 +0700,
2,3,1,5,letter/letten011.png,letter/lettgr012.png,66,66,0,z,0.35370120000152383,None,0,66,66,66,103.0501893000037,,,,,,,103.0501893000037,104.03754399999889,104.04421680000087,104.04421680000087,104.39925360000052,z,0.35370120000152383,None,104.39930489999824,104.40570950000256,104.5865913000016,104.04421680000087,,,,,,,,PN_en,001,2025-03-14_19h21.54.102,MainFlow,2024.2.4,144.36222213572165,2025-03-14 19h22.05.444332 +0700,
2,2,1,3,letter/letten071.png,letter/lettkh091.png,67,67,0,z,0.2675244999991264,None,0,67,67,67,104.60033709999698,,,,,,,104.60033709999698,105.58770070000173,105.59440110000287,105.59440110000287,105.86600449999969,z,0.2675244999991264,None,105.86605959999724,105.87243129999842,106.05340689999866,105.59440110000287,,,,,,,,PN_en,001,2025-03-14_19h21.54.102,MainFlow,2024.2.4,144.36222213572165,2025-03-14 19h22.05.444332 +0700,
2,1,1,8,letter/letten131.png,letter/lettth022.png,68,68,0,z,0.32080929999938235,None,0,68,68,68,106.06709090000368,,,,,,,106.06709090000368,107.05443779999769,107.06111650000094,107.06111650000094,107.38832289999846,z,0.32080929999938235,None,107.38837810000405,107.39480329999788,107.57575570000336,107.06111650000094,,,,,,,,PN_en,001,2025-03-14_19h21.54.102,MainFlow,2024.2.4,144.36222213572165,2025-03-14 19h22.05.444332 +0700,
2,3,2,4,letter/lettgr063.png,letter/letten062.png,69,69,0,x,0.25045540000428446,None,0,69,69,69,107.58942329999991,,,,,,,107.58942329999991,108.57679929999722,108.58348939999996,108.58348939999996,108.84111980000307,x,0.25045540000428446,None,108.84117200000037,108.8476393000019,109.02861439999833,108.58348939999996,,,,,,,,PN_en,001,2025-03-14_19h21.54.102,MainFlow,2024.2.4,144.36222213572165,2025-03-14 19h22.05.444332 +0700,
2,1,1,6,letter/letten091.png,letter/lettth132.png,70,70,0,z,0.23360959999990882,None,0,70,70,70,109.04227009999886,,,,,,,109.04227009999886,110.0296279000031,110.03632469999866,110.03632469999866,110.27315130000352,z,0.23360959999990882,None,110.27320340000006,110.27960700000403,110.46057370000199,110.03632469999866,,,,,,,,PN_en,001,2025-03-14_19h21.54.102,MainFlow,2024.2.4,144.36222213572165,2025-03-14 19h22.05.444332 +0700,
2,3,2,3,letter/lettgr063.png,letter/letten061.png,71,71,0,x,0.5866351000004215,None,0,71,71,71,110.47428460000083,,,,,,,110.47428460000083,111.46165340000152,111.46829270000308,111.46829270000308,112.05964179999864,x,0.5866351000004215,None,112.05969650000043,112.06611820000398,112.24709309999889,111.46829270000308,,,,,,,,PN_en,001,2025-03-14_19h21.54.102,MainFlow,2024.2.4,144.36222213572165,2025-03-14 19h22.05.444332 +0700,
2,3,2,6,letter/lettgr066.png,letter/letten061.png,72,72,0,x,0.2561195999951451,None,0,72,72,72,112.26077259999875,,,,,,,112.26077259999875,113.24812299999758,113.25480000000243,113.25480000000243,113.51251330000377,x,0.2561195999951451,None,113.51256979999744,113.51894319999701,113.6999388999975,113.25480000000243,,,,,,,,PN_en,001,2025-03-14_19h21.54.102,MainFlow,2024.2.4,144.36222213572165,2025-03-14 19h22.05.444332 +0700,
2,3,2,7,letter/lettgr065.png,letter/letten062.png,73,73,0,x,0.6032829999967362,None,0,73,73,73,113.71361369999795,,,,,,,113.71361369999795,114.70098780000262,114.70764040000358,114.70764040000358,115.31296499999735,x,0.6032829999967362,None,115.31302059999871,115.3193670000037,115.500320500003,114.70764040000358,,,,,,,,PN_en,001,2025-03-14_19h21.54.102,MainFlow,2024.2.4,144.36222213572165,2025-03-14 19h22.05.444332 +0700,
2,2,2,2,letter/lettkh013.png,letter/letten121.png,74,74,0,x,0.6828823000032571,None,0,74,74,74,115.5140035000004,,,,,,,115.5140035000004,116.50136819999898,116.50804049999715,116.50804049999715,117.19669769999746,x,0.6828823000032571,None,117.19675300000381,117.20317870000144,117.3841412000038,116.50804049999715,,,,,,,,PN_en,001,2025-03-14_19h21.54.102,MainFlow,2024.2.4,144.36222213572165,2025-03-14 19h22.05.444332 +0700,
2,3,2,7,letter/lettgr065.png,letter/letten062.png,75,75,0,x,0.3110804000025382,None,0,75,75,75,117.39781419999781,,,,,,,117.39781419999781,118.38520979999885,118.3918715999971,118.3918715999971,118.70522530000017,x,0.3110804000025382,None,118.70528159999958,118.71163730000262,118.89262179999787,118.3918715999971,,,,,,,,PN_en,001,2025-03-14_19h21.54.102,MainFlow,2024.2.4,144.36222213572165,2025-03-14 19h22.05.444332 +0700,
2,2,2,7,letter/lettkh083.png,letter/letten112.png,76,76,0,x,0.49162670000077924,None,0,76,76,76,118.90629110000009,,,,,,,118.90629110000009,119.89364590000332,119.90032090000022,119.90032090000022,120.39442850000341,x,0.49162670000077924,None,120.39448719999928,120.40081459999783,120.58176890000323,119.90032090000022,,,,,,,,PN_en,001,2025-03-14_19h21.54.102,MainFlow,2024.2.4,144.36222213572165,2025-03-14 19h22.05.444332 +0700,
2,3,2,8,letter/lettgr152.png,letter/letten152.png,77,77,0,x,0.1864415000018198,None,0,77,77,77,120.59542289999808,,,,,,,120.59542289999808,121.58285690000048,121.5895010000022,121.5895010000022,121.77768540000397,x,0.1864415000018198,None,121.77773619999789,121.78414100000373,121.96509040000092,121.5895010000022,,,,,,,,PN_en,001,2025-03-14_19h21.54.102,MainFlow,2024.2.4,144.36222213572165,2025-03-14 19h22.05.444332 +0700,
2,1,2,4,letter/lettth011.png,letter/letten101.png,78,78,0,x,0.20313360000000102,None,0,78,78,78,121.97880309999891,,,,,,,121.97880309999891,122.96614219999901,122.97282909999922,122.97282909999922,123.1818637000033,x,0.20313360000000102,None,123.18192100000306,123.18831209999917,123.36930250000296,122.97282909999922,,,,,,,,PN_en,001,2025-03-14_19h21.54.102,MainFlow,2024.2.4,144.36222213572165,2025-03-14 19h22.05.444332 +0700,
2,3,2,1,letter/lettgr021.png,letter/letten021.png,79,79,0,x,0.23093789999984438,None,0,79,79,79,123.38295610000205,,,,,,,123.38295610000205,124.37032600000384,124.37698329999694,124.37698329999694,124.61388050000096,x,0.23093789999984438,None,124.61393939999834,124.62030219999724,124.80127940000239,124.37698329999694,,,,,,,,PN_en,001,2025-03-14_19h21.54.102,MainFlow,2024.2.4,144.36222213572165,2025-03-14 19h22.05.444332 +0700,
2,3,2,6,letter/lettgr066.png,letter/letten061.png,80,80,0,x,0.19092719999753172,None,0,80,80,80,124.81493290000071,,,,,,,124.81493290000071,125.8023181000026,125.80899340000178,125.80899340000178,126.00414029999956,x,0.19092719999753172,None,126.00419240000338,126.01054920000024,126.19157480000285,125.80899340000178,,,,,,,,PN_en,001,2025-03-14_19h21.54.102,MainFlow,2024.2.4,144.36222213572165,2025-03-14 19h22.05.444332 +0700,
2,1,2,7,letter/lettth132.png,letter/letten062.png,81,81,0,x,0.19360779999988154,None,0,81,81,81,126.20522180000262,,,,,,,126.20522180000262,127.19257939999807,127.19931609999912,127.19931609999912,127.39445490000071,x,0.19360779999988154,None,127.39450799999759,127.40085859999817,127.58182569999917,127.19931609999912,,,,,,,,PN_en,001,2025-03-14_19h21.54.102,MainFlow,2024.2.4,144.36222213572165,2025-03-14 19h22.05.444332 +0700,
2,2,1,4,letter/letten071.png,letter/lettkh055.png,82,82,0,z,0.0753846000006888,None,0,82,82,82,127.59550450000097,,,,,,,127.59550450000097,128.582862700001,128.58953920000204,128.58953920000204,128.6664684999996,z,0.0753846000006888,None,128.66651850000198,128.67296019999776,128.85392929999944,128.58953920000204,,,,,,,,PN_en,001,2025-03-14_19h21.54.102,MainFlow,2024.2.4,144.36222213572165,2025-03-14 19h22.05.444332 +0700,
2,1,2,4,letter/lettth011.png,letter/letten101.png,83,83,0,x,0.41927399999985937,None,0,83,83,83,128.86757690000377,,,,,,,128.86757690000377,129.85499710000295,129.86164570000255,129.86164570000255,130.2862049000032,x,0.41927399999985937,None,130.28625810000085,130.29263319999882,130.4736105999982,129.86164570000255,,,,,,,,PN_en,001,2025-03-14_19h21.54.102,MainFlow,2024.2.4,144.36222213572165,2025-03-14 19h22.05.444332 +0700,
2,1,1,7,letter/letten062.png,letter/lettth132.png,84,84,0,z,0.2076158999989275,None,0,84,84,84,130.487277799999,,,,,,,130.487277799999,131.474598599998,131.4813112999982,131.4813112999982,131.6906517000025,z,0.2076158999989275,None,131.6907130000036,131.6966723000005,131.87778210000397,131.4813112999982,,,,,,,,PN_en,001,2025-03-14_19h21.54.102,MainFlow,2024.2.4,144.36222213572165,2025-03-14 19h22.05.444332 +0700,
2,1,1,1,letter/letten041.png,letter/lettth022.png,85,85,0,z,0.26741929999843705,None,0,85,85,85,131.8914541999984,,,,,,,131.8914541999984,132.8788063000029,132.88550440000108,132.88550440000108,133.15711629999714,z,0.26741929999843705,None,133.15716690000409,133.1635632000034,133.34451139999874,132.88550440000108,,,,,,,,PN_en,001,2025-03-14_19h21.54.102,MainFlow,2024.2.4,144.36222213572165,2025-03-14 19h22.05.444332 +0700,
2,1,1,7,letter/letten062.png,letter/lettth132.png,86,86,0,z,0.20170599999983096,None,0,86,86,86,133.35824890000367,,,,,,,133.35824890000367,134.34555120000005,134.35222330000397,134.35222330000397,134.5545684000026,z,0.20170599999983096,None,134.55463299999974,134.5607710999975,134.74173529999825,134.35222330000397,,,,,,,,PN_en,001,2025-03-14_19h21.54.102,MainFlow,2024.2.4,144.36222213572165,2025-03-14 19h22.05.444332 +0700,
2,3,1,6,letter/letten061.png,letter/lettgr066.png,87,87,0,z,0.3084891000034986,None,0,87,87,87,134.75542500000302,,,,,,,134.75542500000302,135.74278100000083,135.74943129999883,135.74943129999883,136.06281950000266,z,0.3084891000034986,None,136.06287169999996,136.0692213000002,136.25021250000282,135.74943129999883,,,,,,,,PN_en,001,2025-03-14_19h21.54.102,MainFlow,2024.2.4,144.36222213572165,2025-03-14 19h22.05.444332 +0700,
2,1,1,3,letter/letten142.png,letter/lettth152.png,88,88,0,z,0.4560007999971276,None,0,88,88,88,136.26386179999827,,,,,,,136.26386179999827,137.25113070000225,137.25792309999815,137.25792309999815,137.71725970000261,z,0.4560007999971276,None,137.71731430000364,137.72365359999822,137.90462839999964,137.25792309999815,,,,,,,,PN_en,001,2025-03-14_19h21.54.102,MainFlow,2024.2.4,144.36222213572165,2025-03-14 19h22.05.444332 +0700,
2,3,2,5,letter/lettgr012.png,letter/letten011.png,89,89,0,x,0.16958639999938896,None,0,89,89,89,137.91825090000202,,,,,,,137.91825090000202,138.90567880000162,138.91233829999692,138.91233829999692,139.08687780000037,x,0.16958639999938896,None,139.08695340000122,139.09308299999975,139.27407610000228,138.91233829999692,,,,,,,,PN_en,001,2025-03-14_19h21.54.102,MainFlow,2024.2.4,144.36222213572165,2025-03-14 19h22.05.444332 +0700,
2,2,2,8,letter/lettkh035.png,letter/letten051.png,90,90,0,x,0.1841645999957109,None,0,90,90,90,139.28773039999942,,,,,,,139.28773039999942,140.27511819999927,140.28176189999795,140.28176189999795,140.4699202999982,x,0.1841645999957109,None,140.4699757999988,140.47639619999973,140.65735410000343,140.28176189999795,,,,,,,,PN_en,001,2025-03-14_19h21.54.102,MainFlow,2024.2.4,144.36222213572165,2025-03-14 19h22.05.444332 +0700,
2,1,1,8,letter/letten131.png,letter/lettth022.png,91,91,0,z,1.3378392000013264,None,0,91,91,91,140.6709919999994,,,,,,,140.6709919999994,141.65839950000372,141.66507960000308,141.66507960000308,143.00742460000038,z,1.3378392000013264,None,143.0074883999987,143.01364930000273,143.19461910000246,141.66507960000308,,,,,,,,PN_en,001,2025-03-14_19h21.54.102,MainFlow,2024.2.4,144.36222213572165,2025-03-14 19h22.05.444332 +0700,
2,1,2,1,letter/lettth022.png,letter/letten041.png,92,92,0,x,0.38459790000342764,None,0,92,92,92,143.2082847999991,,,,,,,143.2082847999991,144.19566540000233,144.20234190000338,144.20234190000338,144.59211920000234,x,0.38459790000342764,None,144.59217419999914,144.5985604000016,144.77954339999997,144.20234190000338,,,,,,,,PN_en,001,2025-03-14_19h21.54.102,MainFlow,2024.2.4,144.36222213572165,2025-03-14 19h22.05.444332 +0700,
2,3,1,7,letter/letten062.png,letter/lettgr065.png,93,93,0,z,0.21567940000386443,None,0,93,93,93,144.7932101999977,,,,,,,144.7932101999977,145.78056949999882,145.78727120000258,145.78727120000258,146.01020550000248,z,0.21567940000386443,None,146.01025980000122,146.01665299999877,146.19763260000036,145.78727120000258,,,,,,,,PN_en,001,2025-03-14_19h21.54.102,MainFlow,2024.2.4,144.36222213572165,2025-03-14 19h22.05.444332 +0700,
2,2,1,3,letter/letten071.png,letter/lettkh091.png,94,94,0,z,0.24558699999761302,None,0,94,94,94,146.2112868999975,,,,,,,146.2112868999975,147.19866460000048,147.2053323,147.2053323,147.4560824,z,0.24558699999761302,None,147.45613510000112,147.46252719999757,147.64352409999992,147.2053323,,,,,,,,PN_en,001,2025-03-14_19h21.54.102,MainFlow,2024.2.4,144.36222213572165,2025-03-14 19h22.05.444332 +0700,
2,2,2,1,letter/lettkh159.png,letter/letten153.png,95,95,0,x,0.20876039999711793,None,0,95,95,95,147.65719340000214,,,,,,,147.65719340000214,148.64453800000047,148.65123660000245,148.65123660000245,148.86719350000203,x,0.20876039999711793,None,148.86724649999815,148.87367649999942,149.05461379999906,148.65123660000245,,,,,,,,PN_en,001,2025-03-14_19h21.54.102,MainFlow,2024.2.4,144.36222213572165,2025-03-14 19h22.05.444332 +0700,
,,,,,,,,,,,,,,,,,,,,,,,,,,,,,,,,,,,149.05467340000178,149.06135260000156,149.06135260000156,151.82151460000023,space,2.754567699994368,None,PN_en,001,2025-03-14_19h21.54.102,MainFlow,2024.2.4,144.36222213572165,2025-03-14 19h22.05.444332 +0700,
