lang,langpair,sequence,pairid,firstdir,seconddir,thisN,thisTrialN,thisRepN,key_resp.keys,key_resp.rt,key_resp.duration,trials.thisRepN,trials.thisTrialN,trials.thisN,trials.thisIndex,thisRow.t,notes,tutorial.started,tutorial.stopped,key_instruct.keys,key_instruct.rt,key_instruct.duration,image_first.started,letterselect.started,instruct.started,key_resp.started,letterselect.stopped,trials.key_resp.keys,trials.key_resp.rt,trials.key_resp.duration,blanknext.started,instruct_2.started,blanknext.stopped,image_first.stopped,ending.started,text_3.started,ending_key.started,ending.stopped,ending_key.keys,ending_key.rt,ending_key.duration,participant,session,date,expName,psychopyVersion,frameRate,expStart,
,,,,,,,,,,,,,,,,,,0.003531199999997625,1.2219929999992019,space,1.19425560000127,None,,,,,,,,,,,,,,,,,,,,PT_th,001,2025-03-12_16h30.22.668,MainFlow,2024.2.4,129.94759213768427,2025-03-12 16h30.32.029058 +0700,
1,1,2,1,letter/letten092.png,letter/lettth022.png,0,0,0,x,0.05393550000007963,None,0,0,0,0,1.2561642000000575,,,,,,,1.2561642000000575,2.2320189000001847,2.2359123999995063,2.2359123999995063,2.2907383000001573,x,0.05393550000007963,None,2.292840399999477,2.2966372999999294,2.477740799999083,,,,,,,,,PT_th,001,2025-03-12_16h30.22.668,MainFlow,2024.2.4,129.94759213768427,2025-03-12 16h30.32.029058 +0700,
1,3,2,8,letter/lettgr153.png,letter/lettth013.png,1,1,0,x,0.2993812999993679,None,0,1,1,1,2.4855498999986594,,,,,,,2.4855498999986594,3.4711235999984638,3.484523799999806,3.484523799999806,3.790512999999919,x,0.2993812999993679,None,3.790575600000011,3.796966199999588,3.97771769999963,3.477538299999651,,,,,,,,PT_th,001,2025-03-12_16h30.22.668,MainFlow,2024.2.4,129.94759213768427,2025-03-12 16h30.32.029058 +0700,
1,1,2,1,letter/letten092.png,letter/lettth022.png,2,2,0,x,0.20943280000028608,None,0,2,2,2,3.9844524999989517,,,,,,,3.9844524999989517,4.970909499999834,4.98446199999853,4.98446199999853,5.200374099998953,x,0.20943280000028608,None,5.200451199998497,5.206769999998869,5.387880199999927,4.977563200000077,,,,,,,,PT_th,001,2025-03-12_16h30.22.668,MainFlow,2024.2.4,129.94759213768427,2025-03-12 16h30.32.029058 +0700,
1,2,2,4,letter/lettkh034.png,letter/lettth153.png,3,3,0,x,0.3344369000005827,None,0,3,3,3,5.396674099998563,,,,,,,5.396674099998563,6.380526899998586,6.3940796999995655,6.3940796999995655,6.735183900000266,x,0.3344369000005827,None,6.735263699998541,6.742108599999483,6.922206899998855,6.38702099999864,,,,,,,,PT_th,001,2025-03-12_16h30.22.668,MainFlow,2024.2.4,129.94759213768427,2025-03-12 16h30.32.029058 +0700,
1,2,2,4,letter/lettkh034.png,letter/lettth153.png,4,4,0,x,0.3376265999995667,None,0,4,4,4,6.929358699999284,,,,,,,6.929358699999284,7.91520169999967,7.928961399999025,7.928961399999025,8.269778399999268,x,0.3376265999995667,None,8.269838599999275,8.276280699999916,8.456999799998812,7.922000399999888,,,,,,,,PT_th,001,2025-03-12_16h30.22.668,MainFlow,2024.2.4,129.94759213768427,2025-03-12 16h30.32.029058 +0700,
1,2,1,7,letter/lettth072.png,letter/lettkh033.png,5,5,0,z,0.7119277000001603,None,0,5,5,5,8.466839699998673,,,,,,,8.466839699998673,9.45005189999938,9.463795399999071,9.463795399999071,10.17951019999964,z,0.7119277000001603,None,10.179597700000159,10.185963699999775,10.366646499998751,9.456736599999203,,,,,,,,PT_th,001,2025-03-12_16h30.22.668,MainFlow,2024.2.4,129.94759213768427,2025-03-12 16h30.32.029058 +0700,
1,2,1,2,letter/lettth032.png,letter/lettkh032.png,6,6,0,x,0.9669644000005064,None,0,6,6,6,10.374480200000107,,,,,,,10.374480200000107,11.359759400000257,11.372843699999066,11.372843699999066,12.345909099998607,x,0.9669644000005064,None,12.34597500000018,12.352350600000136,12.533083399999668,11.36642539999957,,,,,,,,PT_th,001,2025-03-12_16h30.22.668,MainFlow,2024.2.4,129.94759213768427,2025-03-12 16h30.32.029058 +0700,
1,3,1,4,letter/lettth024.png,letter/lettgr064.png,7,7,0,z,0.3136406000012357,None,0,7,7,7,12.540591199998744,,,,,,,12.540591199998744,13.526130999998713,13.539747199998601,13.539747199998601,13.859672599999612,z,0.3136406000012357,None,13.85972799999945,13.866138999999748,14.046896099998776,13.532760799998869,,,,,,,,PT_th,001,2025-03-12_16h30.22.668,MainFlow,2024.2.4,129.94759213768427,2025-03-12 16h30.32.029058 +0700,
1,2,1,5,letter/lettth024.png,letter/lettkh023.png,8,8,0,z,0.36421059999884164,None,0,8,8,8,14.053761499999382,,,,,,,14.053761499999382,15.039918399999806,15.053547099998468,15.053547099998468,15.422510399999737,z,0.36421059999884164,None,15.422581099999661,15.42885749999914,15.60952129999896,15.046570699998483,,,,,,,,PT_th,001,2025-03-12_16h30.22.668,MainFlow,2024.2.4,129.94759213768427,2025-03-12 16h30.32.029058 +0700,
1,1,2,5,letter/letten041.png,letter/lettth152.png,9,9,0,x,0.23075489999973797,None,0,9,9,9,15.616819299999406,,,,,,,15.616819299999406,16.602665099999285,16.61632119999922,16.61632119999922,16.852480099998502,x,0.23075489999973797,None,16.852545899999313,16.859028499999113,17.040223299998615,16.609320899999148,,,,,,,,PT_th,001,2025-03-12_16h30.22.668,MainFlow,2024.2.4,129.94759213768427,2025-03-12 16h30.32.029058 +0700,
1,2,2,6,letter/lettkh033.png,letter/lettth161.png,10,10,0,x,0.4300349000004644,None,0,10,10,10,17.048013800000263,,,,,,,17.048013800000263,18.033521299999848,18.046867699998984,18.046867699998984,18.477730799999335,x,0.4300349000004644,None,18.477794799999174,18.484086299999035,18.66468199999872,18.039926499999638,,,,,,,,PT_th,001,2025-03-12_16h30.22.668,MainFlow,2024.2.4,129.94759213768427,2025-03-12 16h30.32.029058 +0700,
1,3,2,7,letter/lettgr072.png,letter/lettth025.png,11,11,0,x,0.33344229999966046,None,0,11,11,11,18.671420699998635,,,,,,,18.671420699998635,19.657872799998586,19.67138689999956,19.67138689999956,20.00563340000008,x,0.33344229999966046,None,20.005696099999113,20.01188689999981,20.192596799999592,19.66440259999945,,,,,,,,PT_th,001,2025-03-12_16h30.22.668,MainFlow,2024.2.4,129.94759213768427,2025-03-12 16h30.32.029058 +0700,
1,1,2,2,letter/letten062.png,letter/lettth061.png,12,12,0,x,0.4004105999993044,None,0,12,12,12,20.20139509999899,,,,,,,20.20139509999899,21.185589900000195,21.199218599998858,21.199218599998858,21.602510099999563,x,0.4004105999993044,None,21.602563700000246,21.60902559999886,21.789812099999835,21.19227039999896,,,,,,,,PT_th,001,2025-03-12_16h30.22.668,MainFlow,2024.2.4,129.94759213768427,2025-03-12 16h30.32.029058 +0700,
1,2,2,8,letter/lettkh031.png,letter/lettth153.png,13,13,0,x,0.5573739999999816,None,0,13,13,13,21.796990499999083,,,,,,,21.796990499999083,22.78275079999912,22.796357600000192,22.796357600000192,23.35955119999926,x,0.5573739999999816,None,23.359605499999816,23.366135999998733,23.546875899999577,22.789358699999866,,,,,,,,PT_th,001,2025-03-12_16h30.22.668,MainFlow,2024.2.4,129.94759213768427,2025-03-12 16h30.32.029058 +0700,
1,2,2,2,letter/lettkh032.png,letter/lettth032.png,14,14,0,x,0.35853709999901184,None,0,14,14,14,23.555959299999813,,,,,,,23.555959299999813,24.539869899999758,24.55349109999952,24.55349109999952,24.914983099999517,x,0.35853709999901184,None,24.915038099999947,24.921378699998968,25.102002699999503,24.546526000000085,,,,,,,,PT_th,001,2025-03-12_16h30.22.668,MainFlow,2024.2.4,129.94759213768427,2025-03-12 16h30.32.029058 +0700,
1,3,2,1,letter/lettgr143.png,letter/lettth132.png,15,15,0,x,0.6032480000012583,None,0,15,15,15,25.109112999998615,,,,,,,25.109112999998615,26.095605799999248,26.108694900000046,26.108694900000046,26.713734699998895,x,0.6032480000012583,None,26.71379739999975,26.7198671999995,26.900573400000212,26.101740099999006,,,,,,,,PT_th,001,2025-03-12_16h30.22.668,MainFlow,2024.2.4,129.94759213768427,2025-03-12 16h30.32.029058 +0700,
1,3,2,6,letter/lettgr061.png,letter/lettth082.png,16,16,0,x,0.4187512999997125,None,0,16,16,16,26.907590099999652,,,,,,,26.907590099999652,27.89405909999914,27.907163399999263,27.907163399999263,28.331421699998828,x,0.4187512999997125,None,28.33148540000002,28.33791519999977,28.51870549999876,27.900727999998708,,,,,,,,PT_th,001,2025-03-12_16h30.22.668,MainFlow,2024.2.4,129.94759213768427,2025-03-12 16h30.32.029058 +0700,
1,2,2,6,letter/lettkh033.png,letter/lettth161.png,17,17,0,x,1.308854799999608,None,0,17,17,17,28.526509899998928,,,,,,,28.526509899998928,29.51212579999992,29.525267499999245,29.525267499999245,30.838347499999145,x,1.308854799999608,None,30.838405099999363,30.844736699998975,31.026028399999632,29.518249900000228,,,,,,,,PT_th,001,2025-03-12_16h30.22.668,MainFlow,2024.2.4,129.94759213768427,2025-03-12 16h30.32.029058 +0700,
1,3,1,3,letter/lettth155.png,letter/lettgr153.png,18,18,0,z,0.5309777999991638,None,0,18,18,18,31.035022899999603,,,,,,,31.035022899999603,32.01894439999887,32.03260379999847,32.03260379999847,32.56750180000017,z,0.5309777999991638,None,32.56756829999904,32.57396030000018,32.75468480000018,32.02563399999963,,,,,,,,PT_th,001,2025-03-12_16h30.22.668,MainFlow,2024.2.4,129.94759213768427,2025-03-12 16h30.32.029058 +0700,
1,3,2,1,letter/lettgr143.png,letter/lettth132.png,19,19,0,x,0.6710420999988855,None,0,19,19,19,32.76163589999851,,,,,,,32.76163589999851,33.74771239999973,33.761329599999954,33.761329599999954,34.43566559999999,x,0.6710420999988855,None,34.43572359999962,34.44220799999857,34.622930699999415,33.75435389999984,,,,,,,,PT_th,001,2025-03-12_16h30.22.668,MainFlow,2024.2.4,129.94759213768427,2025-03-12 16h30.32.029058 +0700,
1,3,1,1,letter/lettth132.png,letter/lettgr143.png,20,20,0,z,0.4912139999996725,None,0,20,20,20,34.63173669999924,,,,,,,34.63173669999924,35.616076299998895,35.62961539999924,35.62961539999924,36.12314229999902,z,0.4912139999996725,None,36.12321879999945,36.129565600000205,36.31019769999875,35.62264569999934,,,,,,,,PT_th,001,2025-03-12_16h30.22.668,MainFlow,2024.2.4,129.94759213768427,2025-03-12 16h30.32.029058 +0700,
1,1,2,8,letter/letten031.png,letter/lettth161.png,21,21,0,x,0.4082646000006207,None,0,21,21,21,36.31765799999994,,,,,,,36.31765799999994,37.30333879999853,37.3168526999998,37.3168526999998,37.72716339999897,x,0.4082646000006207,None,37.72721989999991,37.733663299999535,37.914628299999094,37.30996159999995,,,,,,,,PT_th,001,2025-03-12_16h30.22.668,MainFlow,2024.2.4,129.94759213768427,2025-03-12 16h30.32.029058 +0700,
1,1,1,5,letter/lettth152.png,letter/letten041.png,22,22,0,z,0.41381230000115465,None,0,22,22,22,37.92236469999989,,,,,,,37.92236469999989,38.90739129999929,38.92110109999885,38.92110109999885,39.338557899998705,z,0.41381230000115465,None,39.3386247999988,39.3447157999999,39.52267260000008,38.914063799998985,,,,,,,,PT_th,001,2025-03-12_16h30.22.668,MainFlow,2024.2.4,129.94759213768427,2025-03-12 16h30.32.029058 +0700,
1,1,2,6,letter/letten153.png,letter/lettth024.png,23,23,0,x,0.4890163999989454,None,0,23,23,23,39.53039549999994,,,,,,,39.53039549999994,40.51551560000007,40.529089799998474,40.529089799998474,41.02276569999958,x,0.4890163999989454,None,41.02284259999942,41.02909170000021,41.209983499999,40.5221032999998,,,,,,,,PT_th,001,2025-03-12_16h30.22.668,MainFlow,2024.2.4,129.94759213768427,2025-03-12 16h30.32.029058 +0700,
1,1,1,8,letter/lettth161.png,letter/letten031.png,24,24,0,z,0.44673949999923934,None,0,24,24,24,41.21663019999869,,,,,,,41.21663019999869,42.20298969999931,42.21652819999872,42.21652819999872,42.668627499999275,z,0.44673949999923934,None,42.668695399999706,42.675091499999326,42.85584949999975,42.20966479999879,,,,,,,,PT_th,001,2025-03-12_16h30.22.668,MainFlow,2024.2.4,129.94759213768427,2025-03-12 16h30.32.029058 +0700,
1,3,1,1,letter/lettth132.png,letter/lettgr143.png,25,25,0,z,0.6343663999996352,None,0,25,25,25,42.86326129999907,,,,,,,42.86326129999907,43.848904200000106,43.862475099998846,43.862475099998846,44.5020327000002,z,0.6343663999996352,None,44.502097599999615,44.50847099999919,44.689234899999065,43.855501099998946,,,,,,,,PT_th,001,2025-03-12_16h30.22.668,MainFlow,2024.2.4,129.94759213768427,2025-03-12 16h30.32.029058 +0700,
1,3,2,4,letter/lettgr064.png,letter/lettth024.png,26,26,0,x,0.7444989000014175,None,0,26,26,26,44.69938819999879,,,,,,,44.69938819999879,45.68237549999867,45.69590529999914,45.69590529999914,46.44626210000024,x,0.7444989000014175,None,46.44632989999991,46.45257239999955,46.63336960000015,45.68887529999847,,,,,,,,PT_th,001,2025-03-12_16h30.22.668,MainFlow,2024.2.4,129.94759213768427,2025-03-12 16h30.32.029058 +0700,
1,2,1,6,letter/lettth161.png,letter/lettkh033.png,27,27,0,z,0.345031699998799,None,0,27,27,27,46.641105900000184,,,,,,,46.641105900000184,47.626671299998634,47.639811899998676,47.639811899998676,47.98799279999912,z,0.345031699998799,None,47.98807449999913,47.994282899999234,48.17500029999974,47.632836699998734,,,,,,,,PT_th,001,2025-03-12_16h30.22.668,MainFlow,2024.2.4,129.94759213768427,2025-03-12 16h30.32.029058 +0700,
1,2,1,1,letter/lettth061.png,letter/lettkh034.png,28,28,0,z,0.4025882999994792,None,0,28,28,28,48.1820321999985,,,,,,,48.1820321999985,49.16820579999876,49.181696399999055,49.181696399999055,49.58504069999981,z,0.4025882999994792,None,49.58510099999876,49.59139349999896,49.77207929999895,49.17472119999911,,,,,,,,PT_th,001,2025-03-12_16h30.22.668,MainFlow,2024.2.4,129.94759213768427,2025-03-12 16h30.32.029058 +0700,
1,1,2,7,letter/letten051.png,letter/lettth025.png,29,29,0,x,0.37012899999899673,None,0,29,29,29,49.78023639999992,,,,,,,49.78023639999992,50.76525869999932,50.77879419999954,50.77879419999954,51.15492489999997,x,0.37012899999899673,None,51.15500659999998,51.16041789999872,51.3418400999999,50.77183299999888,,,,,,,,PT_th,001,2025-03-12_16h30.22.668,MainFlow,2024.2.4,129.94759213768427,2025-03-12 16h30.32.029058 +0700,
1,2,2,7,letter/lettkh033.png,letter/lettth072.png,30,30,0,x,0.2897645000011835,None,0,30,30,30,51.349395499999446,,,,,,,51.349395499999446,52.33484899999894,52.34845989999849,52.34845989999849,52.64060049999898,x,0.2897645000011835,None,52.640663700000005,52.647038999999495,52.82776550000017,52.341474499999094,,,,,,,,PT_th,001,2025-03-12_16h30.22.668,MainFlow,2024.2.4,129.94759213768427,2025-03-12 16h30.32.029058 +0700,
1,2,1,8,letter/lettth153.png,letter/lettkh031.png,31,31,0,z,0.46745999999984633,None,0,31,31,31,52.83476929999961,,,,,,,52.83476929999961,53.82072849999895,53.834388999999646,53.834388999999646,54.307137599998896,z,0.46745999999984633,None,54.30720250000013,54.31349159999991,54.494190499999604,53.8274051999997,,,,,,,,PT_th,001,2025-03-12_16h30.22.668,MainFlow,2024.2.4,129.94759213768427,2025-03-12 16h30.32.029058 +0700,
1,1,1,2,letter/lettth061.png,letter/letten062.png,32,32,0,z,0.405294900001536,None,0,32,32,32,54.50124499999947,,,,,,,54.50124499999947,55.48721370000021,55.5008001999995,55.5008001999995,55.91104119999909,z,0.405294900001536,None,55.911106099998506,55.91753299999982,56.09817949999888,55.49379779999981,,,,,,,,PT_th,001,2025-03-12_16h30.22.668,MainFlow,2024.2.4,129.94759213768427,2025-03-12 16h30.32.029058 +0700,
1,3,1,7,letter/lettth025.png,letter/lettgr072.png,33,33,0,z,0.5412429999996675,None,0,33,33,33,56.10563279999951,,,,,,,56.10563279999951,57.09120900000016,57.104849399998784,57.104849399998784,57.64724489999935,z,0.5412429999996675,None,57.647303399999146,57.653750299999956,57.83436799999981,57.097862699998586,,,,,,,,PT_th,001,2025-03-12_16h30.22.668,MainFlow,2024.2.4,129.94759213768427,2025-03-12 16h30.32.029058 +0700,
1,1,1,3,letter/lettth092.png,letter/letten041.png,34,34,0,z,0.41871399999945424,None,0,34,34,34,57.84307399999852,,,,,,,57.84307399999852,58.8273922999997,58.841026500000225,58.841026500000225,59.26545989999977,z,0.41871399999945424,None,59.26552709999851,59.271781100000226,59.45242700000017,58.83403769999859,,,,,,,,PT_th,001,2025-03-12_16h30.22.668,MainFlow,2024.2.4,129.94759213768427,2025-03-12 16h30.32.029058 +0700,
1,3,1,5,letter/lettth052.png,letter/lettgr141.png,35,35,0,z,0.4889960999989853,None,0,35,35,35,59.4602519,,,,,,,59.4602519,60.44548289999875,60.459121299998515,60.459121299998515,60.952796199999284,z,0.4889960999989853,None,60.95285899999908,60.95911460000025,61.139827899998636,60.45214399999895,,,,,,,,PT_th,001,2025-03-12_16h30.22.668,MainFlow,2024.2.4,129.94759213768427,2025-03-12 16h30.32.029058 +0700,
1,1,1,6,letter/lettth024.png,letter/letten153.png,36,36,0,z,0.4208526999991591,None,0,36,36,36,61.146636800000124,,,,,,,61.146636800000124,62.13285109999924,62.14652380000007,62.14652380000007,62.570643899998686,z,0.4208526999991591,None,62.57072009999865,62.57714560000022,62.75780870000017,62.139509099999486,,,,,,,,PT_th,001,2025-03-12_16h30.22.668,MainFlow,2024.2.4,129.94759213768427,2025-03-12 16h30.32.029058 +0700,
1,1,1,3,letter/lettth092.png,letter/letten041.png,37,37,0,z,0.407742600000347,None,0,37,37,37,62.76478259999931,,,,,,,62.76478259999931,63.750832300000184,63.76448489999893,63.76448489999893,64.17476429999988,z,0.407742600000347,None,64.17482380000001,64.18123349999951,64.36194339999929,63.757484899999326,,,,,,,,PT_th,001,2025-03-12_16h30.22.668,MainFlow,2024.2.4,129.94759213768427,2025-03-12 16h30.32.029058 +0700,
1,1,1,7,letter/lettth025.png,letter/letten051.png,38,38,0,z,0.3424966000002314,None,0,38,38,38,64.36909579999883,,,,,,,64.36909579999883,65.35498550000011,65.36865119999857,65.36865119999857,65.71653689999948,z,0.3424966000002314,None,65.71659790000012,65.7230585999987,65.90369479999936,65.3616521999993,,,,,,,,PT_th,001,2025-03-12_16h30.22.668,MainFlow,2024.2.4,129.94759213768427,2025-03-12 16h30.32.029058 +0700,
1,3,1,6,letter/lettth082.png,letter/lettgr061.png,39,39,0,z,0.3303351999984443,None,0,39,39,39,65.9124828999993,,,,,,,65.9124828999993,66.89672959999916,66.91035790000024,66.91035790000024,67.24433439999848,z,0.3303351999984443,None,67.24439659999916,67.25083319999976,67.43192439999984,66.90337290000025,,,,,,,,PT_th,001,2025-03-12_16h30.22.668,MainFlow,2024.2.4,129.94759213768427,2025-03-12 16h30.32.029058 +0700,
1,2,1,4,letter/lettth153.png,letter/lettkh034.png,40,40,0,z,0.27653210000062245,None,0,40,40,40,67.44010399999934,,,,,,,67.44010399999934,68.42468649999864,68.43825929999912,68.43825929999912,68.71662269999979,z,0.27653210000062245,None,68.71668390000013,68.72288809999918,68.90367719999995,68.4312743999999,,,,,,,,PT_th,001,2025-03-12_16h30.22.668,MainFlow,2024.2.4,129.94759213768427,2025-03-12 16h30.32.029058 +0700,
1,3,2,8,letter/lettgr153.png,letter/lettth013.png,41,41,0,x,0.3988693000010244,None,0,41,41,41,68.91097609999997,,,,,,,68.91097609999997,69.8967047999995,69.91027739999845,69.91027739999845,70.31450339999901,x,0.3988693000010244,None,70.31456769999932,70.31998769999882,70.50097749999986,69.90322419999939,,,,,,,,PT_th,001,2025-03-12_16h30.22.668,MainFlow,2024.2.4,129.94759213768427,2025-03-12 16h30.32.029058 +0700,
1,1,1,4,letter/lettth041.png,letter/letten091.png,42,42,0,z,0.32048549999854004,None,0,42,42,42,70.50870059999943,,,,,,,70.50870059999943,71.49383200000011,71.50740919999953,71.50740919999953,71.83446670000012,z,0.32048549999854004,None,71.83453989999907,71.84083289999944,72.02155279999897,71.50043759999971,,,,,,,,PT_th,001,2025-03-12_16h30.22.668,MainFlow,2024.2.4,129.94759213768427,2025-03-12 16h30.32.029058 +0700,
1,3,1,8,letter/lettth013.png,letter/lettgr153.png,43,43,0,z,0.42937030000030063,None,0,43,43,43,72.03056089999882,,,,,,,72.03056089999882,73.01447689999986,73.02814450000005,73.02814450000005,73.45931989999917,z,0.42937030000030063,None,73.45937549999871,73.46582560000024,73.64650599999914,73.0211376999996,,,,,,,,PT_th,001,2025-03-12_16h30.22.668,MainFlow,2024.2.4,129.94759213768427,2025-03-12 16h30.32.029058 +0700,
1,2,1,3,letter/lettth112.png,letter/lettkh031.png,44,44,0,z,0.27359310000065307,None,0,44,44,44,73.65481869999894,,,,,,,73.65481869999894,74.63958459999958,74.6532245999988,74.6532245999988,74.93145849999928,z,0.27359310000065307,None,74.93151459999899,74.93789779999861,75.11849970000003,74.6462389999997,,,,,,,,PT_th,001,2025-03-12_16h30.22.668,MainFlow,2024.2.4,129.94759213768427,2025-03-12 16h30.32.029058 +0700,
1,1,2,2,letter/letten062.png,letter/lettth061.png,45,45,0,x,0.4460469000005105,None,0,45,45,45,75.12528079999902,,,,,,,75.12528079999902,76.11170179999863,76.12516629999845,76.12516629999845,76.57735039999898,x,0.4460469000005105,None,76.57743279999886,76.58377939999991,76.76439810000011,76.11816499999986,,,,,,,,PT_th,001,2025-03-12_16h30.22.668,MainFlow,2024.2.4,129.94759213768427,2025-03-12 16h30.32.029058 +0700,
1,3,1,7,letter/lettth025.png,letter/lettgr072.png,46,46,0,z,0.2335612000006222,None,0,46,46,46,76.7710322999992,,,,,,,76.7710322999992,77.75764629999867,77.77114129999973,77.77114129999973,78.00795239999934,z,0.2335612000006222,None,78.0080111999996,78.01435870000023,78.19506869999896,77.7641879999992,,,,,,,,PT_th,001,2025-03-12_16h30.22.668,MainFlow,2024.2.4,129.94759213768427,2025-03-12 16h30.32.029058 +0700,
1,1,1,7,letter/lettth025.png,letter/letten051.png,47,47,0,z,0.4233733000000939,None,0,47,47,47,78.2020483999986,,,,,,,78.2020483999986,79.18814539999948,79.20180909999908,79.20180909999908,79.63237200000003,z,0.4233733000000939,None,79.63242729999911,79.63891429999967,79.82011590000002,79.19481809999888,,,,,,,,PT_th,001,2025-03-12_16h30.22.668,MainFlow,2024.2.4,129.94759213768427,2025-03-12 16h30.32.029058 +0700,
1,2,2,5,letter/lettkh023.png,letter/lettth024.png,48,48,0,x,0.30682139999953506,None,0,48,48,48,79.82867609999994,,,,,,,79.82867609999994,80.81323460000021,80.82681570000022,80.82681570000022,81.13941759999943,x,0.30682139999953506,None,81.13947310000003,81.14577349999854,81.32701519999864,80.81981079999969,,,,,,,,PT_th,001,2025-03-12_16h30.22.668,MainFlow,2024.2.4,129.94759213768427,2025-03-12 16h30.32.029058 +0700,
1,2,1,5,letter/lettth024.png,letter/lettkh023.png,49,49,0,z,0.37447659999997995,None,0,49,49,49,81.33438639999986,,,,,,,81.33438639999986,82.32001870000022,82.33370509999986,82.33370509999986,82.70922479999899,z,0.37447659999997995,None,82.709289299999,82.71549259999847,82.89624989999902,82.32672399999865,,,,,,,,PT_th,001,2025-03-12_16h30.22.668,MainFlow,2024.2.4,129.94759213768427,2025-03-12 16h30.32.029058 +0700,
1,3,2,5,letter/lettgr141.png,letter/lettth052.png,50,50,0,x,0.39457709999987856,None,0,50,50,50,82.9042118999987,,,,,,,82.9042118999987,83.88925029999882,83.90291949999846,83.90291949999846,84.29921449999893,x,0.39457709999987856,None,84.29927689999931,84.30565889999889,84.4863480999993,83.89592209999864,,,,,,,,PT_th,001,2025-03-12_16h30.22.668,MainFlow,2024.2.4,129.94759213768427,2025-03-12 16h30.32.029058 +0700,
1,2,2,8,letter/lettkh031.png,letter/lettth153.png,51,51,0,x,0.39861220000057074,None,0,51,51,51,84.49331269999857,,,,,,,84.49331269999857,85.47940670000025,85.49301360000027,85.49301360000027,85.89630969999962,x,0.39861220000057074,None,85.89637199999925,85.90278859999853,86.08352869999908,85.4860211999985,,,,,,,,PT_th,001,2025-03-12_16h30.22.668,MainFlow,2024.2.4,129.94759213768427,2025-03-12 16h30.32.029058 +0700,
1,1,2,5,letter/letten041.png,letter/lettth152.png,52,52,0,x,0.23101280000082625,None,0,52,52,52,86.09007949999977,,,,,,,86.09007949999977,87.07655589999922,87.09014260000004,87.09014260000004,87.32687129999977,x,0.23101280000082625,None,87.32693349999863,87.33335479999914,87.51403579999896,87.08312119999937,,,,,,,,PT_th,001,2025-03-12_16h30.22.668,MainFlow,2024.2.4,129.94759213768427,2025-03-12 16h30.32.029058 +0700,
1,1,1,1,letter/lettth022.png,letter/letten092.png,53,53,0,z,0.7638189000008424,None,0,53,53,53,87.5209634999992,,,,,,,87.5209634999992,88.50714389999848,88.52070569999887,88.52070569999887,89.2856187999987,z,0.7638189000008424,None,89.28568619999896,89.29140579999876,89.47259519999898,88.51381479999873,,,,,,,,PT_th,001,2025-03-12_16h30.22.668,MainFlow,2024.2.4,129.94759213768427,2025-03-12 16h30.32.029058 +0700,
1,2,1,1,letter/lettth061.png,letter/lettkh034.png,54,54,0,z,0.5950301999982912,None,0,54,54,54,89.47980819999975,,,,,,,89.47980819999975,90.46575010000015,90.47931009999957,90.47931009999957,91.07700069999919,z,0.5950301999982912,None,91.07706599999983,91.08340469999894,91.26410489999944,90.4722856999997,,,,,,,,PT_th,001,2025-03-12_16h30.22.668,MainFlow,2024.2.4,129.94759213768427,2025-03-12 16h30.32.029058 +0700,
1,3,2,4,letter/lettgr064.png,letter/lettth024.png,55,55,0,x,0.7677029999995284,None,0,55,55,55,91.27098099999967,,,,,,,91.27098099999967,92.25719159999971,92.27078369999981,92.27078369999981,93.04191600000013,x,0.7677029999995284,None,93.04197849999946,93.04841759999908,93.22907929999928,92.26376359999995,,,,,,,,PT_th,001,2025-03-12_16h30.22.668,MainFlow,2024.2.4,129.94759213768427,2025-03-12 16h30.32.029058 +0700,
1,3,1,5,letter/lettth052.png,letter/lettgr141.png,56,56,0,z,0.5617836000001262,None,0,56,56,56,93.23583659999895,,,,,,,93.23583659999895,94.2222243999986,94.23578339999949,94.23578339999949,94.79907129999992,z,0.5617836000001262,None,94.79914009999993,94.8055134999995,94.98631519999981,94.22874520000005,,,,,,,,PT_th,001,2025-03-12_16h30.22.668,MainFlow,2024.2.4,129.94759213768427,2025-03-12 16h30.32.029058 +0700,
1,1,1,8,letter/lettth161.png,letter/letten031.png,57,57,0,z,0.5583549000002677,None,0,57,57,57,94.99343969999973,,,,,,,94.99343969999973,95.97944519999874,95.99292729999979,95.99292729999979,96.55565419999948,z,0.5583549000002677,None,96.55572129999928,96.5621431999989,96.74279549999846,95.985962499999,,,,,,,,PT_th,001,2025-03-12_16h30.22.668,MainFlow,2024.2.4,129.94759213768427,2025-03-12 16h30.32.029058 +0700,
1,1,1,4,letter/lettth041.png,letter/letten091.png,58,58,0,z,0.3666769999999815,None,0,58,58,58,96.74954489999982,,,,,,,96.74954489999982,97.73641229999885,97.74948439999935,97.74948439999935,98.11874480000006,z,0.3666769999999815,None,98.11880639999981,98.1249900999992,98.30557679999947,97.74251829999957,,,,,,,,PT_th,001,2025-03-12_16h30.22.668,MainFlow,2024.2.4,129.94759213768427,2025-03-12 16h30.32.029058 +0700,
1,2,1,4,letter/lettth153.png,letter/lettkh034.png,59,59,0,z,0.4886884999996255,None,0,59,59,59,98.3124613,,,,,,,98.3124613,99.29865549999886,99.31222919999891,99.31222919999891,99.8056261999991,z,0.4886884999996255,None,99.8056789000002,99.81220570000005,99.99287299999924,99.30528839999897,,,,,,,,PT_th,001,2025-03-12_16h30.22.668,MainFlow,2024.2.4,129.94759213768427,2025-03-12 16h30.32.029058 +0700,
1,1,2,3,letter/letten041.png,letter/lettth092.png,60,60,0,x,0.4701028999988921,None,0,60,60,60,99.99973349999891,,,,,,,99.99973349999891,100.9868166999986,100.9995803999991,100.9995803999991,101.47214819999863,x,0.4701028999988921,None,101.47220449999986,101.47863779999898,101.65978879999966,100.99262949999866,,,,,,,,PT_th,001,2025-03-12_16h30.22.668,MainFlow,2024.2.4,129.94759213768427,2025-03-12 16h30.32.029058 +0700,
1,3,2,2,letter/lettgr072.png,letter/lettth052.png,61,61,0,x,0.3878134000005957,None,0,61,61,61,101.6663996999996,,,,,,,101.6663996999996,102.65275440000005,102.66643979999935,102.66643979999935,103.05589220000002,x,0.3878134000005957,None,103.05595819999871,103.06224239999938,103.2429358999998,102.65945259999899,,,,,,,,PT_th,001,2025-03-12_16h30.22.668,MainFlow,2024.2.4,129.94759213768427,2025-03-12 16h30.32.029058 +0700,
1,1,2,8,letter/letten031.png,letter/lettth161.png,62,62,0,x,0.3740770000003977,None,0,62,62,62,103.25001269999848,,,,,,,103.25001269999848,104.23621300000013,104.24969319999946,104.24969319999946,104.6250702999987,x,0.3740770000003977,None,104.62512549999883,104.63148999999976,104.81213190000017,104.24270839999917,,,,,,,,PT_th,001,2025-03-12_16h30.22.668,MainFlow,2024.2.4,129.94759213768427,2025-03-12 16h30.32.029058 +0700,
1,1,1,5,letter/lettth152.png,letter/letten041.png,63,63,0,z,0.8394551999990654,None,0,63,63,63,104.81889669999873,,,,,,,104.81889669999873,105.80522550000023,105.81888289999915,105.81888289999915,106.65982599999916,z,0.8394551999990654,None,106.65988459999971,106.66622110000026,106.8469456999992,105.81198649999897,,,,,,,,PT_th,001,2025-03-12_16h30.22.668,MainFlow,2024.2.4,129.94759213768427,2025-03-12 16h30.32.029058 +0700,
1,2,2,2,letter/lettkh032.png,letter/lettth032.png,64,64,0,x,0.6475786000009975,None,0,64,64,64,106.85383659999934,,,,,,,106.85383659999934,107.84000319999905,107.85361009999906,107.85361009999906,108.50729949999914,x,0.6475786000009975,None,108.50737659999868,108.51307859999906,108.6942700999989,107.84666599999946,,,,,,,,PT_th,001,2025-03-12_16h30.22.668,MainFlow,2024.2.4,129.94759213768427,2025-03-12 16h30.32.029058 +0700,
1,3,1,2,letter/lettth052.png,letter/lettgr072.png,65,65,0,z,0.4341863999998168,None,0,65,65,65,108.70111989999896,,,,,,,108.70111989999896,109.68730999999934,109.70095949999995,109.70095949999995,110.1391253999991,z,0.4341863999998168,None,110.13918620000004,110.14507409999896,110.32576960000006,109.69402079999963,,,,,,,,PT_th,001,2025-03-12_16h30.22.668,MainFlow,2024.2.4,129.94759213768427,2025-03-12 16h30.32.029058 +0700,
1,1,2,4,letter/letten091.png,letter/lettth041.png,66,66,0,x,0.5267459999995481,None,0,66,66,66,110.3332817999999,,,,,,,110.3332817999999,111.31930809999903,111.33242289999907,111.33242289999907,111.8608508999987,x,0.5267459999995481,None,111.86091599999963,111.8673762999988,112.04801509999925,111.32545359999858,,,,,,,,PT_th,001,2025-03-12_16h30.22.668,MainFlow,2024.2.4,129.94759213768427,2025-03-12 16h30.32.029058 +0700,
1,3,2,5,letter/lettgr141.png,letter/lettth052.png,67,67,0,x,0.4340100999997958,None,0,67,67,67,112.05477470000005,,,,,,,112.05477470000005,113.0409512999995,113.05469359999915,113.05469359999915,113.49299459999929,x,0.4340100999997958,None,113.49306019999858,113.49930799999856,113.68001419999928,113.04769619999934,,,,,,,,PT_th,001,2025-03-12_16h30.22.668,MainFlow,2024.2.4,129.94759213768427,2025-03-12 16h30.32.029058 +0700,
1,2,2,3,letter/lettkh031.png,letter/lettth112.png,68,68,0,x,0.6720354000008228,None,0,68,68,68,113.68708259999948,,,,,,,113.68708259999948,114.67308140000023,114.68668459999935,114.68668459999935,115.36067039999944,x,0.6720354000008228,None,115.36072779999995,115.36710299999868,115.54781269999876,114.67972169999848,,,,,,,,PT_th,001,2025-03-12_16h30.22.668,MainFlow,2024.2.4,129.94759213768427,2025-03-12 16h30.32.029058 +0700,
1,3,2,7,letter/lettgr072.png,letter/lettth025.png,69,69,0,x,0.6067509000004065,None,0,69,69,69,115.5545076999988,,,,,,,115.5545076999988,116.54149739999957,116.55505939999966,116.55505939999966,117.16625079999903,x,0.6067509000004065,None,117.1663066000001,117.1726452999992,117.35377659999904,116.54801709999992,,,,,,,,PT_th,001,2025-03-12_16h30.22.668,MainFlow,2024.2.4,129.94759213768427,2025-03-12 16h30.32.029058 +0700,
1,3,2,2,letter/lettgr072.png,letter/lettth052.png,70,70,0,x,0.516443900000013,None,0,70,70,70,117.36040109999885,,,,,,,117.36040109999885,118.34681619999901,118.36042839999936,118.36042839999936,118.88135329999932,x,0.516443900000013,None,118.88140919999933,118.8879993999999,119.06852919999983,118.35349609999867,,,,,,,,PT_th,001,2025-03-12_16h30.22.668,MainFlow,2024.2.4,129.94759213768427,2025-03-12 16h30.32.029058 +0700,
1,1,1,1,letter/lettth022.png,letter/letten092.png,71,71,0,z,0.3909308999991481,None,0,71,71,71,119.07542869999997,,,,,,,119.07542869999997,120.06205489999957,120.07514529999935,120.07514529999935,120.47210949999862,z,0.3909308999991481,None,120.47219469999982,120.4779254999994,120.65929549999964,120.06871769999998,,,,,,,,PT_th,001,2025-03-12_16h30.22.668,MainFlow,2024.2.4,129.94759213768427,2025-03-12 16h30.32.029058 +0700,
1,3,1,6,letter/lettth082.png,letter/lettgr061.png,72,72,0,z,0.38993219999974826,None,0,72,72,72,120.66701269999976,,,,,,,120.66701269999976,121.65219329999854,121.66583360000004,121.66583360000004,122.0621271,z,0.38993219999974826,None,122.06221480000022,122.06859869999971,122.24924060000012,121.6588542999998,,,,,,,,PT_th,001,2025-03-12_16h30.22.668,MainFlow,2024.2.4,129.94759213768427,2025-03-12 16h30.32.029058 +0700,
1,2,1,7,letter/lettth072.png,letter/lettkh033.png,73,73,0,z,0.4233948999990389,None,0,73,73,73,122.25611729999946,,,,,,,122.25611729999946,123.24240149999969,123.25601819999974,123.25601819999974,123.68031919999885,z,0.4233948999990389,None,123.68038149999848,123.68663620000007,123.86730389999866,123.2489874999992,,,,,,,,PT_th,001,2025-03-12_16h30.22.668,MainFlow,2024.2.4,129.94759213768427,2025-03-12 16h30.32.029058 +0700,
1,3,2,6,letter/lettgr061.png,letter/lettth082.png,74,74,0,x,0.2895941999995557,None,0,74,74,74,123.87461929999881,,,,,,,123.87461929999881,124.86035249999986,124.87400389999857,124.87400389999857,125.16639599999871,x,0.2895941999995557,None,125.16647310000008,125.17255069999919,125.35353849999956,124.8670306999993,,,,,,,,PT_th,001,2025-03-12_16h30.22.668,MainFlow,2024.2.4,129.94759213768427,2025-03-12 16h30.32.029058 +0700,
1,1,2,6,letter/letten153.png,letter/lettth024.png,75,75,0,x,0.07272540000121808,None,0,75,75,75,125.36020599999938,,,,,,,125.36020599999938,126.34633570000005,126.36005499999919,126.36005499999919,126.43673889999991,x,0.07272540000121808,None,126.43680270000004,126.44319639999958,126.62395370000013,126.35298049999983,,,,,,,,PT_th,001,2025-03-12_16h30.22.668,MainFlow,2024.2.4,129.94759213768427,2025-03-12 16h30.32.029058 +0700,
1,2,2,1,letter/lettkh034.png,letter/lettth061.png,76,76,0,x,0.3971765999995114,None,0,76,76,76,126.63080780000018,,,,,,,126.63080780000018,127.6174317999994,127.63059359999897,127.63059359999897,128.03389119999883,x,0.3971765999995114,None,128.03394750000007,128.04032189999998,128.2218899999989,127.62363729999925,,,,,,,,PT_th,001,2025-03-12_16h30.22.668,MainFlow,2024.2.4,129.94759213768427,2025-03-12 16h30.32.029058 +0700,
1,2,1,6,letter/lettth161.png,letter/lettkh033.png,77,77,0,z,0.25885120000020834,None,0,77,77,77,128.2296327999993,,,,,,,128.2296327999993,129.2146259000001,129.22822669999914,129.22822669999914,129.4924076999996,z,0.25885120000020834,None,129.49248629999965,129.49884869999914,129.67953390000002,129.2212159999999,,,,,,,,PT_th,001,2025-03-12_16h30.22.668,MainFlow,2024.2.4,129.94759213768427,2025-03-12 16h30.32.029058 +0700,
1,2,2,7,letter/lettkh033.png,letter/lettth072.png,78,78,0,x,0.9254095999986021,None,0,78,78,78,129.6864483999998,,,,,,,129.6864483999998,130.6725366999999,130.68624679999994,130.68624679999994,131.61746559999847,x,0.9254095999986021,None,131.61751949999962,131.62387119999948,131.80455309999888,130.67925920000016,,,,,,,,PT_th,001,2025-03-12_16h30.22.668,MainFlow,2024.2.4,129.94759213768427,2025-03-12 16h30.32.029058 +0700,
1,2,1,8,letter/lettth153.png,letter/lettkh031.png,79,79,0,z,0.373977900000682,None,0,79,79,79,131.8112678999987,,,,,,,131.8112678999987,132.79756879999877,132.81119709999984,132.81119709999984,133.18712109999979,z,0.373977900000682,None,133.18719359999886,133.19323689999874,133.3737973999996,132.80423580000024,,,,,,,,PT_th,001,2025-03-12_16h30.22.668,MainFlow,2024.2.4,129.94759213768427,2025-03-12 16h30.32.029058 +0700,
1,3,1,2,letter/lettth052.png,letter/lettgr072.png,80,80,0,z,0.5037145999995118,None,0,80,80,80,133.38066009999966,,,,,,,133.38066009999966,134.36686139999983,134.3804158999992,134.3804158999992,134.88822639999853,z,0.5037145999995118,None,134.88828250000006,134.8943674000002,135.0750094999985,134.37340119999863,,,,,,,,PT_th,001,2025-03-12_16h30.22.668,MainFlow,2024.2.4,129.94759213768427,2025-03-12 16h30.32.029058 +0700,
1,2,1,2,letter/lettth032.png,letter/lettkh032.png,81,81,0,z,0.41651869999986957,None,0,81,81,81,135.081687599999,,,,,,,135.081687599999,136.0685913999987,136.08168269999987,136.08168269999987,136.49912179999956,z,0.41651869999986957,None,136.49918219999927,136.50546219999887,136.68621069999972,136.0747277999999,,,,,,,,PT_th,001,2025-03-12_16h30.22.668,MainFlow,2024.2.4,129.94759213768427,2025-03-12 16h30.32.029058 +0700,
1,1,2,7,letter/letten051.png,letter/lettth025.png,82,82,0,x,0.39535130000149366,None,0,82,82,82,136.69343859999935,,,,,,,136.69343859999935,137.67967409999983,137.69271769999978,137.69271769999978,138.08929589999934,x,0.39535130000149366,None,138.0893519000001,138.09653769999932,138.27673779999895,137.685752899999,,,,,,,,PT_th,001,2025-03-12_16h30.22.668,MainFlow,2024.2.4,129.94759213768427,2025-03-12 16h30.32.029058 +0700,
1,3,1,4,letter/lettth024.png,letter/lettgr064.png,83,83,0,z,0.29972449999877426,None,0,83,83,83,138.28362959999868,,,,,,,138.28362959999868,139.26987149999877,139.2834488999997,139.2834488999997,139.5895013999998,z,0.29972449999877426,None,139.58955439999954,139.59551549999924,139.77662679999958,139.27647429999888,,,,,,,,PT_th,001,2025-03-12_16h30.22.668,MainFlow,2024.2.4,129.94759213768427,2025-03-12 16h30.32.029058 +0700,
1,3,2,3,letter/lettgr153.png,letter/lettth155.png,84,84,0,x,0.39787509999951,None,0,84,84,84,139.7832574999993,,,,,,,139.7832574999993,140.76963629999955,140.78328059999876,140.78328059999876,141.18660589999854,x,0.39787509999951,None,141.1866599999994,141.1930640999999,141.37381370000003,140.77632489999996,,,,,,,,PT_th,001,2025-03-12_16h30.22.668,MainFlow,2024.2.4,129.94759213768427,2025-03-12 16h30.32.029058 +0700,
1,1,1,6,letter/lettth024.png,letter/letten153.png,85,85,0,z,0.2960307000012108,None,0,85,85,85,141.38078929999938,,,,,,,141.38078929999938,142.36676889999944,142.38042940000014,142.38042940000014,142.67950999999994,z,0.2960307000012108,None,142.67956330000015,142.6860818999994,142.86677569999847,142.37345730000015,,,,,,,,PT_th,001,2025-03-12_16h30.22.668,MainFlow,2024.2.4,129.94759213768427,2025-03-12 16h30.32.029058 +0700,
1,1,2,3,letter/letten041.png,letter/lettth092.png,86,86,0,x,0.4274204000012105,None,0,86,86,86,142.8736874999995,,,,,,,142.8736874999995,143.85972749999928,143.8733599999996,143.8733599999996,144.30451659999926,x,0.4274204000012105,None,144.3045707000001,144.31105289999869,144.49171899999965,143.86637709999923,,,,,,,,PT_th,001,2025-03-12_16h30.22.668,MainFlow,2024.2.4,129.94759213768427,2025-03-12 16h30.32.029058 +0700,
1,2,2,1,letter/lettkh034.png,letter/lettth061.png,87,87,0,x,0.5613747000006697,None,0,87,87,87,144.498750499999,,,,,,,144.498750499999,145.4847847000001,145.49839209999845,145.49839209999845,146.0612860000001,x,0.5613747000006697,None,146.06134559999919,146.06767179999952,146.24840380000023,145.49137209999935,,,,,,,,PT_th,001,2025-03-12_16h30.22.668,MainFlow,2024.2.4,129.94759213768427,2025-03-12 16h30.32.029058 +0700,
1,3,1,3,letter/lettth155.png,letter/lettgr153.png,88,88,0,z,0.42891100000088045,None,0,88,88,88,146.2551629999998,,,,,,,146.2551629999998,147.24138109999876,147.25503509999908,147.25503509999908,147.68625769999926,z,0.42891100000088045,None,147.68631920000007,147.69271209999897,147.8733444999998,147.24801399999888,,,,,,,,PT_th,001,2025-03-12_16h30.22.668,MainFlow,2024.2.4,129.94759213768427,2025-03-12 16h30.32.029058 +0700,
1,2,1,3,letter/lettth112.png,letter/lettkh031.png,89,89,0,z,0.4633286999996926,None,0,89,89,89,147.8804001999997,,,,,,,147.8804001999997,148.86639619999914,148.88005709999925,148.88005709999925,149.34631809999883,z,0.4633286999996926,None,149.34638409999934,149.35257639999872,149.53338819999954,148.87302409999938,,,,,,,,PT_th,001,2025-03-12_16h30.22.668,MainFlow,2024.2.4,129.94759213768427,2025-03-12 16h30.32.029058 +0700,
1,2,2,5,letter/lettkh023.png,letter/lettth024.png,90,90,0,x,0.31278050000037183,None,0,90,90,90,149.54056990000026,,,,,,,149.54056990000026,150.52631119999933,150.53998890000003,150.53998890000003,150.85991300000023,x,0.31278050000037183,None,150.85997299999872,150.86596549999922,151.04738109999926,150.5330156,,,,,,,,PT_th,001,2025-03-12_16h30.22.668,MainFlow,2024.2.4,129.94759213768427,2025-03-12 16h30.32.029058 +0700,
1,1,2,4,letter/letten091.png,letter/lettth041.png,91,91,0,x,0.2685833999985334,None,0,91,91,91,151.054349,,,,,,,151.054349,152.04018109999924,152.05398219999915,152.05398219999915,152.3250866999988,x,0.2685833999985334,None,152.3251494999986,152.3314946999999,152.51218809999955,152.0468581999994,,,,,,,,PT_th,001,2025-03-12_16h30.22.668,MainFlow,2024.2.4,129.94759213768427,2025-03-12 16h30.32.029058 +0700,
1,2,2,3,letter/lettkh031.png,letter/lettth112.png,92,92,0,x,0.27764829999978247,None,0,92,92,92,152.51910320000025,,,,,,,152.51910320000025,153.50524659999974,153.51888299999882,153.51888299999882,153.79728689999865,x,0.27764829999978247,None,153.79734219999955,153.8035147999999,153.9842238000001,153.51188619999994,,,,,,,,PT_th,001,2025-03-12_16h30.22.668,MainFlow,2024.2.4,129.94759213768427,2025-03-12 16h30.32.029058 +0700,
1,3,1,8,letter/lettth013.png,letter/lettgr153.png,93,93,0,z,0.4153752000001987,None,0,93,93,93,153.9908816999996,,,,,,,153.9908816999996,154.97778729999845,154.99083859999882,154.99083859999882,155.40811819999908,z,0.4153752000001987,None,155.4081742999988,155.41460749999897,155.59521759999916,154.98437709999962,,,,,,,,PT_th,001,2025-03-12_16h30.22.668,MainFlow,2024.2.4,129.94759213768427,2025-03-12 16h30.32.029058 +0700,
1,1,1,2,letter/lettth061.png,letter/letten062.png,94,94,0,z,0.3538272000005236,None,0,94,94,94,155.60211549999985,,,,,,,155.60211549999985,156.58877179999945,156.60187509999923,156.60187509999923,156.95715649999875,z,0.3538272000005236,None,156.9572231000002,156.96337829999902,157.14407459999893,156.5949012000001,,,,,,,,PT_th,001,2025-03-12_16h30.22.668,MainFlow,2024.2.4,129.94759213768427,2025-03-12 16h30.32.029058 +0700,
1,3,2,3,letter/lettgr153.png,letter/lettth155.png,95,95,0,x,0.42523419999997714,None,0,95,95,95,157.15075539999998,,,,,,,157.15075539999998,158.13717759999963,158.15065999999933,158.15065999999933,158.5818832999994,x,0.42523419999997714,None,158.58194269999876,158.58836259999953,158.76903569999922,158.14377839999906,,,,,,,,PT_th,001,2025-03-12_16h30.22.668,MainFlow,2024.2.4,129.94759213768427,2025-03-12 16h30.32.029058 +0700,
,,,,,,,,,,,,,,,,,,,,,,,,,,,,,,,,,,,158.76911010000003,158.7757657000002,158.7757657000002,164.15096579999954,space,5.3711115999994945,None,PT_th,001,2025-03-12_16h30.22.668,MainFlow,2024.2.4,129.94759213768427,2025-03-12 16h30.32.029058 +0700,
