lang,langpair,sequence,pairid,firstdir,seconddir,thisN,thisTrialN,thisRepN,key_resp.keys,key_resp.rt,key_resp.duration,trials.thisRepN,trials.thisTrialN,trials.thisN,trials.thisIndex,thisRow.t,notes,tutorial.started,tutorial.stopped,key_instruct.keys,key_instruct.rt,key_instruct.duration,image_first.started,letterselect.started,instruct.started,key_resp.started,letterselect.stopped,trials.key_resp.keys,trials.key_resp.rt,trials.key_resp.duration,blanknext.started,instruct_2.started,blanknext.stopped,image_first.stopped,ending.started,text_3.started,ending_key.started,ending.stopped,ending_key.keys,ending_key.rt,ending_key.duration,participant,session,date,expName,psychopyVersion,frameRate,expStart,
,,,,,,,,,,,,,,,,,,0.002915399963967502,2.061905700014904,space,2.035970599972643,None,,,,,,,,,,,,,,,,,,,,SC_th,001,2025-03-07_12h17.15.177,MainFlow,2024.2.4,129.73214209081016,2025-03-07 12h17.28.153782 +0700,
1,1,2,1,letter/letten092.png,letter/lettth022.png,0,0,0,x,0.9289895999245346,None,0,0,0,0,2.092183999950066,,,,,,,2.092183999950066,3.06876299995929,3.0723323000129312,3.0723323000129312,4.002353099989705,x,0.9289895999245346,None,4.004432199988514,4.008114399970509,4.189306000014767,,,,,,,,,SC_th,001,2025-03-07_12h17.15.177,MainFlow,2024.2.4,129.73214209081016,2025-03-07 12h17.28.153782 +0700,
1,3,2,8,letter/lettgr153.png,letter/lettth013.png,1,1,0,x,0.608249600045383,None,0,1,1,1,4.1960489000193775,,,,,,,4.1960489000193775,5.182367599918507,5.196029599988833,5.196029599988833,5.807682099984959,x,0.608249600045383,None,5.807743799989112,5.814083899953403,5.9948441999731585,5.1890939000295475,,,,,,,,SC_th,001,2025-03-07_12h17.15.177,MainFlow,2024.2.4,129.73214209081016,2025-03-07 12h17.28.153782 +0700,
1,1,2,1,letter/letten092.png,letter/lettth022.png,2,2,0,x,0.35164170002099127,None,0,2,2,2,6.001750999945216,,,,,,,6.001750999945216,6.987879000022076,7.001456300029531,7.001456300029531,7.356076699914411,x,0.35164170002099127,None,7.3561769999796525,7.362462799996138,7.543586499989033,6.994515499914996,,,,,,,,SC_th,001,2025-03-07_12h17.15.177,MainFlow,2024.2.4,129.73214209081016,2025-03-07 12h17.28.153782 +0700,
1,2,2,4,letter/lettkh034.png,letter/lettth153.png,3,3,0,x,0.38145900005474687,None,0,3,3,3,7.55044249992352,,,,,,,7.55044249992352,8.536638999939896,8.550228499923833,8.550228499923833,8.932711799978279,x,0.38145900005474687,None,8.932774399989285,8.939056499977596,9.11979349993635,8.543247799971141,,,,,,,,SC_th,001,2025-03-07_12h17.15.177,MainFlow,2024.2.4,129.73214209081016,2025-03-07 12h17.28.153782 +0700,
1,2,2,4,letter/lettkh034.png,letter/lettth153.png,4,4,0,x,0.45442099997308105,None,0,4,4,4,9.126836300012656,,,,,,,9.126836300012656,10.112814799998887,10.126461799954996,10.126461799954996,10.585515099926852,x,0.45442099997308105,None,10.585577399935573,10.591526199947111,10.772205399931408,10.119549499941058,,,,,,,,SC_th,001,2025-03-07_12h17.15.177,MainFlow,2024.2.4,129.73214209081016,2025-03-07 12h17.28.153782 +0700,
1,2,1,7,letter/lettth072.png,letter/lettkh033.png,5,5,0,z,0.26515630003996193,None,0,5,5,5,10.779018700006418,,,,,,,10.779018700006418,11.765776699990965,11.778901399928145,11.778901399928145,12.050641699926928,z,0.26515630003996193,None,12.050703099928796,12.057067799963988,12.237780799972825,11.771901899948716,,,,,,,,SC_th,001,2025-03-07_12h17.15.177,MainFlow,2024.2.4,129.73214209081016,2025-03-07 12h17.28.153782 +0700,
1,2,1,2,letter/lettth032.png,letter/lettkh032.png,6,6,0,x,0.28871709993109107,None,0,6,6,6,12.2446075999178,,,,,,,12.2446075999178,13.230884299962781,13.24440720002167,13.24440720002167,13.536559399915859,x,0.28871709993109107,None,13.536623399937525,13.543009600020014,13.723683699965477,13.237496400019154,,,,,,,,SC_th,001,2025-03-07_12h17.15.177,MainFlow,2024.2.4,129.73214209081016,2025-03-07 12h17.28.153782 +0700,
1,3,1,4,letter/lettth024.png,letter/lettgr064.png,7,7,0,z,0.2618799000047147,None,0,7,7,7,13.730362099944614,,,,,,,13.730362099944614,14.716679299948737,14.730328799923882,14.730328799923882,14.994481900008395,z,0.2618799000047147,None,14.994543900014833,15.001046399935149,15.1822982999729,14.723728799959645,,,,,,,,SC_th,001,2025-03-07_12h17.15.177,MainFlow,2024.2.4,129.73214209081016,2025-03-07 12h17.28.153782 +0700,
1,2,1,5,letter/lettth024.png,letter/lettkh023.png,8,8,0,z,0.30141199997160584,None,0,8,8,8,15.189456499996595,,,,,,,15.189456499996595,16.175248899962753,16.18892959994264,16.18892959994264,16.49495870003011,z,0.30141199997160584,None,16.49502059991937,16.50144239992369,16.682177699985914,16.18191029992886,,,,,,,,SC_th,001,2025-03-07_12h17.15.177,MainFlow,2024.2.4,129.73214209081016,2025-03-07 12h17.28.153782 +0700,
1,1,2,5,letter/letten041.png,letter/lettth152.png,9,9,0,x,0.3201406999723986,None,0,9,9,9,16.6890944999177,,,,,,,16.6890944999177,17.675200399942696,17.68880000000354,17.68880000000354,18.015271799988113,x,0.3201406999723986,None,18.015331899980083,18.021757500013337,18.20303720002994,17.681842099991627,,,,,,,,SC_th,001,2025-03-07_12h17.15.177,MainFlow,2024.2.4,129.73214209081016,2025-03-07 12h17.28.153782 +0700,
1,2,2,6,letter/lettkh033.png,letter/lettth161.png,10,10,0,x,0.3433119999244809,None,0,10,10,10,18.21010349993594,,,,,,,18.21010349993594,19.196010599960573,19.20971109997481,19.20971109997481,19.557088100002147,x,0.3433119999244809,None,19.55714419996366,19.563657799968496,19.744548699934967,19.202698500012048,,,,,,,,SC_th,001,2025-03-07_12h17.15.177,MainFlow,2024.2.4,129.73214209081016,2025-03-07 12h17.28.153782 +0700,
1,3,2,7,letter/lettgr072.png,letter/lettth025.png,11,11,0,x,0.28559959994163364,None,0,11,11,11,19.75178869999945,,,,,,,19.75178869999945,20.73735840001609,20.751033999957144,20.751033999957144,21.043008500011638,x,0.28559959994163364,None,21.04307210003026,21.049543599947356,21.230830700020306,20.74403830000665,,,,,,,,SC_th,001,2025-03-07_12h17.15.177,MainFlow,2024.2.4,129.73214209081016,2025-03-07 12h17.28.153782 +0700,
1,1,2,2,letter/letten062.png,letter/lettth061.png,12,12,0,x,0.268452399992384,None,0,12,12,12,21.23783849994652,,,,,,,21.23783849994652,22.2238499999512,22.236889499938115,22.236889499938115,22.508629699936137,x,0.268452399992384,None,22.50868480000645,22.51511479995679,22.69580759992823,22.230490899994038,,,,,,,,SC_th,001,2025-03-07_12h17.15.177,MainFlow,2024.2.4,129.73214209081016,2025-03-07 12h17.28.153782 +0700,
1,2,2,8,letter/lettkh031.png,letter/lettth153.png,13,13,0,x,0.39684230007696897,None,0,13,13,13,22.702775500016287,,,,,,,22.702775500016287,23.688840999966487,23.702487199916504,23.702487199916504,24.105844100005925,x,0.39684230007696897,None,24.1059258999303,24.11226630001329,24.29297269997187,23.6955275000073,,,,,,,,SC_th,001,2025-03-07_12h17.15.177,MainFlow,2024.2.4,129.73214209081016,2025-03-07 12h17.28.153782 +0700,
1,2,2,2,letter/lettkh032.png,letter/lettth032.png,14,14,0,x,0.41454560006968677,None,0,14,14,14,24.29990939993877,,,,,,,24.29990939993877,25.285897299996577,25.29960189992562,25.29960189992562,25.716853799996898,x,0.41454560006968677,None,25.716914299991913,25.723330299952067,25.904058999964036,25.29259169998113,,,,,,,,SC_th,001,2025-03-07_12h17.15.177,MainFlow,2024.2.4,129.73214209081016,2025-03-07 12h17.28.153782 +0700,
1,3,2,1,letter/lettgr143.png,letter/lettth132.png,15,15,0,x,0.20600390003528446,None,0,15,15,15,25.910883500007913,,,,,,,25.910883500007913,26.897087599965744,26.91063039994333,26.91063039994333,27.119535599951632,x,0.20600390003528446,None,27.11961659998633,27.126041000010446,27.30674219992943,26.90370849997271,,,,,,,,SC_th,001,2025-03-07_12h17.15.177,MainFlow,2024.2.4,129.73214209081016,2025-03-07 12h17.28.153782 +0700,
1,3,2,6,letter/lettgr061.png,letter/lettth082.png,16,16,0,x,0.3021073000272736,None,0,16,16,16,27.313505099969916,,,,,,,27.313505099969916,28.29974469996523,28.313400199986063,28.313400199986063,28.61951129999943,x,0.3021073000272736,None,28.619573300005868,28.62592759996187,28.80666639993433,28.306470299954526,,,,,,,,SC_th,001,2025-03-07_12h17.15.177,MainFlow,2024.2.4,129.73214209081016,2025-03-07 12h17.28.153782 +0700,
1,2,2,6,letter/lettkh033.png,letter/lettth161.png,17,17,0,x,0.3308688000543043,None,0,17,17,17,28.81537580001168,,,,,,,28.81537580001168,29.799607899971306,29.813261199975386,29.813261199975386,30.147316099959426,x,0.3308688000543043,None,30.14737719995901,30.153752899961546,30.33454129996244,29.80630569998175,,,,,,,,SC_th,001,2025-03-07_12h17.15.177,MainFlow,2024.2.4,129.73214209081016,2025-03-07 12h17.28.153782 +0700,
1,3,1,3,letter/lettth155.png,letter/lettgr153.png,18,18,0,z,0.25149639998562634,None,0,18,18,18,30.3414767999202,,,,,,,30.3414767999202,31.327547800028697,31.34125459997449,31.34125459997449,31.598421299946494,z,0.25149639998562634,None,31.598485599970445,31.604847499984317,31.786055799922906,31.334263099939562,,,,,,,,SC_th,001,2025-03-07_12h17.15.177,MainFlow,2024.2.4,129.73214209081016,2025-03-07 12h17.28.153782 +0700,
1,3,2,1,letter/lettgr143.png,letter/lettth132.png,19,19,0,x,0.26939869998022914,None,0,19,19,19,31.793033699970692,,,,,,,31.793033699970692,32.77917029999662,32.79273859993555,32.79273859993555,33.0638472000137,x,0.26939869998022914,None,33.06390129995998,33.07029649999458,33.25099470000714,32.78577169997152,,,,,,,,SC_th,001,2025-03-07_12h17.15.177,MainFlow,2024.2.4,129.73214209081016,2025-03-07 12h17.28.153782 +0700,
1,3,1,1,letter/lettth132.png,letter/lettgr143.png,20,20,0,z,0.41360199998598546,None,0,20,20,20,33.25913070002571,,,,,,,33.25913070002571,34.244078299961984,34.25790580001194,34.25790580001194,34.67513779993169,z,0.41360199998598546,None,34.67521529993974,34.68143729993608,34.86219719995279,34.25080689997412,,,,,,,,SC_th,001,2025-03-07_12h17.15.177,MainFlow,2024.2.4,129.73214209081016,2025-03-07 12h17.28.153782 +0700,
1,1,2,8,letter/letten031.png,letter/lettth161.png,21,21,0,x,0.42570419993717223,None,0,21,21,21,34.8691753000021,,,,,,,34.8691753000021,35.85516179993283,35.868882499984466,35.868882499984466,36.30054869991727,x,0.42570419993717223,None,36.30062059999909,36.30642189993523,36.48727029992733,35.86181829997804,,,,,,,,SC_th,001,2025-03-07_12h17.15.177,MainFlow,2024.2.4,129.73214209081016,2025-03-07 12h17.28.153782 +0700,
1,1,1,5,letter/lettth152.png,letter/letten041.png,22,22,0,z,0.38424809998832643,None,0,22,22,22,36.494240000029095,,,,,,,36.494240000029095,37.480292699998245,37.49385119997896,37.49385119997896,37.88333879993297,z,0.38424809998832643,None,37.88347320002504,37.8896922999993,38.07031749992166,37.486894899979234,,,,,,,,SC_th,001,2025-03-07_12h17.15.177,MainFlow,2024.2.4,129.73214209081016,2025-03-07 12h17.28.153782 +0700,
1,1,2,6,letter/letten153.png,letter/lettth024.png,23,23,0,x,0.27470439998432994,None,0,23,23,23,38.07722410000861,,,,,,,38.07722410000861,39.06339639995713,39.07701230002567,39.07701230002567,39.35519579995889,x,0.27470439998432994,None,39.35525629995391,39.361638900008984,39.54231579997577,39.07004699995741,,,,,,,,SC_th,001,2025-03-07_12h17.15.177,MainFlow,2024.2.4,129.73214209081016,2025-03-07 12h17.28.153782 +0700,
1,1,1,8,letter/lettth161.png,letter/letten031.png,24,24,0,z,0.3906971000833437,None,0,24,24,24,39.549138200003654,,,,,,,39.549138200003654,40.53589399997145,40.54950419999659,40.54950419999659,40.94577109999955,z,0.3906971000833437,None,40.94582979998086,40.95226869999897,41.13297019992024,40.54308939992916,,,,,,,,SC_th,001,2025-03-07_12h17.15.177,MainFlow,2024.2.4,129.73214209081016,2025-03-07 12h17.28.153782 +0700,
1,3,1,1,letter/lettth132.png,letter/lettgr143.png,25,25,0,z,0.41940629994496703,None,0,25,25,25,41.13973629998509,,,,,,,41.13973629998509,42.12600199994631,42.1395993999904,42.1395993999904,42.56340859993361,z,0.41940629994496703,None,42.563465900020674,42.569784999941476,42.75098170002457,42.13264820002951,,,,,,,,SC_th,001,2025-03-07_12h17.15.177,MainFlow,2024.2.4,129.73214209081016,2025-03-07 12h17.28.153782 +0700,
1,3,2,4,letter/lettgr064.png,letter/lettth024.png,26,26,0,x,0.4055423999670893,None,0,26,26,26,42.7578191999346,,,,,,,42.7578191999346,43.74405510001816,43.75773259997368,43.75773259997368,44.168212199932896,x,0.4055423999670893,None,44.168294099974446,44.17385929997545,44.35520470002666,43.75068419997115,,,,,,,,SC_th,001,2025-03-07_12h17.15.177,MainFlow,2024.2.4,129.73214209081016,2025-03-07 12h17.28.153782 +0700,
1,2,1,6,letter/lettth161.png,letter/lettkh033.png,27,27,0,z,0.37995680002495646,None,0,27,27,27,44.362309199990705,,,,,,,44.362309199990705,45.34817869996186,45.361828699940816,45.361828699940816,45.74428139999509,z,0.37995680002495646,None,45.74433969997335,45.75063169992063,45.93146509991493,45.355017800000496,,,,,,,,SC_th,001,2025-03-07_12h17.15.177,MainFlow,2024.2.4,129.73214209081016,2025-03-07 12h17.28.153782 +0700,
1,2,1,1,letter/lettth061.png,letter/lettkh034.png,28,28,0,z,0.38736049993894994,None,0,28,28,28,45.938563699950464,,,,,,,45.938563699950464,46.924279999919236,46.93794530001469,46.93794530001469,47.327318700030446,z,0.38736049993894994,None,47.32737569999881,47.33378390001599,47.51449520001188,46.930990600027144,,,,,,,,SC_th,001,2025-03-07_12h17.15.177,MainFlow,2024.2.4,129.73214209081016,2025-03-07 12h17.28.153782 +0700,
1,1,2,7,letter/letten051.png,letter/lettth025.png,29,29,0,x,0.3078197999857366,None,0,29,29,29,47.52149840001948,,,,,,,47.52149840001948,48.507571999914944,48.52116759994533,48.52116759994533,48.83426579996012,x,0.3078197999857366,None,48.834328299970366,48.84071010001935,49.021344400011,48.51418659999035,,,,,,,,SC_th,001,2025-03-07_12h17.15.177,MainFlow,2024.2.4,129.73214209081016,2025-03-07 12h17.28.153782 +0700,
1,2,2,7,letter/lettkh033.png,letter/lettth072.png,30,30,0,x,0.30445469997357577,None,0,30,30,30,49.02832209994085,,,,,,,49.02832209994085,50.01434779993724,50.02812069992069,50.02812069992069,50.334187699947506,x,0.30445469997357577,None,50.33424270001706,50.34064359997865,50.521478999988176,50.02110010001343,,,,,,,,SC_th,001,2025-03-07_12h17.15.177,MainFlow,2024.2.4,129.73214209081016,2025-03-07 12h17.28.153782 +0700,
1,2,1,8,letter/lettth153.png,letter/lettkh031.png,31,31,0,z,0.30366240011062473,None,0,31,31,31,50.528762899921276,,,,,,,50.528762899921276,51.51433339994401,51.52796279999893,51.52796279999893,51.8341100999387,z,0.30366240011062473,None,51.83417609997559,51.840557700023055,52.021180199924856,51.52104339993093,,,,,,,,SC_th,001,2025-03-07_12h17.15.177,MainFlow,2024.2.4,129.73214209081016,2025-03-07 12h17.28.153782 +0700,
1,1,1,2,letter/lettth061.png,letter/letten062.png,32,32,0,z,0.38686710002366453,None,0,32,32,32,52.02807879995089,,,,,,,52.02807879995089,53.014768499997444,53.02789059991483,53.02789059991483,53.41768479999155,z,0.38686710002366453,None,53.417741199955344,53.424190199933946,53.60490659996867,53.021398199955,,,,,,,,SC_th,001,2025-03-07_12h17.15.177,MainFlow,2024.2.4,129.73214209081016,2025-03-07 12h17.28.153782 +0700,
1,3,1,7,letter/lettth025.png,letter/lettgr072.png,33,33,0,z,0.34208470000885427,None,0,33,33,33,53.61197299999185,,,,,,,53.61197299999185,54.59787179995328,54.61151219997555,54.61151219997555,54.959064599941485,z,0.34208470000885427,None,54.95912559994031,54.9654995999299,55.146153199952096,54.60466479999013,,,,,,,,SC_th,001,2025-03-07_12h17.15.177,MainFlow,2024.2.4,129.73214209081016,2025-03-07 12h17.28.153782 +0700,
1,1,1,3,letter/lettth092.png,letter/letten041.png,34,34,0,z,0.42487669992260635,None,0,34,34,34,55.152823099982925,,,,,,,55.152823099982925,56.13971160002984,56.15279570000712,56.15279570000712,56.58407330000773,z,0.42487669992260635,None,56.58414689998608,56.5905347999651,56.77131029998418,56.145811500027776,,,,,,,,SC_th,001,2025-03-07_12h17.15.177,MainFlow,2024.2.4,129.73214209081016,2025-03-07 12h17.28.153782 +0700,
1,3,1,5,letter/lettth052.png,letter/lettgr141.png,35,35,0,z,0.24301680002827197,None,0,35,35,35,56.77864039991982,,,,,,,56.77864039991982,57.76421729999129,57.777878999942914,57.777878999942914,58.0217576000141,z,0.24301680002827197,None,58.021821299917065,58.028098899987526,58.20877099991776,57.77089769998565,,,,,,,,SC_th,001,2025-03-07_12h17.15.177,MainFlow,2024.2.4,129.73214209081016,2025-03-07 12h17.28.153782 +0700,
1,1,1,6,letter/lettth024.png,letter/letten153.png,36,36,0,z,0.2746841999469325,None,0,36,36,36,58.21573749999516,,,,,,,58.21573749999516,59.20184499991592,59.215535899973474,59.215535899973474,59.49380309996195,z,0.2746841999469325,None,59.49386589997448,59.500088699976914,59.680781699949875,59.20851979998406,,,,,,,,SC_th,001,2025-03-07_12h17.15.177,MainFlow,2024.2.4,129.73214209081016,2025-03-07 12h17.28.153782 +0700,
1,1,1,3,letter/lettth092.png,letter/letten041.png,37,37,0,z,0.36101250001229346,None,0,37,37,37,59.687754199956544,,,,,,,59.687754199956544,60.67389269999694,60.68747010000516,60.68747010000516,61.04957999999169,z,0.36101250001229346,None,61.04963879997376,61.05594150000252,61.23661409993656,60.68049349996727,,,,,,,,SC_th,001,2025-03-07_12h17.15.177,MainFlow,2024.2.4,129.73214209081016,2025-03-07 12h17.28.153782 +0700,
1,1,1,7,letter/lettth025.png,letter/letten051.png,38,38,0,z,0.2888529999181628,None,0,38,38,38,61.243591299979016,,,,,,,61.243591299979016,62.229626199929044,62.243299999972805,62.243299999972805,62.5352705999976,z,0.2888529999181628,None,62.53533240000252,62.54186070000287,62.72245619993191,62.236274200025946,,,,,,,,SC_th,001,2025-03-07_12h17.15.177,MainFlow,2024.2.4,129.73214209081016,2025-03-07 12h17.28.153782 +0700,
1,3,1,6,letter/lettth082.png,letter/lettgr061.png,39,39,0,z,0.2822678000666201,None,0,39,39,39,62.7295882999897,,,,,,,62.7295882999897,63.71554959996138,63.72920669999439,63.72920669999439,64.01435850001872,z,0.2822678000666201,None,64.01442179991864,64.0208139999304,64.20156059996225,63.72222579992376,,,,,,,,SC_th,001,2025-03-07_12h17.15.177,MainFlow,2024.2.4,129.73214209081016,2025-03-07 12h17.28.153782 +0700,
1,2,1,4,letter/lettth153.png,letter/lettkh034.png,40,40,0,z,0.317075900034979,None,0,40,40,40,64.20845779997762,,,,,,,64.20845779997762,65.19515899999533,65.20817260001786,65.20817260001786,65.52830989996437,z,0.317075900034979,None,65.5283845999511,65.53475360001903,65.71540109999478,65.20115450001322,,,,,,,,SC_th,001,2025-03-07_12h17.15.177,MainFlow,2024.2.4,129.73214209081016,2025-03-07 12h17.28.153782 +0700,
1,3,2,8,letter/lettgr153.png,letter/lettth013.png,41,41,0,x,0.22147540003061295,None,0,41,41,41,65.72223870002199,,,,,,,65.72223870002199,66.70901739993133,66.72211159998551,66.72211159998551,66.94496360002086,x,0.22147540003061295,None,66.9450243000174,66.95133069995791,67.13239409995731,66.7150973000098,,,,,,,,SC_th,001,2025-03-07_12h17.15.177,MainFlow,2024.2.4,129.73214209081016,2025-03-07 12h17.28.153782 +0700,
1,1,1,4,letter/lettth041.png,letter/letten091.png,42,42,0,z,0.4383562000002712,None,0,42,42,42,67.14014119992498,,,,,,,67.14014119992498,68.12522309995256,68.1388358999975,68.1388358999975,68.58423159993254,z,0.4383562000002712,None,68.58430170000065,68.59029610001016,68.77123660000507,68.1319432000164,,,,,,,,SC_th,001,2025-03-07_12h17.15.177,MainFlow,2024.2.4,129.73214209081016,2025-03-07 12h17.28.153782 +0700,
1,3,1,8,letter/lettth013.png,letter/lettgr153.png,43,43,0,z,0.44894939998630434,None,0,43,43,43,68.77922589995433,,,,,,,68.77922589995433,69.76414969994221,69.777725599939,69.777725599939,70.23016559996177,z,0.44894939998630434,None,70.23023240000475,70.23670669994317,70.41725059994496,69.7707783000078,,,,,,,,SC_th,001,2025-03-07_12h17.15.177,MainFlow,2024.2.4,129.73214209081016,2025-03-07 12h17.28.153782 +0700,
1,2,1,3,letter/lettth112.png,letter/lettkh031.png,44,44,0,z,0.3165070000104606,None,0,44,44,44,70.42445559997577,,,,,,,70.42445559997577,71.4102001999272,71.42373539996333,71.42373539996333,71.74336750002112,z,0.3165070000104606,None,71.74343359994236,71.74971320002805,71.93103859992698,71.41675620002206,,,,,,,,SC_th,001,2025-03-07_12h17.15.177,MainFlow,2024.2.4,129.73214209081016,2025-03-07 12h17.28.153782 +0700,
1,1,2,2,letter/letten062.png,letter/lettth061.png,45,45,0,x,0.4865748999873176,None,0,45,45,45,71.93815709999762,,,,,,,71.93815709999762,72.92402829998173,72.93760289996862,72.93760289996862,73.43122139992192,x,0.4865748999873176,None,73.43128599994816,73.43757639999967,73.61837299994659,72.93060610000975,,,,,,,,SC_th,001,2025-03-07_12h17.15.177,MainFlow,2024.2.4,129.73214209081016,2025-03-07 12h17.28.153782 +0700,
1,3,1,7,letter/lettth025.png,letter/lettgr072.png,46,46,0,z,0.437477899948135,None,0,46,46,46,73.62544209999032,,,,,,,73.62544209999032,74.6121412999928,74.62497030000668,74.62497030000668,75.06964549992699,z,0.437477899948135,None,75.06970959994942,75.07612510002218,75.25720599992201,74.6179536000127,,,,,,,,SC_th,001,2025-03-07_12h17.15.177,MainFlow,2024.2.4,129.73214209081016,2025-03-07 12h17.28.153782 +0700,
1,1,1,7,letter/lettth025.png,letter/letten051.png,47,47,0,z,0.46701510006096214,None,0,47,47,47,75.26426969992463,,,,,,,75.26426969992463,76.25030750001315,76.2639341999311,76.2639341999311,76.73649169993587,z,0.46701510006096214,None,76.73655279993545,76.74293960002251,76.92360350000672,76.2569327999372,,,,,,,,SC_th,001,2025-03-07_12h17.15.177,MainFlow,2024.2.4,129.73214209081016,2025-03-07 12h17.28.153782 +0700,
1,2,2,5,letter/lettkh023.png,letter/lettth024.png,48,48,0,x,0.31440139992628247,None,0,48,48,48,76.93053379992489,,,,,,,76.93053379992489,77.91669979994185,77.9303430999862,77.9303430999862,78.25040090002585,x,0.31440139992628247,None,78.25046240002848,78.2568463999778,78.43757249996997,77.92327010002919,,,,,,,,SC_th,001,2025-03-07_12h17.15.177,MainFlow,2024.2.4,129.73214209081016,2025-03-07 12h17.28.153782 +0700,
1,2,1,5,letter/lettth024.png,letter/lettkh023.png,49,49,0,z,0.4295002999715507,None,0,49,49,49,78.44457950000651,,,,,,,78.44457950000651,79.43064509995747,79.44427139998879,79.44427139998879,79.87541919993237,z,0.4295002999715507,None,79.87548449996393,79.88188479992095,80.06256450002547,79.43724689993542,,,,,,,,SC_th,001,2025-03-07_12h17.15.177,MainFlow,2024.2.4,129.73214209081016,2025-03-07 12h17.28.153782 +0700,
1,3,2,5,letter/lettgr141.png,letter/lettth052.png,50,50,0,x,0.42303989990614355,None,0,50,50,50,80.06951960001606,,,,,,,80.06951960001606,81.05556160002016,81.06923459994141,81.06923459994141,81.49379209999461,x,0.42303989990614355,None,81.4938576000277,81.4999466999434,81.68060790002346,81.06226409994997,,,,,,,,SC_th,001,2025-03-07_12h17.15.177,MainFlow,2024.2.4,129.73214209081016,2025-03-07 12h17.28.153782 +0700,
1,2,2,8,letter/lettkh031.png,letter/lettth153.png,51,51,0,x,0.22881210001651198,None,0,51,51,51,81.6882380999159,,,,,,,81.6882380999159,82.67363119998481,82.68740449997131,82.68740449997131,82.92342859995551,x,0.22881210001651198,None,82.92348919995129,82.93005760002416,83.11072679993231,82.68037069996353,,,,,,,,SC_th,001,2025-03-07_12h17.15.177,MainFlow,2024.2.4,129.73214209081016,2025-03-07 12h17.28.153782 +0700,
1,1,2,5,letter/letten041.png,letter/lettth152.png,52,52,0,x,0.39252979995217174,None,0,52,52,52,83.11781289998908,,,,,,,83.11781289998908,84.10421070002485,84.1173993999837,84.1173993999837,84.514204600011,x,0.39252979995217174,None,84.51426349999383,84.52068029996008,84.70143589994404,84.1109081999166,,,,,,,,SC_th,001,2025-03-07_12h17.15.177,MainFlow,2024.2.4,129.73214209081016,2025-03-07 12h17.28.153782 +0700,
1,1,1,1,letter/lettth022.png,letter/letten092.png,53,53,0,z,0.44578599999658763,None,0,53,53,53,84.70913039997686,,,,,,,84.70913039997686,85.69449070002884,85.70807819999754,85.70807819999754,86.1597397000296,z,0.44578599999658763,None,86.15980109991506,86.16615139995702,86.34685440000612,85.70112809992861,,,,,,,,SC_th,001,2025-03-07_12h17.15.177,MainFlow,2024.2.4,129.73214209081016,2025-03-07 12h17.28.153782 +0700,
1,2,1,1,letter/lettth061.png,letter/lettkh034.png,54,54,0,z,0.42837360000703484,None,0,54,54,54,86.35422239999752,,,,,,,86.35422239999752,87.33986189996358,87.35351729998365,87.35351729998365,87.78485729999375,z,0.42837360000703484,None,87.78493409999646,87.79124169994611,87.97193479991984,87.34652789996471,,,,,,,,SC_th,001,2025-03-07_12h17.15.177,MainFlow,2024.2.4,129.73214209081016,2025-03-07 12h17.28.153782 +0700,
1,3,2,4,letter/lettgr064.png,letter/lettth024.png,55,55,0,x,0.24243270000442863,None,0,55,55,55,87.97888459998649,,,,,,,87.97888459998649,88.96490949997678,88.97858589992393,88.97858589992393,89.22229850001168,x,0.24243270000442863,None,89.22236239991616,89.22875609993935,89.40947129996493,88.97166319994722,,,,,,,,SC_th,001,2025-03-07_12h17.15.177,MainFlow,2024.2.4,129.73214209081016,2025-03-07 12h17.28.153782 +0700,
1,3,1,5,letter/lettth052.png,letter/lettgr141.png,56,56,0,z,0.26845389988739043,None,0,56,56,56,89.41660090000369,,,,,,,89.41660090000369,90.40254739997908,90.41617530002259,90.41617530002259,90.68743779999204,z,0.26845389988739043,None,90.68750140001066,90.69382929999847,90.87458780000452,90.40920400002506,,,,,,,,SC_th,001,2025-03-07_12h17.15.177,MainFlow,2024.2.4,129.73214209081016,2025-03-07 12h17.28.153782 +0700,
1,1,1,8,letter/lettth161.png,letter/letten031.png,57,57,0,z,0.6370341000147164,None,0,57,57,57,90.88157039997168,,,,,,,90.88157039997168,91.86848850001115,91.88119580002967,91.88119580002967,92.5208602999337,z,0.6370341000147164,None,92.52091989992186,92.52725819998886,92.70791250001639,91.87430159992073,,,,,,,,SC_th,001,2025-03-07_12h17.15.177,MainFlow,2024.2.4,129.73214209081016,2025-03-07 12h17.28.153782 +0700,
1,1,1,4,letter/lettth041.png,letter/letten091.png,58,58,0,z,0.2478519999422133,None,0,58,58,58,92.71492309996393,,,,,,,92.71492309996393,93.70094609993976,93.71461829997133,93.71461829997133,93.96539129992016,z,0.2478519999422133,None,93.96545339992736,93.97183649998624,94.15253119997215,93.70762180001475,,,,,,,,SC_th,001,2025-03-07_12h17.15.177,MainFlow,2024.2.4,129.73214209081016,2025-03-07 12h17.28.153782 +0700,
1,2,1,4,letter/lettth153.png,letter/lettkh034.png,59,59,0,z,0.24692549998871982,None,0,59,59,59,94.15933629998472,,,,,,,94.15933629998472,95.14562760002445,95.15918469999451,95.15918469999451,95.40947600000072,z,0.24692549998871982,None,95.40953820000868,95.41583770001307,95.59658909996506,95.15228999999817,,,,,,,,SC_th,001,2025-03-07_12h17.15.177,MainFlow,2024.2.4,129.73214209081016,2025-03-07 12h17.28.153782 +0700,
1,1,2,3,letter/letten041.png,letter/lettth092.png,60,60,0,x,0.3914102000417188,None,0,60,60,60,95.60339770000428,,,,,,,95.60339770000428,96.59018970001489,96.60326579993125,96.60326579993125,96.999626899953,x,0.3914102000417188,None,96.99969129997771,97.00605139997788,97.18724599992856,96.59623040002771,,,,,,,,SC_th,001,2025-03-07_12h17.15.177,MainFlow,2024.2.4,129.73214209081016,2025-03-07 12h17.28.153782 +0700,
1,3,2,2,letter/lettgr072.png,letter/lettth052.png,61,61,0,x,0.28246689995285124,None,0,61,61,61,97.19423379993532,,,,,,,97.19423379993532,98.18029469996691,98.19390219997149,98.19390219997149,98.47905470000114,x,0.28246689995285124,None,98.47911479999311,98.48548089992255,98.66621289995965,98.1869131999556,,,,,,,,SC_th,001,2025-03-07_12h17.15.177,MainFlow,2024.2.4,129.73214209081016,2025-03-07 12h17.28.153782 +0700,
1,1,2,8,letter/letten031.png,letter/lettth161.png,62,62,0,x,0.3793488999363035,None,0,62,62,62,98.67310259991791,,,,,,,98.67310259991791,99.65921069995966,99.6728961999761,99.6728961999761,100.05530769994948,x,0.3793488999363035,None,100.05536959995516,100.06174049992114,100.24242249992676,99.66590809996706,,,,,,,,SC_th,001,2025-03-07_12h17.15.177,MainFlow,2024.2.4,129.73214209081016,2025-03-07 12h17.28.153782 +0700,
1,1,1,5,letter/lettth152.png,letter/letten041.png,63,63,0,z,0.28696170006878674,None,0,63,63,63,100.24940500000957,,,,,,,100.24940500000957,101.23648999992292,101.24962140002754,101.24962140002754,101.54140119999647,z,0.28696170006878674,None,101.54147759999614,101.54763129993808,101.72843749995809,101.24237079999875,,,,,,,,SC_th,001,2025-03-07_12h17.15.177,MainFlow,2024.2.4,129.73214209081016,2025-03-07 12h17.28.153782 +0700,
1,2,2,2,letter/lettkh032.png,letter/lettth032.png,64,64,0,x,0.2450681000482291,None,0,64,64,64,101.73520559992176,,,,,,,101.73520559992176,102.7219247999601,102.73505399993155,102.73505399993155,102.98578129999805,x,0.2450681000482291,None,102.98584009998012,102.99224449996836,103.17298219993245,102.72802279994357,,,,,,,,SC_th,001,2025-03-07_12h17.15.177,MainFlow,2024.2.4,129.73214209081016,2025-03-07 12h17.28.153782 +0700,
1,3,1,2,letter/lettth052.png,letter/lettgr072.png,65,65,0,z,0.23908850003499538,None,0,65,65,65,103.17990059999283,,,,,,,103.17990059999283,104.16595499997493,104.17963109991979,104.17963109991979,104.4233825999545,z,0.23908850003499538,None,104.42344359995332,104.42990450002253,104.61063160002232,104.17264869995415,,,,,,,,SC_th,001,2025-03-07_12h17.15.177,MainFlow,2024.2.4,129.73214209081016,2025-03-07 12h17.28.153782 +0700,
1,1,2,4,letter/letten091.png,letter/lettth041.png,66,66,0,x,0.24026880005840212,None,0,66,66,66,104.61770679999609,,,,,,,104.61770679999609,105.60361689992715,105.61725299991667,105.61725299991667,105.86045969999395,x,0.24026880005840212,None,105.86053669999819,105.86697949992958,106.0482609999599,105.61026280000806,,,,,,,,SC_th,001,2025-03-07_12h17.15.177,MainFlow,2024.2.4,129.73214209081016,2025-03-07 12h17.28.153782 +0700,
1,3,2,5,letter/lettgr141.png,letter/lettth052.png,67,67,0,x,0.2153421000111848,None,0,67,67,67,106.0551112999674,,,,,,,106.0551112999674,107.04121409996878,107.05432350002229,107.05432350002229,107.2704654999543,x,0.2153421000111848,None,107.2705275999615,107.27667269995436,107.45734850002918,107.0478698000079,,,,,,,,SC_th,001,2025-03-07_12h17.15.177,MainFlow,2024.2.4,129.73214209081016,2025-03-07 12h17.28.153782 +0700,
1,2,2,3,letter/lettkh031.png,letter/lettth112.png,68,68,0,x,0.20268970006145537,None,0,68,68,68,107.4647175000282,,,,,,,107.4647175000282,108.45093579997774,108.46397939999588,108.46397939999588,108.67311229999177,x,0.20268970006145537,None,108.67318799998611,108.67939229996409,108.86056870000903,108.4575543999672,,,,,,,,SC_th,001,2025-03-07_12h17.15.177,MainFlow,2024.2.4,129.73214209081016,2025-03-07 12h17.28.153782 +0700,
1,3,2,7,letter/lettgr072.png,letter/lettth025.png,69,69,0,x,0.22291170002426952,None,0,69,69,69,108.8671804999467,,,,,,,108.8671804999467,109.85357869998552,109.86728130001575,109.86728130001575,110.09650200000033,x,0.22291170002426952,None,110.09656530001666,110.10299439996015,110.28368210000917,109.86028819996864,,,,,,,,SC_th,001,2025-03-07_12h17.15.177,MainFlow,2024.2.4,129.73214209081016,2025-03-07 12h17.28.153782 +0700,
1,3,2,2,letter/lettgr072.png,letter/lettth052.png,70,70,0,x,0.20289800001773983,None,0,70,70,70,110.29057569999713,,,,,,,110.29057569999713,111.27723909995984,111.29034669999965,111.29034669999965,111.49928089999594,x,0.20289800001773983,None,111.4993444000138,111.50576550001279,111.68644059996586,111.28335589997005,,,,,,,,SC_th,001,2025-03-07_12h17.15.177,MainFlow,2024.2.4,129.73214209081016,2025-03-07 12h17.28.153782 +0700,
1,1,1,1,letter/lettth022.png,letter/letten092.png,71,71,0,z,0.084233200061135,None,0,71,71,71,111.69321129994933,,,,,,,111.69321129994933,112.67999640002381,112.6931194999488,112.6931194999488,112.78433319996111,z,0.084233200061135,None,112.78439519996755,112.79087419994175,112.97148429998197,112.6866325000301,,,,,,,,SC_th,001,2025-03-07_12h17.15.177,MainFlow,2024.2.4,129.73214209081016,2025-03-07 12h17.28.153782 +0700,
1,3,1,6,letter/lettth082.png,letter/lettgr061.png,72,72,0,z,0.32841700001154095,None,0,72,72,72,112.97842249996029,,,,,,,112.97842249996029,113.964515700005,113.97819890000392,113.97819890000392,114.3116738999961,z,0.32841700001154095,None,114.31173740001395,114.31815179996192,114.49954220000654,113.97120869997889,,,,,,,,SC_th,001,2025-03-07_12h17.15.177,MainFlow,2024.2.4,129.73214209081016,2025-03-07 12h17.28.153782 +0700,
1,2,1,7,letter/lettth072.png,letter/lettkh033.png,73,73,0,z,0.2701835000189021,None,0,73,73,73,114.5070072999224,,,,,,,114.5070072999224,115.49241349997465,115.50551289995201,115.50551289995201,115.77724199998192,z,0.2701835000189021,None,115.77730249997694,115.783690799959,115.96436849993188,115.49905510002282,,,,,,,,SC_th,001,2025-03-07_12h17.15.177,MainFlow,2024.2.4,129.73214209081016,2025-03-07 12h17.28.153782 +0700,
1,3,2,6,letter/lettgr061.png,letter/lettth082.png,74,74,0,x,0.2978360999841243,None,0,74,74,74,115.97155609994661,,,,,,,115.97155609994661,116.95740279997699,116.97108489996754,116.97108489996754,117.27022659999784,x,0.2978360999841243,None,117.2702874999959,117.27662269992288,117.4572993000038,116.96406669996213,,,,,,,,SC_th,001,2025-03-07_12h17.15.177,MainFlow,2024.2.4,129.73214209081016,2025-03-07 12h17.28.153782 +0700,
1,1,2,6,letter/letten153.png,letter/lettth024.png,75,75,0,x,0.2939803999615833,None,0,75,75,75,117.46431820001453,,,,,,,117.46431820001453,118.4503071999643,118.46398260002024,118.46398260002024,118.76301659992896,x,0.2939803999615833,None,118.7630759999156,118.76958540000487,118.950362799922,118.45702550001442,,,,,,,,SC_th,001,2025-03-07_12h17.15.177,MainFlow,2024.2.4,129.73214209081016,2025-03-07 12h17.28.153782 +0700,
1,2,2,1,letter/lettkh034.png,letter/lettth061.png,76,76,0,x,0.200667200027965,None,0,76,76,76,118.95747859997209,,,,,,,118.95747859997209,119.94341469998471,119.95699129998684,119.95699129998684,120.15891270001885,x,0.200667200027965,None,120.15896819997579,120.16533919994254,120.34604350000154,119.94994409999344,,,,,,,,SC_th,001,2025-03-07_12h17.15.177,MainFlow,2024.2.4,129.73214209081016,2025-03-07 12h17.28.153782 +0700,
1,2,1,6,letter/lettth161.png,letter/lettkh033.png,77,77,0,z,0.2495725000044331,None,0,77,77,77,120.35280470002908,,,,,,,120.35280470002908,121.3396478999639,121.35260450001806,121.35260450001806,121.60348709998652,z,0.2495725000044331,None,121.60354779998306,121.60989289998543,121.79058979998808,121.34566969994921,,,,,,,,SC_th,001,2025-03-07_12h17.15.177,MainFlow,2024.2.4,129.73214209081016,2025-03-07 12h17.28.153782 +0700,
1,2,2,7,letter/lettkh033.png,letter/lettth072.png,78,78,0,x,0.22765849996358156,None,0,78,78,78,121.79761589993723,,,,,,,121.79761589993723,122.78375880001113,122.79725309996866,122.79725309996866,123.0272122999886,x,0.22765849996358156,None,123.02726939995773,123.0336123999441,123.21425660001114,122.79029159992933,,,,,,,,SC_th,001,2025-03-07_12h17.15.177,MainFlow,2024.2.4,129.73214209081016,2025-03-07 12h17.28.153782 +0700,
1,2,1,8,letter/lettth153.png,letter/lettkh031.png,79,79,0,z,0.17335319996345788,None,0,79,79,79,123.22111389995553,,,,,,,123.22111389995553,124.20733180001844,124.22091899998486,124.22091899998486,124.39507590001449,z,0.17335319996345788,None,124.3951364000095,124.40142899996135,124.58202430000529,124.21394980000332,,,,,,,,SC_th,001,2025-03-07_12h17.15.177,MainFlow,2024.2.4,129.73214209081016,2025-03-07 12h17.28.153782 +0700,
1,3,1,2,letter/lettth052.png,letter/lettgr072.png,80,80,0,z,0.25914729991927743,None,0,80,80,80,124.58918949996587,,,,,,,124.58918949996587,125.57502410002053,125.58872040000279,125.58872040000279,125.85343689995352,z,0.25914729991927743,None,125.85349769995082,125.85992309998255,126.04060720000416,125.58171970001422,,,,,,,,SC_th,001,2025-03-07_12h17.15.177,MainFlow,2024.2.4,129.73214209081016,2025-03-07 12h17.28.153782 +0700,
1,2,1,2,letter/lettth032.png,letter/lettkh032.png,81,81,0,x,0.4067480999510735,None,0,81,81,81,126.04755979997572,,,,,,,126.04755979997572,127.03360620001331,127.04730009997729,127.04730009997729,127.45761639997363,x,0.4067480999510735,None,127.4576759999618,127.46401100000367,127.6446848999476,127.04029399994761,,,,,,,,SC_th,001,2025-03-07_12h17.15.177,MainFlow,2024.2.4,129.73214209081016,2025-03-07 12h17.28.153782 +0700,
1,1,2,7,letter/letten051.png,letter/lettth025.png,82,82,0,x,0.214115499984473,None,0,82,82,82,127.65178630000446,,,,,,,127.65178630000446,128.6377308999654,128.65135950001422,128.65135950001422,128.8672359000193,x,0.214115499984473,None,128.86729650001507,128.8736695999978,129.05438210000284,128.64437529991847,,,,,,,,SC_th,001,2025-03-07_12h17.15.177,MainFlow,2024.2.4,129.73214209081016,2025-03-07 12h17.28.153782 +0700,
1,3,1,4,letter/lettth024.png,letter/lettgr064.png,83,83,0,z,0.2478728999849409,None,0,83,83,83,129.06169959995896,,,,,,,129.06169959995896,130.0475980999181,130.06117140001152,130.06117140001152,130.31125459994655,z,0.2478728999849409,None,130.31131619994994,130.31781039992347,130.49848790001124,130.05409569991753,,,,,,,,SC_th,001,2025-03-07_12h17.15.177,MainFlow,2024.2.4,129.73214209081016,2025-03-07 12h17.28.153782 +0700,
1,3,2,3,letter/lettgr153.png,letter/lettth155.png,84,84,0,x,0.22804960003122687,None,0,84,84,84,130.5053333999822,,,,,,,130.5053333999822,131.49215059995186,131.50514669995755,131.50514669995755,131.7349137000274,x,0.22804960003122687,None,131.7349719000049,131.74144849996082,131.92214009992313,131.49864050000906,,,,,,,,SC_th,001,2025-03-07_12h17.15.177,MainFlow,2024.2.4,129.73214209081016,2025-03-07 12h17.28.153782 +0700,
1,1,1,6,letter/lettth024.png,letter/letten153.png,85,85,0,z,0.21955560008063912,None,0,85,85,85,131.92896429996472,,,,,,,131.92896429996472,132.9151718999492,132.92880539991893,132.92880539991893,133.1516519000288,z,0.21955560008063912,None,133.15170459996443,133.15814019995742,133.33883789996617,132.9218868999742,,,,,,,,SC_th,001,2025-03-07_12h17.15.177,MainFlow,2024.2.4,129.73214209081016,2025-03-07 12h17.28.153782 +0700,
1,1,2,3,letter/letten041.png,letter/lettth092.png,86,86,0,x,0.21168950002174824,None,0,86,86,86,133.34602739999536,,,,,,,133.34602739999536,134.33178220002446,134.34553319995757,134.34553319995757,134.56141580000985,x,0.21168950002174824,None,134.56149059999734,134.56783429998904,134.74848910002038,134.33856880001258,,,,,,,,SC_th,001,2025-03-07_12h17.15.177,MainFlow,2024.2.4,129.73214209081016,2025-03-07 12h17.28.153782 +0700,
1,2,2,1,letter/lettkh034.png,letter/lettth061.png,87,87,0,x,0.280122600030154,None,0,87,87,87,134.75569759996142,,,,,,,134.75569759996142,135.74156120000407,135.7551643999759,135.7551643999759,136.04034149996005,x,0.280122600030154,None,136.04039999993984,136.04680110001937,136.22799439996015,135.74815370002761,,,,,,,,SC_th,001,2025-03-07_12h17.15.177,MainFlow,2024.2.4,129.73214209081016,2025-03-07 12h17.28.153782 +0700,
1,3,1,3,letter/lettth155.png,letter/lettgr153.png,88,88,0,z,0.19413059996441007,None,0,88,88,88,136.23481539997738,,,,,,,136.23481539997738,137.2210254999809,137.2346463999711,137.2346463999711,137.42974729998969,z,0.19413059996441007,None,137.4298095999984,137.43603889993392,137.61681849998422,137.22768449992873,,,,,,,,SC_th,001,2025-03-07_12h17.15.177,MainFlow,2024.2.4,129.73214209081016,2025-03-07 12h17.28.153782 +0700,
1,2,1,3,letter/lettth112.png,letter/lettkh031.png,89,89,0,z,0.1446671000448987,None,0,89,89,89,137.6236783999484,,,,,,,137.6236783999484,138.60981779999565,138.62346189992968,138.62346189992968,138.76951929996721,z,0.1446671000448987,None,138.769586600014,138.77596789994277,138.95664949994534,138.61644989997149,,,,,,,,SC_th,001,2025-03-07_12h17.15.177,MainFlow,2024.2.4,129.73214209081016,2025-03-07 12h17.28.153782 +0700,
1,2,2,5,letter/lettkh023.png,letter/lettth024.png,90,90,0,x,0.13421510008629411,None,0,90,90,90,138.9633935999591,,,,,,,138.9633935999591,139.95019989996217,139.96331639995333,139.96331639995333,140.10306499991566,x,0.13421510008629411,None,140.10313950001728,140.10936110001057,140.29030829994008,139.9563253999222,,,,,,,,SC_th,001,2025-03-07_12h17.15.177,MainFlow,2024.2.4,129.73214209081016,2025-03-07 12h17.28.153782 +0700,
1,1,2,4,letter/letten091.png,letter/lettth041.png,91,91,0,x,0.04960320005193353,None,0,91,91,91,140.29715589992702,,,,,,,140.29715589992702,141.28316779993474,141.296785500017,141.296785500017,141.35303629992995,x,0.04960320005193353,None,141.35309549991507,141.35953120002523,141.54024110001046,141.28993279999122,,,,,,,,SC_th,001,2025-03-07_12h17.15.177,MainFlow,2024.2.4,129.73214209081016,2025-03-07 12h17.28.153782 +0700,
1,2,2,3,letter/lettkh031.png,letter/lettth112.png,92,92,0,x,0.22350590000860393,None,0,92,92,92,141.5473235999234,,,,,,,141.5473235999234,142.53330339991953,142.54695869993884,142.54695869993884,142.77618039993104,x,0.22350590000860393,None,142.77623389998917,142.78267599991523,142.96402159996796,142.53996169997845,,,,,,,,SC_th,001,2025-03-07_12h17.15.177,MainFlow,2024.2.4,129.73214209081016,2025-03-07 12h17.28.153782 +0700,
1,3,1,8,letter/lettth013.png,letter/lettgr153.png,93,93,0,z,0.18839010002557188,None,0,93,93,93,142.97115569992457,,,,,,,142.97115569992457,143.95699179999065,143.97061209997628,143.97061209997628,144.16555019991938,z,0.18839010002557188,None,144.165611699922,144.1719134999439,144.35263809992466,143.96363799995743,,,,,,,,SC_th,001,2025-03-07_12h17.15.177,MainFlow,2024.2.4,129.73214209081016,2025-03-07 12h17.28.153782 +0700,
1,1,1,2,letter/lettth061.png,letter/letten062.png,94,94,0,z,0.11439340002834797,None,0,94,94,94,144.35962679993827,,,,,,,144.35962679993827,145.34564640000463,145.35932849999517,145.35932849999517,145.47797419992276,z,0.11439340002834797,None,145.47802809998393,145.4844401999144,145.66514299996197,145.3523578000022,,,,,,,,SC_th,001,2025-03-07_12h17.15.177,MainFlow,2024.2.4,129.73214209081016,2025-03-07 12h17.28.153782 +0700,
1,3,2,3,letter/lettgr153.png,letter/lettth155.png,95,95,0,x,0.19588829996064305,None,0,95,95,95,145.67215869994834,,,,,,,145.67215869994834,146.6581748999888,146.67181520001031,146.67181520001031,146.87384060001932,x,0.19588829996064305,None,146.8739022000227,146.88018430001102,147.06088100001216,146.66482720000204,,,,,,,,SC_th,001,2025-03-07_12h17.15.177,MainFlow,2024.2.4,129.73214209081016,2025-03-07 12h17.28.153782 +0700,
,,,,,,,,,,,,,,,,,,,,,,,,,,,,,,,,,,,147.06095940002706,147.0676180999726,147.0676180999726,149.27640259999316,space,2.203228999977,None,SC_th,001,2025-03-07_12h17.15.177,MainFlow,2024.2.4,129.73214209081016,2025-03-07 12h17.28.153782 +0700,
