lang,langpair,sequence,pairid,firstdir,seconddir,thisN,thisTrialN,thisRepN,key_resp.keys,key_resp.rt,key_resp.duration,trials.thisRepN,trials.thisTrialN,trials.thisN,trials.thisIndex,thisRow.t,notes,tutorial.started,tutorial.stopped,key_instruct.keys,key_instruct.rt,key_instruct.duration,image_first.started,letterselect.started,instruct.started,key_resp.started,letterselect.stopped,trials.key_resp.keys,trials.key_resp.rt,trials.key_resp.duration,blanknext.started,instruct_2.started,blanknext.stopped,image_first.stopped,ending.started,text_3.started,ending_key.started,ending.stopped,ending_key.keys,ending_key.rt,ending_key.duration,participant,session,date,expName,psychopyVersion,frameRate,expStart,
,,,,,,,,,,,,,,,,,,0.003964300005463883,112.86429739999585,space,112.76017900000443,None,,,,,,,,,,,,,,,,,,,,SS_th,001,2025-03-11_09h56.29.156,MainFlow,2024.2.4,156.8624990344791,2025-03-11 09h57.30.008678 +0700,
1,1,2,1,letter/letten092.png,letter/lettth022.png,0,0,0,x,3.7255057000002125,None,0,0,0,0,112.92966090000118,,,,,,,112.92966090000118,113.88326650000818,113.88770649999788,113.88770649999788,117.61819219999597,x,3.7255057000002125,None,117.62467469999683,117.63087130000349,117.80552560000797,,,,,,,,,SS_th,001,2025-03-11_09h56.29.156,MainFlow,2024.2.4,156.8624990344791,2025-03-11 09h57.30.008678 +0700,
1,3,2,8,letter/lettgr153.png,letter/lettth013.png,1,1,0,x,1.3562284000072395,None,0,1,1,1,117.8459678000072,,,,,,,117.8459678000072,118.81850249999843,118.8250138000003,118.8250138000003,120.18647709999641,x,1.3562284000072395,None,120.1865361000091,120.19284530000004,120.37350020000304,,,,,,,,,SS_th,001,2025-03-11_09h56.29.156,MainFlow,2024.2.4,156.8624990344791,2025-03-11 09h57.30.008678 +0700,
1,1,2,1,letter/letten092.png,letter/lettth022.png,2,2,0,x,0.22150679999322165,None,0,2,2,2,120.38054910000938,,,,,,,120.38054910000938,121.36674080000375,121.38006530000712,121.38006530000712,121.60455800000636,x,0.22150679999322165,None,121.6047663000063,121.6097543000069,121.79013059999852,121.37304700000095,,,,,,,,SS_th,001,2025-03-11_09h56.29.156,MainFlow,2024.2.4,156.8624990344791,2025-03-11 09h57.30.008678 +0700,
1,2,2,4,letter/lettkh034.png,letter/lettth153.png,3,3,0,z,0.20436650000920054,None,0,3,3,3,121.81041879999975,,,,,,,121.81041879999975,122.79753870000422,122.80344980000518,122.80344980000518,123.0135522000055,z,0.20436650000920054,None,123.01370720000705,123.01883709999674,123.1998961000063,122.80344980000518,,,,,,,,SS_th,001,2025-03-11_09h56.29.156,MainFlow,2024.2.4,156.8624990344791,2025-03-11 09h57.30.008678 +0700,
1,2,2,4,letter/lettkh034.png,letter/lettth153.png,4,4,0,z,2.2963367000047583,None,0,4,4,4,123.21232629999577,,,,,,,123.21232629999577,124.2001556000032,124.20601819999865,124.20601819999865,126.50545979999879,z,2.2963367000047583,None,126.50558840000303,126.51106790000631,126.69284610000614,124.20601819999865,,,,,,,,SS_th,001,2025-03-11_09h56.29.156,MainFlow,2024.2.4,156.8624990344791,2025-03-11 09h57.30.008678 +0700,
1,2,1,7,letter/lettth072.png,letter/lettkh033.png,5,5,0,z,4.975357000002987,None,0,5,5,5,126.71682410000358,,,,,,,126.71682410000358,127.7061781000084,127.71249970000645,127.71249970000645,132.69256409999798,z,4.975357000002987,None,132.69280319999962,132.69771520000359,132.87844070000574,,,,,,,,,SS_th,001,2025-03-11_09h56.29.156,MainFlow,2024.2.4,156.8624990344791,2025-03-11 09h57.30.008678 +0700,
1,2,1,2,letter/lettth032.png,letter/lettkh032.png,6,6,0,z,0.5026456999912625,None,0,6,6,6,132.89666870000656,,,,,,,132.89666870000656,133.88574230000086,133.8915846000018,133.8915846000018,134.3991943000001,z,0.5026456999912625,None,134.39929630000552,134.40535090000776,134.58656179999525,133.8915846000018,,,,,,,,SS_th,001,2025-03-11_09h56.29.156,MainFlow,2024.2.4,156.8624990344791,2025-03-11 09h57.30.008678 +0700,
1,3,1,4,letter/lettth024.png,letter/lettgr064.png,7,7,0,z,0.2598176000028616,None,0,7,7,7,134.61608859999978,,,,,,,134.61608859999978,135.60010009999678,135.6065765999956,135.6065765999956,135.8721821000072,z,0.2598176000028616,None,135.87233739999647,135.8773865999974,136.0582704999979,,,,,,,,,SS_th,001,2025-03-11_09h56.29.156,MainFlow,2024.2.4,156.8624990344791,2025-03-11 09h57.30.008678 +0700,
1,2,1,5,letter/lettth024.png,letter/lettkh023.png,8,8,0,z,0.28882400000293273,None,0,8,8,8,136.0652304999967,,,,,,,136.0652304999967,137.05171770000015,137.06454289999965,137.06454289999965,137.3573044000077,z,0.28882400000293273,None,137.3574144000013,137.36321300000418,137.5440263000055,137.0575744999951,,,,,,,,SS_th,001,2025-03-11_09h56.29.156,MainFlow,2024.2.4,156.8624990344791,2025-03-11 09h57.30.008678 +0700,
1,1,2,5,letter/letten041.png,letter/lettth152.png,9,9,0,x,1.3622040999907767,None,0,9,9,9,137.55909769999562,,,,,,,137.55909769999562,138.5443166000041,138.55036940000718,138.55036940000718,139.92026500000793,x,1.3622040999907767,None,139.92050480000034,139.9254232999956,140.1063856999972,138.55036940000718,,,,,,,,SS_th,001,2025-03-11_09h56.29.156,MainFlow,2024.2.4,156.8624990344791,2025-03-11 09h57.30.008678 +0700,
1,2,2,6,letter/lettkh033.png,letter/lettth161.png,10,10,0,x,0.3110785000026226,None,0,10,10,10,140.1326560000016,,,,,,,140.1326560000016,141.120777300006,141.12629770000058,141.12629770000058,141.4394639000093,x,0.3110785000026226,None,141.4395336000016,141.4455803000019,141.62717890000204,141.12629770000058,,,,,,,,SS_th,001,2025-03-11_09h56.29.156,MainFlow,2024.2.4,156.8624990344791,2025-03-11 09h57.30.008678 +0700,
1,3,2,7,letter/lettgr072.png,letter/lettth025.png,11,11,0,x,0.2725024000101257,None,0,11,11,11,141.6596242000087,,,,,,,141.6596242000087,142.64042440000048,142.64688820000447,142.64688820000447,142.92508879999514,x,0.2725024000101257,None,142.92514619999565,142.93138150000595,143.11260730000504,,,,,,,,,SS_th,001,2025-03-11_09h56.29.156,MainFlow,2024.2.4,156.8624990344791,2025-03-11 09h57.30.008678 +0700,
1,1,2,2,letter/letten062.png,letter/lettth061.png,12,12,0,x,0.46887680000509135,None,0,12,12,12,143.13139730000694,,,,,,,143.13139730000694,144.12071620000643,144.12608050000563,144.12608050000563,144.59905160000199,x,0.46887680000509135,None,144.59916690000682,144.60473750000529,144.78644360000908,144.12608050000563,,,,,,,,SS_th,001,2025-03-11_09h56.29.156,MainFlow,2024.2.4,156.8624990344791,2025-03-11 09h57.30.008678 +0700,
1,2,2,8,letter/lettkh031.png,letter/lettth153.png,13,13,0,x,0.24212140000599902,None,0,13,13,13,144.81014689999574,,,,,,,144.81014689999574,145.79959660000168,145.80598869999812,145.80598869999812,146.05022279999685,x,0.24212140000599902,None,146.0503441000037,146.055858599997,146.23748150000756,,,,,,,,,SS_th,001,2025-03-11_09h56.29.156,MainFlow,2024.2.4,156.8624990344791,2025-03-11 09h57.30.008678 +0700,
1,2,2,2,letter/lettkh032.png,letter/lettth032.png,14,14,0,x,0.30471359999501146,None,0,14,14,14,146.27582120000443,,,,,,,146.27582120000443,147.25088320000214,147.2573204000073,147.2573204000073,147.56420880000223,x,0.30471359999501146,None,147.56436240000767,147.56965659999696,147.75070050000795,,,,,,,,,SS_th,001,2025-03-11_09h56.29.156,MainFlow,2024.2.4,156.8624990344791,2025-03-11 09h57.30.008678 +0700,
1,3,2,1,letter/lettgr143.png,letter/lettth132.png,15,15,0,x,0.25352749999728985,None,0,15,15,15,147.78593759999785,,,,,,,147.78593759999785,148.7712268000032,148.77760940000007,148.77760940000007,149.0359540000063,x,0.25352749999728985,None,149.03612990000693,149.04142399999546,149.22297940000135,,,,,,,,,SS_th,001,2025-03-11_09h56.29.156,MainFlow,2024.2.4,156.8624990344791,2025-03-11 09h57.30.008678 +0700,
1,3,2,6,letter/lettgr061.png,letter/lettth082.png,16,16,0,x,0.23251109999546316,None,0,16,16,16,149.24679180000385,,,,,,,149.24679180000385,150.23045550000097,150.23583180000423,150.23583180000423,150.47411130000546,x,0.23251109999546316,None,150.47435459999542,150.4790592000063,150.65988020000805,150.23583180000423,,,,,,,,SS_th,001,2025-03-11_09h56.29.156,MainFlow,2024.2.4,156.8624990344791,2025-03-11 09h57.30.008678 +0700,
1,2,2,6,letter/lettkh033.png,letter/lettth161.png,17,17,0,x,0.18450690001191106,None,0,17,17,17,150.67191259999527,,,,,,,150.67191259999527,151.66006280000147,151.66610010000295,151.66610010000295,151.85566400000243,x,0.18450690001191106,None,151.85587349999696,151.86103929999808,152.0417829000071,151.66610010000295,,,,,,,,SS_th,001,2025-03-11_09h56.29.156,MainFlow,2024.2.4,156.8624990344791,2025-03-11 09h57.30.008678 +0700,
1,3,1,3,letter/lettth155.png,letter/lettgr153.png,18,18,0,z,0.17330129999027122,None,0,18,18,18,152.07816849999654,,,,,,,152.07816849999654,153.06233990000328,153.0685497000086,153.0685497000086,153.2440506999992,z,0.17330129999027122,None,153.24420790000295,153.24897309999506,153.43002200000046,,,,,,,,,SS_th,001,2025-03-11_09h56.29.156,MainFlow,2024.2.4,156.8624990344791,2025-03-11 09h57.30.008678 +0700,
1,3,2,1,letter/lettgr143.png,letter/lettth132.png,19,19,0,x,0.4933281999983592,None,0,19,19,19,153.44250140000076,,,,,,,153.44250140000076,154.43111590000626,154.436320599998,154.436320599998,154.9322441999975,x,0.4933281999983592,None,154.93246300000465,154.93749769999704,155.11794999999984,154.436320599998,,,,,,,,SS_th,001,2025-03-11_09h56.29.156,MainFlow,2024.2.4,156.8624990344791,2025-03-11 09h57.30.008678 +0700,
1,3,1,1,letter/lettth132.png,letter/lettgr143.png,20,20,0,z,0.29778029999579303,None,0,20,20,20,155.13975230000506,,,,,,,155.13975230000506,156.12523810000857,156.13060699999915,156.13060699999915,156.42954199999804,z,0.29778029999579303,None,156.4296017000015,156.43566460000875,156.61707910000405,156.13060699999915,,,,,,,,SS_th,001,2025-03-11_09h56.29.156,MainFlow,2024.2.4,156.8624990344791,2025-03-11 09h57.30.008678 +0700,
1,1,2,8,letter/letten031.png,letter/lettth161.png,21,21,0,x,0.45285849999345373,None,0,21,21,21,156.64807180000935,,,,,,,156.64807180000935,157.63046050000412,157.63696420000633,157.63696420000633,158.09563009999692,x,0.45285849999345373,None,158.0956862000021,158.1019995999959,158.2835083999962,,,,,,,,,SS_th,001,2025-03-11_09h56.29.156,MainFlow,2024.2.4,156.8624990344791,2025-03-11 09h57.30.008678 +0700,
1,1,1,5,letter/lettth152.png,letter/letten041.png,22,22,0,z,0.2374956999992719,None,0,22,22,22,158.32353850000072,,,,,,,158.32353850000072,159.2971222000051,159.3034794999985,159.3034794999985,159.5475482000038,z,0.2374956999992719,None,159.54765740000585,159.55334579999908,159.73475020000478,,,,,,,,,SS_th,001,2025-03-11_09h56.29.156,MainFlow,2024.2.4,156.8624990344791,2025-03-11 09h57.30.008678 +0700,
1,1,2,6,letter/letten153.png,letter/lettth024.png,23,23,0,x,0.2546256999921752,None,0,23,23,23,159.75484350000625,,,,,,,159.75484350000625,160.7416005999985,160.74745589999657,160.74745589999657,161.00519490000443,x,0.2546256999921752,None,161.00528559999657,161.01123550000193,161.1926295000012,160.74745589999657,,,,,,,,SS_th,001,2025-03-11_09h56.29.156,MainFlow,2024.2.4,156.8624990344791,2025-03-11 09h57.30.008678 +0700,
1,1,1,8,letter/lettth161.png,letter/letten031.png,24,24,0,z,0.3384838000056334,None,0,24,24,24,161.22255220000807,,,,,,,161.22255220000807,162.20642580000276,162.21262030000798,162.21262030000798,162.55499459999555,z,0.3384838000056334,None,162.55520889999752,162.56037720000313,162.74100579999504,,,,,,,,,SS_th,001,2025-03-11_09h56.29.156,MainFlow,2024.2.4,156.8624990344791,2025-03-11 09h57.30.008678 +0700,
1,3,1,1,letter/lettth132.png,letter/lettgr143.png,25,25,0,z,0.23903159999463242,None,0,25,25,25,162.75739520000934,,,,,,,162.75739520000934,163.74088630000188,163.74701900000218,163.74701900000218,163.99066959999618,z,0.23903159999463242,None,163.99072739999974,163.99697770000785,164.17776429999503,163.74701900000218,,,,,,,,SS_th,001,2025-03-11_09h56.29.156,MainFlow,2024.2.4,156.8624990344791,2025-03-11 09h57.30.008678 +0700,
1,3,2,4,letter/lettgr064.png,letter/lettth024.png,26,26,0,x,0.27710490000026766,None,0,26,26,26,164.19467739999527,,,,,,,164.19467739999527,165.17774959999952,165.1840133000078,165.1840133000078,165.46257070000865,x,0.27710490000026766,None,165.46263270000054,165.46870939999644,165.64991670000018,165.1840133000078,,,,,,,,SS_th,001,2025-03-11_09h56.29.156,MainFlow,2024.2.4,156.8624990344791,2025-03-11 09h57.30.008678 +0700,
1,2,1,6,letter/lettth161.png,letter/lettkh033.png,27,27,0,z,0.2630208000045968,None,0,27,27,27,165.65951209999912,,,,,,,165.65951209999912,166.64284820000466,166.65624789999856,166.65624789999856,166.92125970000052,z,0.2630208000045968,None,166.9214015000034,166.92683399999805,167.1081312000024,166.64903010000126,,,,,,,,SS_th,001,2025-03-11_09h56.29.156,MainFlow,2024.2.4,156.8624990344791,2025-03-11 09h57.30.008678 +0700,
1,2,1,1,letter/lettth061.png,letter/lettkh034.png,28,28,0,z,0.21155569999245927,None,0,28,28,28,167.13049940000928,,,,,,,167.13049940000928,168.11504580000474,168.12101919999986,168.12101919999986,168.33854070000234,z,0.21155569999245927,None,168.33875460000127,168.3439412000007,168.5243410999974,168.12101919999986,,,,,,,,SS_th,001,2025-03-11_09h56.29.156,MainFlow,2024.2.4,156.8624990344791,2025-03-11 09h57.30.008678 +0700,
1,1,2,7,letter/letten051.png,letter/lettth025.png,29,29,0,x,0.24923499999567866,None,0,29,29,29,168.54531260000658,,,,,,,168.54531260000658,169.53113859999576,169.53741010000522,169.53741010000522,169.78968860000896,x,0.24923499999567866,None,169.78991900000256,169.79545269999653,169.97555329999886,169.53741010000522,,,,,,,,SS_th,001,2025-03-11_09h56.29.156,MainFlow,2024.2.4,156.8624990344791,2025-03-11 09h57.30.008678 +0700,
1,2,2,7,letter/lettkh033.png,letter/lettth072.png,30,30,0,x,0.25085509999189526,None,0,30,30,30,169.9883630999975,,,,,,,169.9883630999975,170.9763141000003,170.9817955000035,170.9817955000035,171.23948709999968,x,0.25085509999189526,None,171.23955510000815,171.24542750000546,171.42700340000738,170.9817955000035,,,,,,,,SS_th,001,2025-03-11_09h56.29.156,MainFlow,2024.2.4,156.8624990344791,2025-03-11 09h57.30.008678 +0700,
1,2,1,8,letter/lettth153.png,letter/lettkh031.png,31,31,0,x,0.2281488000007812,None,0,31,31,31,171.4629275000043,,,,,,,171.4629275000043,172.44053439999698,172.44675460000872,172.44675460000872,172.6780402000004,x,0.2281488000007812,None,172.67825620000076,172.68326360000356,172.86437890000525,,,,,,,,,SS_th,001,2025-03-11_09h56.29.156,MainFlow,2024.2.4,156.8624990344791,2025-03-11 09h57.30.008678 +0700,
1,1,1,2,letter/lettth061.png,letter/letten062.png,32,32,0,x,0.2736931999970693,None,0,32,32,32,172.87968830000318,,,,,,,172.87968830000318,173.8643984000082,173.87014700000873,173.87014700000873,174.1482279000047,x,0.2736931999970693,None,174.14828690000286,174.1545735999971,174.336418699997,173.87014700000873,,,,,,,,SS_th,001,2025-03-11_09h56.29.156,MainFlow,2024.2.4,156.8624990344791,2025-03-11 09h57.30.008678 +0700,
1,3,1,7,letter/lettth025.png,letter/lettgr072.png,33,33,0,z,0.22639470000285655,None,0,33,33,33,174.37297920000856,,,,,,,174.37297920000856,175.34923269999854,175.35576079999737,175.35576079999737,175.58651730000565,z,0.22639470000285655,None,175.58665810000093,175.591805700009,175.7734233000083,,,,,,,,,SS_th,001,2025-03-11_09h56.29.156,MainFlow,2024.2.4,156.8624990344791,2025-03-11 09h57.30.008678 +0700,
1,1,1,3,letter/lettth092.png,letter/letten041.png,34,34,0,z,0.17663109999557491,None,0,34,34,34,175.8133172000089,,,,,,,175.8133172000089,176.79326269999729,176.79982230000314,176.79982230000314,176.982076100001,z,0.17663109999557491,None,176.9822184000077,176.98742550000316,177.16903730000195,,,,,,,,,SS_th,001,2025-03-11_09h56.29.156,MainFlow,2024.2.4,156.8624990344791,2025-03-11 09h57.30.008678 +0700,
1,3,1,5,letter/lettth052.png,letter/lettgr141.png,35,35,0,z,0.37040270000579767,None,0,35,35,35,177.19070920000377,,,,,,,177.19070920000377,178.17590600000403,178.1817424000037,178.1817424000037,178.5580642999994,z,0.37040270000579767,None,178.5582168999972,178.56346590000612,178.744858200007,178.1817424000037,,,,,,,,SS_th,001,2025-03-11_09h56.29.156,MainFlow,2024.2.4,156.8624990344791,2025-03-11 09h57.30.008678 +0700,
1,1,1,6,letter/lettth024.png,letter/letten153.png,36,36,0,z,0.22352040000259876,None,0,36,36,36,178.75738180000917,,,,,,,178.75738180000917,179.74509920000855,179.75079059999553,179.75079059999553,179.98090360000788,z,0.22352040000259876,None,179.98101869999664,179.9867252999975,180.1685276000062,179.75079059999553,,,,,,,,SS_th,001,2025-03-11_09h56.29.156,MainFlow,2024.2.4,156.8624990344791,2025-03-11 09h57.30.008678 +0700,
1,1,1,3,letter/lettth092.png,letter/letten041.png,37,37,0,z,0.22643809999863151,None,0,37,37,37,180.18395239999518,,,,,,,180.18395239999518,181.1680694999959,181.17414460000873,181.17414460000873,181.40499680000357,z,0.22643809999863151,None,181.4051468999969,181.41016320000926,181.59133799999836,181.17414460000873,,,,,,,,SS_th,001,2025-03-11_09h56.29.156,MainFlow,2024.2.4,156.8624990344791,2025-03-11 09h57.30.008678 +0700,
1,1,1,7,letter/lettth025.png,letter/letten051.png,38,38,0,z,0.19445080000150483,None,0,38,38,38,181.60375629999908,,,,,,,181.60375629999908,182.59167409999645,182.59739300000365,182.59739300000365,182.79481610000948,z,0.19445080000150483,None,182.79501869999513,182.80011369999556,182.9804482000036,182.59739300000365,,,,,,,,SS_th,001,2025-03-11_09h56.29.156,MainFlow,2024.2.4,156.8624990344791,2025-03-11 09h57.30.008678 +0700,
1,3,1,6,letter/lettth082.png,letter/lettgr061.png,39,39,0,z,0.14336309999634977,None,0,39,39,39,183.01772150000033,,,,,,,183.01772150000033,184.0005203000037,184.0068207000004,184.0068207000004,184.15422280000348,z,0.14336309999634977,None,184.1543837000063,184.15963510000438,184.341164700003,,,,,,,,,SS_th,001,2025-03-11_09h56.29.156,MainFlow,2024.2.4,156.8624990344791,2025-03-11 09h57.30.008678 +0700,
1,2,1,4,letter/lettth153.png,letter/lettkh034.png,40,40,0,z,0.21654970000963658,None,0,40,40,40,184.35695830000623,,,,,,,184.35695830000623,185.3408255999966,185.34690980000596,185.34690980000596,185.57110220000322,z,0.21654970000963658,None,185.57134930000757,185.57589870000083,185.75773409999965,185.34690980000596,,,,,,,,SS_th,001,2025-03-11_09h56.29.156,MainFlow,2024.2.4,156.8624990344791,2025-03-11 09h57.30.008678 +0700,
1,3,2,8,letter/lettgr153.png,letter/lettth013.png,41,41,0,x,0.23737350000010338,None,0,41,41,41,185.77328330000455,,,,,,,185.77328330000455,186.7572022999957,186.76322130000335,186.76322130000335,187.00730310000654,x,0.23737350000010338,None,187.00741269999708,187.01303450000705,187.1941441999952,186.76322130000335,,,,,,,,SS_th,001,2025-03-11_09h56.29.156,MainFlow,2024.2.4,156.8624990344791,2025-03-11 09h57.30.008678 +0700,
1,1,1,4,letter/lettth041.png,letter/letten091.png,42,42,0,z,0.14443349999783095,None,0,42,42,42,187.21364020000328,,,,,,,187.21364020000328,188.2017240999994,188.20749509999587,188.20749509999587,188.35468630000832,z,0.14443349999783095,None,188.35490050000953,188.36020260000078,188.54145649999555,188.20749509999587,,,,,,,,SS_th,001,2025-03-11_09h56.29.156,MainFlow,2024.2.4,156.8624990344791,2025-03-11 09h57.30.008678 +0700,
1,3,1,8,letter/lettth013.png,letter/lettgr153.png,43,43,0,z,0.23066580000158865,None,0,43,43,43,188.56333230000746,,,,,,,188.56333230000746,189.5483893000055,189.55439230000775,189.55439230000775,189.791512900003,z,0.23066580000158865,None,189.79161790000217,189.7979204000003,189.97928179999872,189.55439230000775,,,,,,,,SS_th,001,2025-03-11_09h56.29.156,MainFlow,2024.2.4,156.8624990344791,2025-03-11 09h57.30.008678 +0700,
1,2,1,3,letter/lettth112.png,letter/lettkh031.png,44,44,0,z,0.18087759999616537,None,0,44,44,44,190.00306850000925,,,,,,,190.00306850000925,190.99236869999731,190.9986848999979,190.9986848999979,191.18191240000306,z,0.18087759999616537,None,191.1821251000074,191.18606170000567,191.3670381999982,,,,,,,,,SS_th,001,2025-03-11_09h56.29.156,MainFlow,2024.2.4,156.8624990344791,2025-03-11 09h57.30.008678 +0700,
1,1,2,2,letter/letten062.png,letter/lettth061.png,45,45,0,x,0.2353064000053564,None,0,45,45,45,191.3789825999993,,,,,,,191.3789825999993,192.36724700000195,192.37328400000115,192.37328400000115,192.6116239999974,x,0.2353064000053564,None,192.6118346000003,192.61708070000168,192.79745040000125,192.37328400000115,,,,,,,,SS_th,001,2025-03-11_09h56.29.156,MainFlow,2024.2.4,156.8624990344791,2025-03-11 09h57.30.008678 +0700,
1,3,1,7,letter/lettth025.png,letter/lettgr072.png,46,46,0,z,0.1304731999989599,None,0,46,46,46,192.8061621000088,,,,,,,192.8061621000088,193.79083569999784,193.80365070000698,193.80365070000698,193.93729660000827,z,0.1304731999989599,None,193.93744120000338,193.94256399999722,194.1238347000035,193.79665560000285,,,,,,,,SS_th,001,2025-03-11_09h56.29.156,MainFlow,2024.2.4,156.8624990344791,2025-03-11 09h57.30.008678 +0700,
1,1,1,7,letter/lettth025.png,letter/letten051.png,47,47,0,z,0.24330790000385605,None,0,47,47,47,194.13649689999875,,,,,,,194.13649689999875,195.12409019999905,195.12978499999736,195.12978499999736,195.38040290000208,z,0.24330790000385605,None,195.3805016999977,195.38649220000661,195.56833870000264,195.12978499999736,,,,,,,,SS_th,001,2025-03-11_09h56.29.156,MainFlow,2024.2.4,156.8624990344791,2025-03-11 09h57.30.008678 +0700,
1,2,2,5,letter/lettkh023.png,letter/lettth024.png,48,48,0,x,0.21354179999616463,None,0,48,48,48,195.59275979999802,,,,,,,195.59275979999802,196.58128230000148,196.58773929999734,196.58773929999734,196.80415890000586,x,0.21354179999616463,None,196.80429189999995,196.8098672000051,196.99164140000357,,,,,,,,,SS_th,001,2025-03-11_09h56.29.156,MainFlow,2024.2.4,156.8624990344791,2025-03-11 09h57.30.008678 +0700,
1,2,1,5,letter/lettth024.png,letter/lettkh023.png,49,49,0,z,0.08658619999187067,None,0,49,49,49,197.00775289999729,,,,,,,197.00775289999729,197.99129960000573,197.99732100000256,197.99732100000256,198.08847160000005,z,0.08658619999187067,None,198.08856750000268,198.09442670000135,198.2763893000083,197.99732100000256,,,,,,,,SS_th,001,2025-03-11_09h56.29.156,MainFlow,2024.2.4,156.8624990344791,2025-03-11 09h57.30.008678 +0700,
1,3,2,5,letter/lettgr141.png,letter/lettth052.png,50,50,0,x,0.23022650000348222,None,0,50,50,50,198.30117810000957,,,,,,,198.30117810000957,199.28942980000284,199.29570349999995,199.29570349999995,199.53204160000314,x,0.23022650000348222,None,199.53210019999824,199.53841110000212,199.71980059999623,,,,,,,,,SS_th,001,2025-03-11_09h56.29.156,MainFlow,2024.2.4,156.8624990344791,2025-03-11 09h57.30.008678 +0700,
1,2,2,8,letter/lettkh031.png,letter/lettth153.png,51,51,0,x,0.3099554999935208,None,0,51,51,51,199.7342839000048,,,,,,,199.7342839000048,200.72065279999515,200.7260193999973,200.7260193999973,201.0394168000057,x,0.3099554999935208,None,201.0395334000059,201.04520140000386,201.22624960000394,200.7260193999973,,,,,,,,SS_th,001,2025-03-11_09h56.29.156,MainFlow,2024.2.4,156.8624990344791,2025-03-11 09h57.30.008678 +0700,
1,1,2,5,letter/letten041.png,letter/lettth152.png,52,52,0,x,0.23754400000325404,None,0,52,52,52,201.238482700006,,,,,,,201.238482700006,202.22669779999705,202.2326069999981,202.2326069999981,202.47657739999704,x,0.23754400000325404,None,202.47668910000357,202.4825179000036,202.66367760000867,202.2326069999981,,,,,,,,SS_th,001,2025-03-11_09h56.29.156,MainFlow,2024.2.4,156.8624990344791,2025-03-11 09h57.30.008678 +0700,
1,1,1,1,letter/lettth022.png,letter/letten092.png,53,53,0,z,0.23064769999473356,None,0,53,53,53,202.68429900000046,,,,,,,202.68429900000046,203.67080170000554,203.6766581999982,203.6766581999982,203.9135401000094,z,0.23064769999473356,None,203.9135959999985,203.9194836999959,204.1004804999975,203.6766581999982,,,,,,,,SS_th,001,2025-03-11_09h56.29.156,MainFlow,2024.2.4,156.8624990344791,2025-03-11 09h57.30.008678 +0700,
1,2,1,1,letter/lettth061.png,letter/lettkh034.png,54,54,0,z,0.1677646000025561,None,0,54,54,54,204.10742660000687,,,,,,,204.10742660000687,205.09405790000164,205.10692920000292,205.10692920000292,205.28233750000072,z,0.1677646000025561,None,205.28248090000125,205.28751300000295,205.46865330000583,205.09995970000455,,,,,,,,SS_th,001,2025-03-11_09h56.29.156,MainFlow,2024.2.4,156.8624990344791,2025-03-11 09h57.30.008678 +0700,
1,3,2,4,letter/lettgr064.png,letter/lettth024.png,55,55,0,x,0.24188689999573398,None,0,55,55,55,205.48145069999737,,,,,,,205.48145069999737,206.46975830000883,206.47488580000936,206.47488580000936,206.71892300000763,x,0.24188689999573398,None,206.71904789999826,206.72461679999833,206.90633349999553,206.47488580000936,,,,,,,,SS_th,001,2025-03-11_09h56.29.156,MainFlow,2024.2.4,156.8624990344791,2025-03-11 09h57.30.008678 +0700,
1,3,1,5,letter/lettth052.png,letter/lettgr141.png,56,56,0,z,0.2230252000008477,None,0,56,56,56,206.92265300000145,,,,,,,206.92265300000145,207.90608450000582,207.91190360000473,207.91190360000473,208.14151780000248,z,0.2230252000008477,None,208.1415740000084,208.1478402000066,208.32911279999826,207.91190360000473,,,,,,,,SS_th,001,2025-03-11_09h56.29.156,MainFlow,2024.2.4,156.8624990344791,2025-03-11 09h57.30.008678 +0700,
1,1,1,8,letter/lettth161.png,letter/letten031.png,57,57,0,z,0.22490669999388047,None,0,57,57,57,208.34135360000073,,,,,,,208.34135360000073,209.33006760000717,209.33533719999832,209.33533719999832,209.5659760999988,z,0.22490669999388047,None,209.56623070000205,209.57123670000874,209.7529388999974,209.33533719999832,,,,,,,,SS_th,001,2025-03-11_09h56.29.156,MainFlow,2024.2.4,156.8624990344791,2025-03-11 09h57.30.008678 +0700,
1,1,1,4,letter/lettth041.png,letter/letten091.png,58,58,0,z,0.2567389000032563,None,0,58,58,58,209.76838439999847,,,,,,,209.76838439999847,210.75270389999787,210.75860159999866,210.75860159999866,211.01785230000678,z,0.2567389000032563,None,211.01806360000046,211.02366489999986,211.20329740000307,210.75860159999866,,,,,,,,SS_th,001,2025-03-11_09h56.29.156,MainFlow,2024.2.4,156.8624990344791,2025-03-11 09h57.30.008678 +0700,
1,2,1,4,letter/lettth153.png,letter/lettkh034.png,59,59,0,z,0.1587781999987783,None,0,59,59,59,211.2125701000041,,,,,,,211.2125701000041,212.1974828000093,212.20980260000215,212.20980260000215,212.36985889999778,z,0.1587781999987783,None,212.369915400006,212.37619290000293,212.55733670000336,212.20284189999802,,,,,,,,SS_th,001,2025-03-11_09h56.29.156,MainFlow,2024.2.4,156.8624990344791,2025-03-11 09h57.30.008678 +0700,
1,1,2,3,letter/letten041.png,letter/lettth092.png,60,60,0,x,0.329714999999851,None,0,60,60,60,212.5695817000087,,,,,,,212.5695817000087,213.55773210000189,213.56388329999754,213.56388329999754,213.8980952999991,x,0.329714999999851,None,213.89821149999625,213.903862200008,214.08502759999828,213.56388329999754,,,,,,,,SS_th,001,2025-03-11_09h56.29.156,MainFlow,2024.2.4,156.8624990344791,2025-03-11 09h57.30.008678 +0700,
1,3,2,2,letter/lettgr072.png,letter/lettth052.png,61,61,0,x,0.18984930000442546,None,0,61,61,61,214.09637729999667,,,,,,,214.09637729999667,215.08468070000526,215.0911186000012,215.0911186000012,215.28760450000118,x,0.18984930000442546,None,215.28789680000045,215.29249999999593,215.47346920000564,215.0911186000012,,,,,,,,SS_th,001,2025-03-11_09h56.29.156,MainFlow,2024.2.4,156.8624990344791,2025-03-11 09h57.30.008678 +0700,
1,1,2,8,letter/letten031.png,letter/lettth161.png,62,62,0,x,0.23865830000431743,None,0,62,62,62,215.48478250000335,,,,,,,215.48478250000335,216.47332079999615,216.47955220000586,216.47955220000586,216.72421800000302,x,0.23865830000431743,None,216.72437330000685,216.72970920000807,216.91137480000907,216.47955220000586,,,,,,,,SS_th,001,2025-03-11_09h56.29.156,MainFlow,2024.2.4,156.8624990344791,2025-03-11 09h57.30.008678 +0700,
1,1,1,5,letter/lettth152.png,letter/letten041.png,63,63,0,z,0.11645719999796711,None,0,63,63,63,216.92747029999737,,,,,,,216.92747029999737,217.91143930000544,217.91705410000577,217.91705410000577,218.03704500000458,z,0.11645719999796711,None,218.03722159999597,218.04197679999925,218.22337000000698,217.91705410000577,,,,,,,,SS_th,001,2025-03-11_09h56.29.156,MainFlow,2024.2.4,156.8624990344791,2025-03-11 09h57.30.008678 +0700,
1,2,2,2,letter/lettkh032.png,letter/lettth032.png,64,64,0,x,0.22646590000658762,None,0,64,64,64,218.2361103000003,,,,,,,218.2361103000003,219.22381199999654,219.22929220000515,219.22929220000515,219.45991469999717,x,0.22646590000658762,None,219.46006589999888,219.46518559999822,219.6469281000027,219.22929220000515,,,,,,,,SS_th,001,2025-03-11_09h56.29.156,MainFlow,2024.2.4,156.8624990344791,2025-03-11 09h57.30.008678 +0700,
1,3,1,2,letter/lettth052.png,letter/lettgr072.png,65,65,0,z,0.19856000000436325,None,0,65,65,65,219.66300010000123,,,,,,,219.66300010000123,220.64652260000003,220.652430800008,220.652430800008,220.85446380000212,z,0.19856000000436325,None,220.85453330000746,220.86065770000278,221.04255140000896,220.652430800008,,,,,,,,SS_th,001,2025-03-11_09h56.29.156,MainFlow,2024.2.4,156.8624990344791,2025-03-11 09h57.30.008678 +0700,
1,1,2,4,letter/letten091.png,letter/lettth041.png,66,66,0,x,0.1692793999973219,None,0,66,66,66,221.06713049999962,,,,,,,221.06713049999962,222.0555628000002,222.06206060000113,222.06206060000113,222.2380157000007,x,0.1692793999973219,None,222.23832450000918,222.24244640000688,222.42414460000873,,,,,,,,,SS_th,001,2025-03-11_09h56.29.156,MainFlow,2024.2.4,156.8624990344791,2025-03-11 09h57.30.008678 +0700,
1,3,2,5,letter/lettgr141.png,letter/lettth052.png,67,67,0,x,0.20079529999929946,None,0,67,67,67,222.4411420999968,,,,,,,222.4411420999968,223.4310761000088,223.4367132000043,223.4367132000043,223.63924930000212,x,0.20079529999929946,None,223.63937440000882,223.644941999999,223.82603520000703,223.4367132000043,,,,,,,,SS_th,001,2025-03-11_09h56.29.156,MainFlow,2024.2.4,156.8624990344791,2025-03-11 09h57.30.008678 +0700,
1,2,2,3,letter/lettkh031.png,letter/lettth112.png,68,68,0,x,0.07197930000256747,None,0,68,68,68,223.83880240000144,,,,,,,223.83880240000144,224.82578490000742,224.83209740000893,224.83209740000893,224.90911680000136,x,0.07197930000256747,None,224.90917369999806,224.91540860000532,225.09667810000246,224.83209740000893,,,,,,,,SS_th,001,2025-03-11_09h56.29.156,MainFlow,2024.2.4,156.8624990344791,2025-03-11 09h57.30.008678 +0700,
1,3,2,7,letter/lettgr072.png,letter/lettth025.png,69,69,0,x,0.19547679999959655,None,0,69,69,69,225.10753490000207,,,,,,,225.10753490000207,226.09711460000835,226.1030019000027,226.1030019000027,226.30621160000737,x,0.19547679999959655,None,226.30645420000656,226.31107450000127,226.49212609999813,226.1030019000027,,,,,,,,SS_th,001,2025-03-11_09h56.29.156,MainFlow,2024.2.4,156.8624990344791,2025-03-11 09h57.30.008678 +0700,
1,3,2,2,letter/lettgr072.png,letter/lettth052.png,70,70,0,x,0.15531640000699554,None,0,70,70,70,226.50389940000605,,,,,,,226.50389940000605,227.4924430999963,227.4984448000032,227.4984448000032,227.6591258999979,x,0.15531640000699554,None,227.65925199999765,227.66497510000772,227.84622110000055,227.4984448000032,,,,,,,,SS_th,001,2025-03-11_09h56.29.156,MainFlow,2024.2.4,156.8624990344791,2025-03-11 09h57.30.008678 +0700,
1,1,1,1,letter/lettth022.png,letter/letten092.png,71,71,0,z,0.21543959999689832,None,0,71,71,71,227.86004899999534,,,,,,,227.86004899999534,228.84717730000557,228.85242360000848,228.85242360000848,229.07495480000216,z,0.21543959999689832,None,229.0750132999965,229.0812952999986,229.2627366000088,228.85242360000848,,,,,,,,SS_th,001,2025-03-11_09h56.29.156,MainFlow,2024.2.4,156.8624990344791,2025-03-11 09h57.30.008678 +0700,
1,3,1,6,letter/lettth082.png,letter/lettgr061.png,72,72,0,z,0.0528354000125546,None,0,72,72,72,229.27701050000906,,,,,,,229.27701050000906,230.26274980000744,230.26879909999843,230.26879909999843,230.32522189999872,z,0.0528354000125546,None,230.32531699999527,230.33121230000688,230.51227429999562,230.26879909999843,,,,,,,,SS_th,001,2025-03-11_09h56.29.156,MainFlow,2024.2.4,156.8624990344791,2025-03-11 09h57.30.008678 +0700,
1,2,1,7,letter/lettth072.png,letter/lettkh033.png,73,73,0,z,0.19758349999028724,None,0,73,73,73,230.52522419999877,,,,,,,230.52522419999877,231.51257859999896,231.51844770000025,231.51844770000025,231.72141389999888,z,0.19758349999028724,None,231.72156360000372,231.72674389999884,231.90852650000306,231.51844770000025,,,,,,,,SS_th,001,2025-03-11_09h56.29.156,MainFlow,2024.2.4,156.8624990344791,2025-03-11 09h57.30.008678 +0700,
1,3,2,6,letter/lettgr061.png,letter/lettth082.png,74,74,0,x,0.45544109999900684,None,0,74,74,74,231.923987400005,,,,,,,231.923987400005,232.90877409999666,232.91405750000558,232.91405750000558,233.373863300003,x,0.45544109999900684,None,233.3740245000081,233.37932120000187,233.56042049999814,232.91405750000558,,,,,,,,SS_th,001,2025-03-11_09h56.29.156,MainFlow,2024.2.4,156.8624990344791,2025-03-11 09h57.30.008678 +0700,
1,1,2,6,letter/letten153.png,letter/lettth024.png,75,75,0,x,0.21814420000009704,None,0,75,75,75,233.57217949999904,,,,,,,233.57217949999904,234.56128370000806,234.5665896999999,234.5665896999999,234.79087070000242,x,0.21814420000009704,None,234.79109990000143,234.79677739999897,234.97719400000642,234.5665896999999,,,,,,,,SS_th,001,2025-03-11_09h56.29.156,MainFlow,2024.2.4,156.8624990344791,2025-03-11 09h57.30.008678 +0700,
1,2,2,1,letter/lettkh034.png,letter/lettth061.png,76,76,0,x,0.19205509999301285,None,0,76,76,76,234.99326040000597,,,,,,,234.99326040000597,235.97773240000242,235.98296720000508,235.98296720000508,236.17870330000005,x,0.19205509999301285,None,236.1788549000048,236.184158700009,236.36556059999566,235.98296720000508,,,,,,,,SS_th,001,2025-03-11_09h56.29.156,MainFlow,2024.2.4,156.8624990344791,2025-03-11 09h57.30.008678 +0700,
1,2,1,6,letter/lettth161.png,letter/lettkh033.png,77,77,0,z,0.3391431000054581,None,0,77,77,77,236.3773835000029,,,,,,,236.3773835000029,237.36512180000136,237.37169780000113,237.37169780000113,237.71276470000157,z,0.3391431000054581,None,237.71287850000954,237.71863270000904,237.90034190000733,237.37169780000113,,,,,,,,SS_th,001,2025-03-11_09h56.29.156,MainFlow,2024.2.4,156.8624990344791,2025-03-11 09h57.30.008678 +0700,
1,2,2,7,letter/lettkh033.png,letter/lettth072.png,78,78,0,x,0.23502239999652375,None,0,78,78,78,237.91771100000187,,,,,,,237.91771100000187,238.90753930000938,238.9129632999975,238.9129632999975,239.1499463000073,x,0.23502239999652375,None,239.15006529999664,239.15580419999606,239.33677340000577,238.9129632999975,,,,,,,,SS_th,001,2025-03-11_09h56.29.156,MainFlow,2024.2.4,156.8624990344791,2025-03-11 09h57.30.008678 +0700,
1,2,1,8,letter/lettth153.png,letter/lettkh031.png,79,79,0,z,0.1642749000020558,None,0,79,79,79,239.34668149999925,,,,,,,239.34668149999925,240.33032350000576,240.34307709999848,240.34307709999848,240.5107210999995,z,0.1642749000020558,None,240.51082160000806,240.51661330000206,240.6977184999996,240.33613199999672,,,,,,,,SS_th,001,2025-03-11_09h56.29.156,MainFlow,2024.2.4,156.8624990344791,2025-03-11 09h57.30.008678 +0700,
1,3,1,2,letter/lettth052.png,letter/lettgr072.png,80,80,0,z,0.22137849999126047,None,0,80,80,80,240.70970079999825,,,,,,,240.70970079999825,241.69866080000065,241.704195600003,241.704195600003,241.92735990000074,z,0.22137849999126047,None,241.92748610000126,241.93315230000007,242.11443370000052,241.704195600003,,,,,,,,SS_th,001,2025-03-11_09h56.29.156,MainFlow,2024.2.4,156.8624990344791,2025-03-11 09h57.30.008678 +0700,
1,2,1,2,letter/lettth032.png,letter/lettkh032.png,81,81,0,z,0.10366589999466669,None,0,81,81,81,242.1283354000043,,,,,,,242.1283354000043,243.11500040000828,243.1204041000019,243.1204041000019,243.22546960000182,z,0.10366589999466669,None,243.2255656000052,243.23137029999634,243.41285100000096,243.1204041000019,,,,,,,,SS_th,001,2025-03-11_09h56.29.156,MainFlow,2024.2.4,156.8624990344791,2025-03-11 09h57.30.008678 +0700,
1,1,2,7,letter/letten051.png,letter/lettth025.png,82,82,0,x,0.1558309999963967,None,0,82,82,82,243.42570229999546,,,,,,,243.42570229999546,244.41262479999568,244.41875140000775,244.41875140000775,244.58064490000834,x,0.1558309999963967,None,244.58084880000388,244.58518229999754,244.76664869999513,244.41875140000775,,,,,,,,SS_th,001,2025-03-11_09h56.29.156,MainFlow,2024.2.4,156.8624990344791,2025-03-11 09h57.30.008678 +0700,
1,3,1,4,letter/lettth024.png,letter/lettgr064.png,83,83,0,z,0.1583336000039708,None,0,83,83,83,244.77991949999705,,,,,,,244.77991949999705,245.76634919999924,245.77256379999744,245.77256379999744,245.93388330000744,z,0.1583336000039708,None,245.93402620000415,245.93937089999963,246.12108320000698,245.77256379999744,,,,,,,,SS_th,001,2025-03-11_09h56.29.156,MainFlow,2024.2.4,156.8624990344791,2025-03-11 09h57.30.008678 +0700,
1,3,2,3,letter/lettgr153.png,letter/lettth155.png,84,84,0,x,0.20351380000647623,None,0,84,84,84,246.13453460000164,,,,,,,246.13453460000164,247.12128649999795,247.12666470000113,247.12666470000113,247.33656720000727,x,0.20351380000647623,None,247.33671620000678,247.34159939999518,247.5234780000028,247.12666470000113,,,,,,,,SS_th,001,2025-03-11_09h56.29.156,MainFlow,2024.2.4,156.8624990344791,2025-03-11 09h57.30.008678 +0700,
1,1,1,6,letter/lettth024.png,letter/letten153.png,85,85,0,z,0.13980119999905583,None,0,85,85,85,247.54080600000452,,,,,,,247.54080600000452,248.53005129999656,248.53595770000538,248.53595770000538,248.68349720000697,z,0.13980119999905583,None,248.68372230000386,248.6885600999958,248.86976400000276,248.53595770000538,,,,,,,,SS_th,001,2025-03-11_09h56.29.156,MainFlow,2024.2.4,156.8624990344791,2025-03-11 09h57.30.008678 +0700,
1,1,2,3,letter/letten041.png,letter/lettth092.png,86,86,0,x,0.19290860000182875,None,0,86,86,86,248.88130690000253,,,,,,,248.88130690000253,249.86974700000428,249.87598320000689,249.87598320000689,250.0730651000049,x,0.19290860000182875,None,250.0733132000023,250.07856439999887,250.25884300000325,249.87598320000689,,,,,,,,SS_th,001,2025-03-11_09h56.29.156,MainFlow,2024.2.4,156.8624990344791,2025-03-11 09h57.30.008678 +0700,
1,2,2,1,letter/lettkh034.png,letter/lettth061.png,87,87,0,x,0.19651270000031218,None,0,87,87,87,250.27451840000867,,,,,,,250.27451840000867,251.25855320000846,251.26461539999582,251.26461539999582,251.46793739999703,x,0.19651270000031218,None,251.46810569999798,251.47288640000625,251.65458509999735,251.26461539999582,,,,,,,,SS_th,001,2025-03-11_09h56.29.156,MainFlow,2024.2.4,156.8624990344791,2025-03-11 09h57.30.008678 +0700,
1,3,1,3,letter/lettth155.png,letter/lettgr153.png,88,88,0,z,0.21630710001045372,None,0,88,88,88,251.6713568999985,,,,,,,251.6713568999985,252.66117239999585,252.66708939999808,252.66708939999808,252.89126180000312,z,0.21630710001045372,None,252.89146440000331,252.89610810000158,253.0776004000072,252.66708939999808,,,,,,,,SS_th,001,2025-03-11_09h56.29.156,MainFlow,2024.2.4,156.8624990344791,2025-03-11 09h57.30.008678 +0700,
1,2,1,3,letter/lettth112.png,letter/lettkh031.png,89,89,0,z,0.2669503000070108,None,0,89,89,89,253.08776029999717,,,,,,,253.08776029999717,254.07731730000523,254.083480900008,254.083480900008,254.35612820000097,z,0.2669503000070108,None,254.356311800002,254.36136389999592,254.54264660000626,254.083480900008,,,,,,,,SS_th,001,2025-03-11_09h56.29.156,MainFlow,2024.2.4,156.8624990344791,2025-03-11 09h57.30.008678 +0700,
1,2,2,5,letter/lettkh023.png,letter/lettth024.png,90,90,0,x,0.0704591999965487,None,0,90,90,90,254.5547757000022,,,,,,,254.5547757000022,255.54263619999983,255.54849309999554,255.54849309999554,255.62609810000868,x,0.0704591999965487,None,255.62622230000852,255.63182009999582,255.81348810000054,255.54849309999554,,,,,,,,SS_th,001,2025-03-11_09h56.29.156,MainFlow,2024.2.4,156.8624990344791,2025-03-11 09h57.30.008678 +0700,
1,1,2,4,letter/letten091.png,letter/lettth041.png,91,91,0,x,0.37277760000142734,None,0,91,91,91,255.83131209999556,,,,,,,255.83131209999556,256.82042869999714,256.82604189999984,256.82604189999984,257.20377069999813,x,0.37277760000142734,None,257.20398069999646,257.20909020000545,257.38953169999877,256.82604189999984,,,,,,,,SS_th,001,2025-03-11_09h56.29.156,MainFlow,2024.2.4,156.8624990344791,2025-03-11 09h57.30.008678 +0700,
1,2,2,3,letter/lettkh031.png,letter/lettth112.png,92,92,0,x,0.2786181000119541,None,0,92,92,92,257.4045480000059,,,,,,,257.4045480000059,258.3897353000066,258.39534780000395,258.39534780000395,258.68149289999565,x,0.2786181000119541,None,258.68164520000573,258.6868276000023,258.86778790000244,258.39534780000395,,,,,,,,SS_th,001,2025-03-11_09h56.29.156,MainFlow,2024.2.4,156.8624990344791,2025-03-11 09h57.30.008678 +0700,
1,3,1,8,letter/lettth013.png,letter/lettgr153.png,93,93,0,z,0.2715559000062058,None,0,93,93,93,258.87991509999847,,,,,,,258.87991509999847,259.86888130000443,259.874181200008,259.874181200008,260.1538548999961,z,0.2715559000062058,None,260.1540636999998,260.15913430000364,260.34038419999706,259.874181200008,,,,,,,,SS_th,001,2025-03-11_09h56.29.156,MainFlow,2024.2.4,156.8624990344791,2025-03-11 09h57.30.008678 +0700,
1,1,1,2,letter/lettth061.png,letter/letten062.png,94,94,0,z,0.2038911999989068,None,0,94,94,94,260.359466000009,,,,,,,260.359466000009,261.34788450000633,261.35314310000103,261.35314310000103,261.5624150000076,z,0.2038911999989068,None,261.562531500007,261.5682061999978,261.7500130999979,261.35314310000103,,,,,,,,SS_th,001,2025-03-11_09h56.29.156,MainFlow,2024.2.4,156.8624990344791,2025-03-11 09h57.30.008678 +0700,
1,3,2,3,letter/lettgr153.png,letter/lettth155.png,95,95,0,x,0.39130430000659544,None,0,95,95,95,261.768702100002,,,,,,,261.768702100002,262.75627710000845,262.762453000003,262.762453000003,263.15922339999815,x,0.39130430000659544,None,263.15933910000604,263.16503530000045,263.3466209000035,262.762453000003,,,,,,,,SS_th,001,2025-03-11_09h56.29.156,MainFlow,2024.2.4,156.8624990344791,2025-03-11 09h57.30.008678 +0700,
,,,,,,,,,,,,,,,,,,,,,,,,,,,,,,,,,,,263.3468692000024,263.3534614999953,263.3534614999953,265.5973995999957,space,2.2408775000076275,None,SS_th,001,2025-03-11_09h56.29.156,MainFlow,2024.2.4,156.8624990344791,2025-03-11 09h57.30.008678 +0700,
