lang,langpair,sequence,pairid,firstdir,seconddir,trials.thisRepN,trials.thisTrialN,trials.thisN,trials.thisIndex,thisRow.t,notes,tutorial.started,tutorial.stopped,key_instruct.keys,key_instruct.rt,key_instruct.duration,image_first.started,letterselect.started,instruct.started,key_resp.started,letterselect.stopped,key_resp.keys,key_resp.rt,key_resp.duration,blanknext.started,instruct_2.started,blanknext.stopped,instruct_2.stopped,image_first.stopped,ending.started,text_3.started,ending_key.started,ending.stopped,ending_key.keys,ending_key.rt,ending_key.duration,participant,session,date,expName,psychopyVersion,frameRate,expStart,
,,,,,,,,,,,,0.004223334000016621,7.400372667000283,space,7.348930166999708,None,,,,,,,,,,,,,,,,,,,,,yupaen,001,2025-02-27_13h33.00.439,MainFlow,2024.1.5,None,2025-02-27 13h33.12.713802 +0700,
2,2,1,6,letter/letten061.png,letter/lettkh155.png,0,0,0,0,7.451017084000341,,,,,,,7.451017084000341,8.40077387500014,8.416562334000446,8.416562334000446,9.018331042000227,z,0.5897766670000237,None,9.018938667000384,9.027589334000368,9.205194750000373,,,,,,,,,,yupaen,001,2025-02-27_13h33.00.439,MainFlow,2024.1.5,None,2025-02-27 13h33.12.713802 +0700,
2,1,2,2,letter/lettth142.png,letter/letten181.png,0,1,1,1,9.220845000000281,,,,,,,9.220845000000281,10.205743209000048,10.217412084000443,10.217412084000443,11.289836250000008,x,1.0692312090000087,None,11.290119584000422,11.300537250000161,11.484457292000116,11.500702834000094,,,,,,,,,yupaen,001,2025-02-27_13h33.00.439,MainFlow,2024.1.5,None,2025-02-27 13h33.12.713802 +0700,
2,1,1,2,letter/letten181.png,letter/lettth142.png,0,2,2,2,11.500702834000094,,,,,,,11.500702834000094,12.484577917000024,12.48882900000035,12.48882900000035,12.868417875000432,z,0.3739767080001002,None,12.868696834000275,12.875750750000407,13.055845500000032,,12.48882900000035,,,,,,,,yupaen,001,2025-02-27_13h33.00.439,MainFlow,2024.1.5,None,2025-02-27 13h33.12.713802 +0700,
2,2,1,8,letter/letten051.png,letter/lettkh035.png,0,3,3,3,13.071808459000295,,,,,,,13.071808459000295,14.056132125000204,14.06719995900039,14.06719995900039,14.568354459000147,z,0.4911474579998867,None,14.568633625000075,14.580549667000014,14.75519387500026,,14.06719995900039,,,,,,,,yupaen,001,2025-02-27_13h33.00.439,MainFlow,2024.1.5,None,2025-02-27 13h33.12.713802 +0700,
2,3,2,2,letter/lettgr061.png,letter/letten061.png,0,4,4,4,14.770189042000311,,,,,,,14.770189042000311,15.755509042000085,15.76733670900012,15.76733670900012,15.91831775000037,x,0.14339995899990754,None,15.918595667000318,15.92560904200036,16.105049625000447,,15.76733670900012,,,,,,,,yupaen,001,2025-02-27_13h33.00.439,MainFlow,2024.1.5,None,2025-02-27 13h33.12.713802 +0700,
2,3,1,7,letter/letten062.png,letter/lettgr065.png,0,5,5,5,16.119513292000192,,,,,,,16.119513292000192,17.10539054200035,17.117389292000098,17.117389292000098,17.3587273750004,z,0.23455491699996855,None,17.359011125000052,17.36721404200034,17.55099175000032,17.566617834000226,17.117389292000098,,,,,,,,yupaen,001,2025-02-27_13h33.00.439,MainFlow,2024.1.5,None,2025-02-27 13h33.12.713802 +0700,
2,2,1,7,letter/letten112.png,letter/lettkh083.png,0,6,6,6,17.566617834000226,,,,,,,17.566617834000226,18.551073334000193,18.55531979200032,18.55531979200032,18.70869804200038,z,0.14669429199966544,None,18.70893895900008,18.717213834000177,18.90105245900031,18.916558709000128,18.55531979200032,,,,,,,,yupaen,001,2025-02-27_13h33.00.439,MainFlow,2024.1.5,None,2025-02-27 13h33.12.713802 +0700,
2,1,1,1,letter/letten041.png,letter/lettth022.png,0,7,7,7,18.916558709000128,,,,,,,18.916558709000128,19.901166125000145,19.905651625000246,19.905651625000246,20.38492754200024,z,0.4677771249998841,None,20.38521400000036,20.3895950000001,20.572273625000435,,19.905651625000246,,,,,,,,yupaen,001,2025-02-27_13h33.00.439,MainFlow,2024.1.5,None,2025-02-27 13h33.12.713802 +0700,
2,3,1,6,letter/letten061.png,letter/lettgr066.png,0,8,8,8,20.590661167000235,,,,,,,20.590661167000235,21.583945875000154,21.588108250000005,21.588108250000005,22.305792792000375,z,0.7144433749999735,None,22.3060740840001,22.317254834000323,22.500893292,22.51763854200044,,,,,,,,,yupaen,001,2025-02-27_13h33.00.439,MainFlow,2024.1.5,None,2025-02-27 13h33.12.713802 +0700,
2,2,2,6,letter/lettkh155.png,letter/letten061.png,0,9,9,9,22.51763854200044,,,,,,,22.51763854200044,23.500997417000235,23.5054620840001,23.5054620840001,24.051702584000395,x,0.5422946669996236,None,24.05198500000006,24.05896633400016,24.23888500000021,,23.5054620840001,,,,,,,,yupaen,001,2025-02-27_13h33.00.439,MainFlow,2024.1.5,None,2025-02-27 13h33.12.713802 +0700,
2,1,2,6,letter/lettth132.png,letter/letten091.png,0,10,10,10,24.256098000000293,,,,,,,24.256098000000293,25.250722542000403,25.255198625000048,25.255198625000048,25.98489154200024,x,0.7282383339997978,None,25.985171959000127,25.992022917000213,26.172528334000162,,,,,,,,,,yupaen,001,2025-02-27_13h33.00.439,MainFlow,2024.1.5,None,2025-02-27 13h33.12.713802 +0700,
2,2,1,5,letter/letten051.png,letter/lettkh157.png,0,11,11,11,26.187426167000012,,,,,,,26.187426167000012,27.172100709000006,27.183977875000437,27.183977875000437,27.835115792000124,z,0.6471904169998197,None,27.835446375000174,27.84257750000006,28.02215004200025,,27.183977875000437,,,,,,,,yupaen,001,2025-02-27_13h33.00.439,MainFlow,2024.1.5,None,2025-02-27 13h33.12.713802 +0700,
2,3,1,3,letter/letten061.png,letter/lettgr063.png,0,12,12,12,28.03810845900034,,,,,,,28.03810845900034,29.022221250000257,29.033982792000188,29.033982792000188,29.618250959000306,z,0.5729612919999454,None,29.618529667000075,29.6253864170003,29.805491000000075,,29.033982792000188,,,,,,,,yupaen,001,2025-02-27_13h33.00.439,MainFlow,2024.1.5,None,2025-02-27 13h33.12.713802 +0700,
2,2,2,8,letter/lettkh035.png,letter/letten051.png,0,13,13,13,29.82168475000026,,,,,,,29.82168475000026,30.80529320900041,30.81713937500035,30.81713937500035,31.32542758400041,x,0.5015097500004231,None,31.325712125000337,31.33384279200027,31.51759062500014,31.532909000000018,30.81713937500035,,,,,,,,yupaen,001,2025-02-27_13h33.00.439,MainFlow,2024.1.5,None,2025-02-27 13h33.12.713802 +0700,
2,1,2,3,letter/lettth152.png,letter/letten142.png,0,14,14,14,31.532909000000018,,,,,,,31.532909000000018,32.517620834000354,32.52174637500002,32.52174637500002,33.856552709000425,x,1.3326702919998752,None,33.8568338340001,33.86694008400036,34.051355959000375,34.06785112500029,32.52174637500002,,,,,,,,yupaen,001,2025-02-27_13h33.00.439,MainFlow,2024.1.5,None,2025-02-27 13h33.12.713802 +0700,
2,2,2,6,letter/lettkh155.png,letter/letten061.png,0,15,15,15,34.06785112500029,,,,,,,34.06785112500029,35.05088566700033,35.055074959000194,35.055074959000194,36.2516020840003,x,1.1919152499999655,None,36.251872709000054,36.25866025000005,36.43937962500013,,35.055074959000194,,,,,,,,yupaen,001,2025-02-27_13h33.00.439,MainFlow,2024.1.5,None,2025-02-27 13h33.12.713802 +0700,
2,3,1,1,letter/letten021.png,letter/lettgr021.png,0,16,16,16,36.4547429170002,,,,,,,36.4547429170002,37.439499834000344,37.450573500000246,37.450573500000246,38.10162995900009,z,0.6431580420003229,None,38.101961250000386,38.10912554200013,38.288506084000346,,37.450573500000246,,,,,,,,yupaen,001,2025-02-27_13h33.00.439,MainFlow,2024.1.5,None,2025-02-27 13h33.12.713802 +0700,
2,3,1,3,letter/letten061.png,letter/lettgr063.png,0,17,17,17,38.30299170900025,,,,,,,38.30299170900025,39.28852933400003,39.30043033400034,39.30043033400034,39.98518533400011,z,0.67445408399999,None,39.98551929200039,39.99261225000009,40.17204483400019,,39.30043033400034,,,,,,,,yupaen,001,2025-02-27_13h33.00.439,MainFlow,2024.1.5,None,2025-02-27 13h33.12.713802 +0700,
2,2,1,1,letter/letten153.png,letter/lettkh159.png,0,18,18,18,40.18888350000043,,,,,,,40.18888350000043,41.17207620900035,41.18392758400023,41.18392758400023,41.5849779590003,z,0.39084491699986756,None,41.585250959000405,41.59212870900001,41.77156775000003,,41.18392758400023,,,,,,,,yupaen,001,2025-02-27_13h33.00.439,MainFlow,2024.1.5,None,2025-02-27 13h33.12.713802 +0700,
2,1,1,6,letter/letten091.png,letter/lettth132.png,0,19,19,19,41.787979459000326,,,,,,,41.787979459000326,42.77166550000038,42.78382750000037,42.78382750000037,43.31825854200042,z,0.5265163330000178,None,43.318538334000095,43.325392084000214,43.506315000000086,,,,,,,,,,yupaen,001,2025-02-27_13h33.00.439,MainFlow,2024.1.5,None,2025-02-27 13h33.12.713802 +0700,
2,3,2,5,letter/lettgr012.png,letter/letten011.png,0,20,20,20,43.52243041700012,,,,,,,43.52243041700012,44.505477542000335,44.51712991700015,44.51712991700015,45.08891416700044,x,0.5697307499999624,None,45.0891495840001,45.10049100000015,45.272108959000434,,44.51712991700015,,,,,,,,yupaen,001,2025-02-27_13h33.00.439,MainFlow,2024.1.5,None,2025-02-27 13h33.12.713802 +0700,
2,1,1,2,letter/letten181.png,letter/lettth142.png,0,21,21,21,45.28685662500038,,,,,,,45.28685662500038,46.27220366700021,46.28383587500002,46.28383587500002,47.06816733400001,z,0.778901415999826,None,47.068445625000095,47.075280209000084,47.255501542000275,,,,,,,,,,yupaen,001,2025-02-27_13h33.00.439,MainFlow,2024.1.5,None,2025-02-27 13h33.12.713802 +0700,
2,2,1,5,letter/letten051.png,letter/lettkh157.png,0,22,22,22,47.271119417000136,,,,,,,47.271119417000136,48.25523791700016,48.267030917000284,48.267030917000284,49.01819612500003,z,0.74829229199986,None,49.01853066700005,49.02564020900036,49.204815709000286,,48.267030917000284,,,,,,,,yupaen,001,2025-02-27_13h33.00.439,MainFlow,2024.1.5,None,2025-02-27 13h33.12.713802 +0700,
2,3,1,4,letter/letten062.png,letter/lettgr063.png,0,23,23,23,49.22057437500007,,,,,,,49.22057437500007,50.20507908400032,50.21718945900011,50.21718945900011,50.974988917000246,z,0.750630375000128,None,50.975270834000185,50.98378766700034,51.16794600000003,51.18465341700039,50.21718945900011,,,,,,,,yupaen,001,2025-02-27_13h33.00.439,MainFlow,2024.1.5,None,2025-02-27 13h33.12.713802 +0700,
2,3,2,3,letter/lettgr063.png,letter/letten061.png,0,24,24,24,51.18465341700039,,,,,,,51.18465341700039,52.167412292000336,52.171597875000316,52.171597875000316,53.06814850000001,x,0.8914169580002635,None,53.0684201250001,53.075050125000416,53.25512733400001,,52.171597875000316,,,,,,,,yupaen,001,2025-02-27_13h33.00.439,MainFlow,2024.1.5,None,2025-02-27 13h33.12.713802 +0700,
2,2,2,5,letter/lettkh157.png,letter/letten051.png,0,25,25,25,53.27176745900033,,,,,,,53.27176745900033,54.25517779200027,54.26714400000037,54.26714400000037,54.934661625000444,x,0.6587185000003046,None,54.93493141700037,54.941863125000054,55.121497792000355,,54.26714400000037,,,,,,,,yupaen,001,2025-02-27_13h33.00.439,MainFlow,2024.1.5,None,2025-02-27 13h33.12.713802 +0700,
2,3,1,5,letter/letten011.png,letter/lettgr012.png,0,26,26,26,55.136544959000275,,,,,,,55.136544959000275,56.121747750000395,56.133773334000125,56.133773334000125,56.90146770900037,z,0.7605593749999571,None,56.901743459000045,56.90870137500042,57.0888253750004,,56.133773334000125,,,,,,,,yupaen,001,2025-02-27_13h33.00.439,MainFlow,2024.1.5,None,2025-02-27 13h33.12.713802 +0700,
2,3,1,1,letter/letten021.png,letter/lettgr021.png,0,27,27,27,57.10447470900044,,,,,,,57.10447470900044,58.08858566700019,58.10041170900013,58.10041170900013,58.65558929200006,z,0.55346524999959,None,58.65586137500031,58.66685016700012,58.850701334000405,58.866671084000245,58.10041170900013,,,,,,,,yupaen,001,2025-02-27_13h33.00.439,MainFlow,2024.1.5,None,2025-02-27 13h33.12.713802 +0700,
2,2,1,8,letter/letten051.png,letter/lettkh035.png,0,28,28,28,58.866671084000245,,,,,,,58.866671084000245,59.850942750000286,59.85570837500018,59.85570837500018,60.41816258400013,z,0.5590072079999118,None,60.41843316700033,60.42507116700017,60.605256125000324,,59.85570837500018,,,,,,,,yupaen,001,2025-02-27_13h33.00.439,MainFlow,2024.1.5,None,2025-02-27 13h33.12.713802 +0700,
2,3,1,4,letter/letten062.png,letter/lettgr063.png,0,29,29,29,60.61972666700012,,,,,,,60.61972666700012,61.60564645900013,61.617033209000056,61.617033209000056,62.34171550000019,z,0.7177179169998453,None,62.34200100000044,62.350426792000235,62.53404825000007,62.549663500000406,61.617033209000056,,,,,,,,yupaen,001,2025-02-27_13h33.00.439,MainFlow,2024.1.5,None,2025-02-27 13h33.12.713802 +0700,
2,1,2,8,letter/lettth022.png,letter/letten131.png,0,30,30,30,62.549663500000406,,,,,,,62.549663500000406,63.534040625000216,63.53828900000008,63.53828900000008,64.18463975000031,x,0.6450226670003758,None,64.18491908400028,64.19176558400022,64.37192020900011,,63.53828900000008,,,,,,,,yupaen,001,2025-02-27_13h33.00.439,MainFlow,2024.1.5,None,2025-02-27 13h33.12.713802 +0700,
2,2,1,1,letter/letten153.png,letter/lettkh159.png,0,31,31,31,64.3878667920003,,,,,,,64.3878667920003,65.37213654200013,65.38368558400043,65.38368558400043,66.08467337500042,z,0.6947171249998974,None,66.0849433340004,66.09186141700002,66.27153570900009,,,,,,,,,,yupaen,001,2025-02-27_13h33.00.439,MainFlow,2024.1.5,None,2025-02-27 13h33.12.713802 +0700,
2,2,1,4,letter/letten071.png,letter/lettkh055.png,0,32,32,32,66.28568612500021,,,,,,,66.28568612500021,67.27178120900044,67.2835852090002,67.2835852090002,68.03464054200003,z,0.7473831249999421,None,68.03491116700025,68.04186162500037,68.22183229200027,,67.2835852090002,,,,,,,,yupaen,001,2025-02-27_13h33.00.439,MainFlow,2024.1.5,None,2025-02-27 13h33.12.713802 +0700,
2,1,1,5,letter/letten121.png,letter/lettth101.png,0,33,33,33,68.23761870900034,,,,,,,68.23761870900034,69.22196579200045,69.23377279200031,69.23377279200031,69.7418305000001,z,0.5005204169997342,None,69.74211054200032,69.75028112500013,69.93405408400031,69.95156733400017,69.23377279200031,,,,,,,,yupaen,001,2025-02-27_13h33.00.439,MainFlow,2024.1.5,None,2025-02-27 13h33.12.713802 +0700,
2,2,2,4,letter/lettkh055.png,letter/letten071.png,0,34,34,34,69.95156733400017,,,,,,,69.95156733400017,70.93806058400014,70.95037991700019,70.95037991700019,71.41800379200004,x,0.45591779200003657,None,71.41833675000044,71.42530195900008,71.60519229200008,,,,,,,,,,yupaen,001,2025-02-27_13h33.00.439,MainFlow,2024.1.5,None,2025-02-27 13h33.12.713802 +0700,
2,1,1,5,letter/letten121.png,letter/lettth101.png,0,35,35,35,71.6201416670001,,,,,,,71.6201416670001,72.60541420900017,72.61700270900019,72.61700270900019,73.13461450000023,z,0.5090069160000894,None,73.13489129200025,73.141549209,73.32145841700003,,72.61700270900019,,,,,,,,yupaen,001,2025-02-27_13h33.00.439,MainFlow,2024.1.5,None,2025-02-27 13h33.12.713802 +0700,
2,2,2,3,letter/lettkh091.png,letter/letten071.png,0,36,36,36,73.33759295900018,,,,,,,73.33759295900018,74.32167341700006,74.33373220900012,74.33373220900012,74.7747510840004,x,0.4346038749999934,None,74.77502900000036,74.783662542,74.96743933400012,74.98442733400043,74.33373220900012,,,,,,,,yupaen,001,2025-02-27_13h33.00.439,MainFlow,2024.1.5,None,2025-02-27 13h33.12.713802 +0700,
2,2,1,6,letter/letten061.png,letter/lettkh155.png,0,37,37,37,74.98442733400043,,,,,,,74.98442733400043,75.96728616700011,75.97161754200033,75.97161754200033,76.558295584,z,0.5788848340002914,None,76.55853708400036,76.56686225000021,76.75073720900036,76.76621150000028,75.97161754200033,,,,,,,,yupaen,001,2025-02-27_13h33.00.439,MainFlow,2024.1.5,None,2025-02-27 13h33.12.713802 +0700,
2,1,1,4,letter/letten101.png,letter/lettth011.png,0,38,38,38,76.76621150000028,,,,,,,76.76621150000028,77.75068925000005,77.75478716700036,77.75478716700036,78.23455987500029,z,0.4678107499998987,None,78.23484408400009,78.23921254200013,78.42256954200002,78.43695266700024,77.75478716700036,,,,,,,,yupaen,001,2025-02-27_13h33.00.439,MainFlow,2024.1.5,None,2025-02-27 13h33.12.713802 +0700,
2,3,2,4,letter/lettgr063.png,letter/letten062.png,0,39,39,39,78.43695266700024,,,,,,,78.43695266700024,79.42227208400027,79.4337179590002,79.4337179590002,79.87227679200032,x,0.4362214170000698,None,79.87250866700015,79.88358537500017,80.05524491700044,,79.4337179590002,,,,,,,,yupaen,001,2025-02-27_13h33.00.439,MainFlow,2024.1.5,None,2025-02-27 13h33.12.713802 +0700,
2,3,1,2,letter/letten061.png,letter/lettgr061.png,0,40,40,40,80.07047783400003,,,,,,,80.07047783400003,81.05551783400006,81.066900584,81.066900584,81.59134795900036,z,0.5179017919999751,None,81.59158662500022,81.60027675000038,81.7840059590003,81.80021195900008,81.066900584,,,,,,,,yupaen,001,2025-02-27_13h33.00.439,MainFlow,2024.1.5,None,2025-02-27 13h33.12.713802 +0700,
2,2,2,7,letter/lettkh083.png,letter/letten112.png,0,41,41,41,81.80021195900008,,,,,,,81.80021195900008,82.7838678750004,82.7881067090002,82.7881067090002,83.14137958400033,x,0.34702058399989255,None,83.14165770900036,83.15010370900018,83.3340177920004,83.350103709,82.7881067090002,,,,,,,,yupaen,001,2025-02-27_13h33.00.439,MainFlow,2024.1.5,None,2025-02-27 13h33.12.713802 +0700,
2,1,2,2,letter/lettth142.png,letter/letten181.png,0,42,42,42,83.350103709,,,,,,,83.350103709,84.33406383400006,84.33824962500012,84.33824962500012,85.38459150000017,x,1.036498292000033,None,85.38486125000009,85.39152595900032,85.57274033400017,,84.33824962500012,,,,,,,,yupaen,001,2025-02-27_13h33.00.439,MainFlow,2024.1.5,None,2025-02-27 13h33.12.713802 +0700,
2,2,1,7,letter/letten112.png,letter/lettkh083.png,0,43,43,43,85.58805875000007,,,,,,,85.58805875000007,86.57169570900032,86.58343745900038,86.58343745900038,87.218293292,z,0.6232144589998825,None,87.21862479200036,87.22583945900033,87.40461291700012,,86.58343745900038,,,,,,,,yupaen,001,2025-02-27_13h33.00.439,MainFlow,2024.1.5,None,2025-02-27 13h33.12.713802 +0700,
2,2,2,3,letter/lettkh091.png,letter/letten071.png,0,44,44,44,87.41826041700006,,,,,,,87.41826041700006,88.40485229200021,88.4169503750004,88.4169503750004,88.83948045900024,x,0.4212497500002428,None,88.83974512500026,88.85020150000037,89.03390225000021,89.04933770900016,,,,,,,,,yupaen,001,2025-02-27_13h33.00.439,MainFlow,2024.1.5,None,2025-02-27 13h33.12.713802 +0700,
2,2,2,5,letter/lettkh157.png,letter/letten051.png,0,45,45,45,89.04933770900016,,,,,,,89.04933770900016,90.03373200000033,90.03802466700017,90.03802466700017,90.48890775000018,x,0.44851162499981,None,90.4891912500002,90.5001134170002,90.68391008400022,90.69961737500034,90.03802466700017,,,,,,,,yupaen,001,2025-02-27_13h33.00.439,MainFlow,2024.1.5,None,2025-02-27 13h33.12.713802 +0700,
2,1,2,3,letter/lettth152.png,letter/letten142.png,0,46,46,46,90.69961737500034,,,,,,,90.69961737500034,91.6839006250002,91.6880765840001,91.6880765840001,92.31779645900042,x,0.6217745000003561,None,92.31806587500023,92.32475212500003,92.50454841700002,,91.6880765840001,,,,,,,,yupaen,001,2025-02-27_13h33.00.439,MainFlow,2024.1.5,None,2025-02-27 13h33.12.713802 +0700,
2,2,2,2,letter/lettkh013.png,letter/letten121.png,0,47,47,47,92.51955858400015,,,,,,,92.51955858400015,93.5047389590004,93.51687633400024,93.51687633400024,93.90816095900027,x,0.3847966250000354,None,93.90844229200002,93.9169041250002,94.10062995900034,94.11734716700039,,,,,,,,,yupaen,001,2025-02-27_13h33.00.439,MainFlow,2024.1.5,None,2025-02-27 13h33.12.713802 +0700,
2,1,2,6,letter/lettth132.png,letter/letten091.png,0,48,48,48,94.11734716700039,,,,,,,94.11734716700039,95.100585959,95.10537020900028,95.10537020900028,95.52523379200011,x,0.4130408329997408,None,95.52551887500022,95.53339991700022,95.7172856670004,95.7332684590001,95.10537020900028,,,,,,,,yupaen,001,2025-02-27_13h33.00.439,MainFlow,2024.1.5,None,2025-02-27 13h33.12.713802 +0700,
2,1,2,1,letter/lettth022.png,letter/letten041.png,0,49,49,49,95.7332684590001,,,,,,,95.7332684590001,96.71720266700004,96.72182687500026,96.72182687500026,97.10118254200006,x,0.37244020800017097,None,97.10145958400017,97.10814070900005,97.28806433400041,,96.72182687500026,,,,,,,,yupaen,001,2025-02-27_13h33.00.439,MainFlow,2024.1.5,None,2025-02-27 13h33.12.713802 +0700,
2,1,1,3,letter/letten142.png,letter/lettth152.png,0,50,50,50,97.30357979200016,,,,,,,97.30357979200016,98.28820487500025,98.30014795900024,98.30014795900024,98.95815716700008,z,0.651080500000262,None,98.95843270900014,98.9668649590003,99.15057433400034,99.16541016700012,98.30014795900024,,,,,,,,yupaen,001,2025-02-27_13h33.00.439,MainFlow,2024.1.5,None,2025-02-27 13h33.12.713802 +0700,
2,1,2,8,letter/lettth022.png,letter/letten131.png,0,51,51,51,99.16541016700012,,,,,,,99.16541016700012,100.15052279200017,100.15487920900023,100.15487920900023,120.8843927920002,x,20.72340658400026,None,120.88467483400063,120.89184175000037,121.07098870900018,,100.15487920900023,,,,,,,,yupaen,001,2025-02-27_13h33.00.439,MainFlow,2024.1.5,None,2025-02-27 13h33.12.713802 +0700,
2,2,1,2,letter/letten121.png,letter/lettkh013.png,0,52,52,52,121.08542920900027,,,,,,,121.08542920900027,122.07135695900024,122.08327833400062,122.08327833400062,123.65559170900042,z,1.5708080419999533,None,123.65586649999977,123.66650758400056,123.85051858399993,123.8674215420001,,,,,,,,,yupaen,001,2025-02-27_13h33.00.439,MainFlow,2024.1.5,None,2025-02-27 13h33.12.713802 +0700,
2,3,1,2,letter/letten061.png,letter/lettgr061.png,0,53,53,53,123.8674215420001,,,,,,,123.8674215420001,124.85030795900047,124.85444841700019,124.85444841700019,126.50523791700061,z,1.6481906669996533,None,126.50552000000016,126.51661445899981,126.70030133400041,126.71651416699979,124.85444841700019,,,,,,,,yupaen,001,2025-02-27_13h33.00.439,MainFlow,2024.1.5,None,2025-02-27 13h33.12.713802 +0700,
2,2,2,1,letter/lettkh159.png,letter/letten153.png,0,54,54,54,126.71651416699979,,,,,,,126.71651416699979,127.70044691700014,127.70501133400057,127.70501133400057,128.5914734590001,x,0.8785145000001648,None,128.59174949999988,128.60007987500057,128.78362220900044,128.8000028749998,127.70501133400057,,,,,,,,yupaen,001,2025-02-27_13h33.00.439,MainFlow,2024.1.5,None,2025-02-27 13h33.12.713802 +0700,
2,1,1,4,letter/letten101.png,letter/lettth011.png,0,55,55,55,128.8000028749998,,,,,,,128.8000028749998,129.78364620900038,129.78784083399978,129.78784083399978,130.47206841700017,z,0.6822081669997715,None,130.4723544170006,130.4832098339998,130.666910292,130.6828000420005,129.78784083399978,,,,,,,,yupaen,001,2025-02-27_13h33.00.439,MainFlow,2024.1.5,None,2025-02-27 13h33.12.713802 +0700,
2,3,1,8,letter/letten152.png,letter/lettgr152.png,0,56,56,56,130.6828000420005,,,,,,,130.6828000420005,131.66691945899993,131.6710658750003,131.6710658750003,132.28429675000052,z,0.6069500419998803,None,132.28456991699977,132.2914160840005,132.4721543340006,,131.6710658750003,,,,,,,,yupaen,001,2025-02-27_13h33.00.439,MainFlow,2024.1.5,None,2025-02-27 13h33.12.713802 +0700,
2,3,2,1,letter/lettgr021.png,letter/letten021.png,0,57,57,57,132.48885737499995,,,,,,,132.48885737499995,133.483465584,133.48763133400053,133.48763133400053,134.25099858400017,x,0.7594537499999205,None,134.25126829200008,134.25798866700052,134.43777916699992,,,,,,,,,,yupaen,001,2025-02-27_13h33.00.439,MainFlow,2024.1.5,None,2025-02-27 13h33.12.713802 +0700,
2,1,2,7,letter/lettth132.png,letter/letten062.png,0,58,58,58,134.45284587500055,,,,,,,134.45284587500055,135.4380585419999,135.44989300000043,135.44989300000043,136.0175800840002,x,0.56446591599979,None,136.01785729199992,136.02476075000004,136.20431987500024,,135.44989300000043,,,,,,,,yupaen,001,2025-02-27_13h33.00.439,MainFlow,2024.1.5,None,2025-02-27 13h33.12.713802 +0700,
2,3,2,2,letter/lettgr061.png,letter/letten061.png,0,59,59,59,136.21897904200023,,,,,,,136.21897904200023,137.20454112500056,137.21651770900053,137.21651770900053,137.7675437920002,x,0.5420041659999697,None,137.7678192090002,137.77462433400024,137.9543006250001,,,,,,,,,,yupaen,001,2025-02-27_13h33.00.439,MainFlow,2024.1.5,None,2025-02-27 13h33.12.713802 +0700,
2,2,2,4,letter/lettkh055.png,letter/letten071.png,0,60,60,60,137.97062962500013,,,,,,,137.97062962500013,138.95467925000003,138.9666070420003,138.9666070420003,139.58423116699987,x,0.6069742919999044,None,139.58451254200054,139.59139158400058,139.77152029200033,,,,,,,,,,yupaen,001,2025-02-27_13h33.00.439,MainFlow,2024.1.5,None,2025-02-27 13h33.12.713802 +0700,
2,1,2,5,letter/lettth101.png,letter/letten121.png,0,61,61,61,139.78771470899983,,,,,,,139.78771470899983,140.77188595899997,140.78338141700033,140.78338141700033,141.20102325000016,x,0.40644545900067897,None,141.20129099999986,141.20822541700045,141.38917779200028,,140.78338141700033,,,,,,,,yupaen,001,2025-02-27_13h33.00.439,MainFlow,2024.1.5,None,2025-02-27 13h33.12.713802 +0700,
2,3,1,8,letter/letten152.png,letter/lettgr152.png,0,62,62,62,141.4051595420001,,,,,,,141.4051595420001,142.3880402919999,142.39990408400035,142.39990408400035,142.92215366700066,z,0.5186711249998552,None,142.9224232090005,142.93337954200024,143.11693741699992,143.1346435420005,142.39990408400035,,,,,,,,yupaen,001,2025-02-27_13h33.00.439,MainFlow,2024.1.5,None,2025-02-27 13h33.12.713802 +0700,
2,1,2,5,letter/lettth101.png,letter/letten121.png,0,63,63,63,143.1346435420005,,,,,,,143.1346435420005,144.12103441699992,144.13318833400035,144.13318833400035,144.72459466700047,x,0.5844309170006454,None,144.72487675000002,144.7332326669998,144.9167750420006,144.93383012500044,,,,,,,,,yupaen,001,2025-02-27_13h33.00.439,MainFlow,2024.1.5,None,2025-02-27 13h33.12.713802 +0700,
2,3,2,8,letter/lettgr152.png,letter/letten152.png,0,64,64,64,144.93383012500044,,,,,,,144.93383012500044,145.91694420900012,145.921083834,145.921083834,146.584360542,x,0.6536618330001147,None,146.5846377920002,146.59143499999982,146.77086929200004,,145.921083834,,,,,,,,yupaen,001,2025-02-27_13h33.00.439,MainFlow,2024.1.5,None,2025-02-27 13h33.12.713802 +0700,
2,2,1,2,letter/letten121.png,letter/lettkh013.png,0,65,65,65,146.7856251670005,,,,,,,146.7856251670005,147.77105808399983,147.7831970000002,147.7831970000002,148.1676590840002,z,0.37561304199971346,None,148.16792716700047,148.1747945840002,148.35510220900005,,,,,,,,,,yupaen,001,2025-02-27_13h33.00.439,MainFlow,2024.1.5,None,2025-02-27 13h33.12.713802 +0700,
2,3,1,5,letter/letten011.png,letter/lettgr012.png,0,66,66,66,148.3728664590003,,,,,,,148.3728664590003,149.3666512499999,149.3712613749999,149.3712613749999,150.7677045840005,z,1.3865464589998737,None,150.76803345899998,150.77527016700014,150.95500295900047,,,,,,,,,,yupaen,001,2025-02-27_13h33.00.439,MainFlow,2024.1.5,None,2025-02-27 13h33.12.713802 +0700,
2,2,1,3,letter/letten071.png,letter/lettkh091.png,0,67,67,67,150.97272820900025,,,,,,,150.97272820900025,151.9666635839999,151.97084633399982,151.97084633399982,152.70098400000052,z,0.7236187499993321,None,152.70131033400003,152.70836937500053,152.8887345420003,,,,,,,,,,yupaen,001,2025-02-27_13h33.00.439,MainFlow,2024.1.5,None,2025-02-27 13h33.12.713802 +0700,
2,1,1,8,letter/letten131.png,letter/lettth022.png,0,68,68,68,152.90395637499978,,,,,,,152.90395637499978,153.88781541700018,153.89992108400065,153.89992108400065,154.28438287500057,z,0.3790119160003087,None,154.2847086249999,154.29201150000017,154.47132291700063,,153.89992108400065,,,,,,,,yupaen,001,2025-02-27_13h33.00.439,MainFlow,2024.1.5,None,2025-02-27 13h33.12.713802 +0700,
2,3,2,4,letter/lettgr063.png,letter/letten062.png,0,69,69,69,154.48710479200008,,,,,,,154.48710479200008,155.47117833400034,155.4831854170002,155.4831854170002,155.95079525000028,x,0.45929612500003714,None,155.95107195900027,155.95771025000022,156.13748587500004,,155.4831854170002,,,,,,,,yupaen,001,2025-02-27_13h33.00.439,MainFlow,2024.1.5,None,2025-02-27 13h33.12.713802 +0700,
2,1,1,6,letter/letten091.png,letter/lettth132.png,0,70,70,70,156.15415966699993,,,,,,,156.15415966699993,157.1376809590006,157.14983766700016,157.14983766700016,157.8341693340003,z,0.6813790420001169,None,157.83443804199987,157.84134604200017,158.02099291700006,,,,,,,,,,yupaen,001,2025-02-27_13h33.00.439,MainFlow,2024.1.5,None,2025-02-27 13h33.12.713802 +0700,
2,3,2,3,letter/lettgr063.png,letter/letten061.png,0,71,71,71,158.03593379200038,,,,,,,158.03593379200038,159.0211935000002,159.0330777920003,159.0330777920003,159.41741125,x,0.372585249999247,None,159.4176904589999,159.42197179200002,159.60413600000038,,159.0330777920003,,,,,,,,yupaen,001,2025-02-27_13h33.00.439,MainFlow,2024.1.5,None,2025-02-27 13h33.12.713802 +0700,
2,3,2,6,letter/lettgr066.png,letter/letten061.png,0,72,72,72,159.61858012499988,,,,,,,159.61858012499988,160.60506687499992,160.6164806669999,160.6164806669999,161.05067650000046,x,0.43010612499983836,None,161.05094725000026,161.05759533399987,161.2376774999998,,,,,,,,,,yupaen,001,2025-02-27_13h33.00.439,MainFlow,2024.1.5,None,2025-02-27 13h33.12.713802 +0700,
2,3,2,7,letter/lettgr065.png,letter/letten062.png,0,73,73,73,161.25411604200008,,,,,,,161.25411604200008,162.2379355420003,162.24978191699984,162.24978191699984,163.03428045900046,x,0.7804698340005416,None,163.03455933400028,163.04144841700008,163.22159033400067,,162.24978191699984,,,,,,,,yupaen,001,2025-02-27_13h33.00.439,MainFlow,2024.1.5,None,2025-02-27 13h33.12.713802 +0700,
2,2,2,2,letter/lettkh013.png,letter/letten121.png,0,74,74,74,163.2368099170003,,,,,,,163.2368099170003,164.2211680840005,164.23315404200048,164.23315404200048,164.6008345840005,x,0.36602066599971295,None,164.60110241700067,164.60795045900022,164.78807529200049,,164.23315404200048,,,,,,,,yupaen,001,2025-02-27_13h33.00.439,MainFlow,2024.1.5,None,2025-02-27 13h33.12.713802 +0700,
2,3,2,7,letter/lettgr065.png,letter/letten062.png,0,75,75,75,164.80377620900026,,,,,,,164.80377620900026,165.78778304199977,165.79972329200018,165.79972329200018,166.28396437499987,x,0.4779534589997638,None,166.28423712500035,166.29095483399988,166.47127558400052,,165.79972329200018,,,,,,,,yupaen,001,2025-02-27_13h33.00.439,MainFlow,2024.1.5,None,2025-02-27 13h33.12.713802 +0700,
2,2,2,7,letter/lettkh083.png,letter/letten112.png,0,76,76,76,166.4876594170005,,,,,,,166.4876594170005,167.47103125000058,167.48317941699997,167.48317941699997,167.85070458400014,x,0.35494912499962084,None,167.85097966700005,167.85543000000007,168.0387163750006,,167.48317941699997,,,,,,,,yupaen,001,2025-02-27_13h33.00.439,MainFlow,2024.1.5,None,2025-02-27 13h33.12.713802 +0700,
2,3,2,8,letter/lettgr152.png,letter/letten152.png,0,77,77,77,168.054817834,,,,,,,168.054817834,169.0377653340006,169.04980191700042,169.04980191700042,169.45098129200005,x,0.39712995900026726,None,169.4513044170003,169.45851616700065,169.63867745900052,,169.04980191700042,,,,,,,,yupaen,001,2025-02-27_13h33.00.439,MainFlow,2024.1.5,None,2025-02-27 13h33.12.713802 +0700,
2,1,2,4,letter/lettth011.png,letter/letten101.png,0,78,78,78,169.65440225000066,,,,,,,169.65440225000066,170.6381276670004,170.6497652920002,170.6497652920002,171.1839312090001,x,0.5251107079993744,None,171.18420054199987,171.1911198339999,171.37191908400064,,170.6497652920002,,,,,,,,yupaen,001,2025-02-27_13h33.00.439,MainFlow,2024.1.5,None,2025-02-27 13h33.12.713802 +0700,
2,3,2,1,letter/lettgr021.png,letter/letten021.png,0,79,79,79,171.38674879200016,,,,,,,171.38674879200016,172.37144941700035,172.38308641699996,172.38308641699996,172.81735400000025,x,0.42330124999989494,None,172.8176207090005,172.8243026670002,173.00465600000052,,172.38308641699996,,,,,,,,yupaen,001,2025-02-27_13h33.00.439,MainFlow,2024.1.5,None,2025-02-27 13h33.12.713802 +0700,
2,3,2,6,letter/lettgr066.png,letter/letten061.png,0,80,80,80,173.02057937500058,,,,,,,173.02057937500058,174.0043738340005,174.01650883400043,174.01650883400043,174.23416099999986,x,0.2137419159998899,None,174.23442625000052,174.24130250000007,174.42121041700057,,174.01650883400043,,,,,,,,yupaen,001,2025-02-27_13h33.00.439,MainFlow,2024.1.5,None,2025-02-27 13h33.12.713802 +0700,
2,1,2,7,letter/lettth132.png,letter/letten062.png,0,81,81,81,174.43847162500015,,,,,,,174.43847162500015,175.42123145899996,175.43306741700007,175.43306741700007,175.93395520900003,x,0.49317245800011733,None,175.93422450000025,175.94118016699986,176.12101666700028,,175.43306741700007,,,,,,,,yupaen,001,2025-02-27_13h33.00.439,MainFlow,2024.1.5,None,2025-02-27 13h33.12.713802 +0700,
2,2,1,4,letter/letten071.png,letter/lettkh055.png,0,82,82,82,176.13584716700052,,,,,,,176.13584716700052,177.12107391700056,177.13311329199996,177.13311329199996,177.8338684590003,z,0.6980725829998846,None,177.83413358400003,177.84075879200054,178.02131179199978,,177.13311329199996,,,,,,,,yupaen,001,2025-02-27_13h33.00.439,MainFlow,2024.1.5,None,2025-02-27 13h33.12.713802 +0700,
2,1,2,4,letter/lettth011.png,letter/letten101.png,0,83,83,83,178.0366044590005,,,,,,,178.0366044590005,179.02118691700025,179.03293362500017,179.03293362500017,179.7047566670003,x,0.6696790409996538,None,179.70502541700034,179.71616195900015,179.88768904200015,,179.03293362500017,,,,,,,,yupaen,001,2025-02-27_13h33.00.439,MainFlow,2024.1.5,None,2025-02-27 13h33.12.713802 +0700,
2,1,1,7,letter/letten062.png,letter/lettth132.png,0,84,84,84,179.90388504200064,,,,,,,179.90388504200064,180.88778983400016,180.89976895900008,180.89976895900008,182.41722450000043,z,1.5153771660006896,None,182.41749149999987,182.42440616700014,182.60470479200058,,180.89976895900008,,,,,,,,yupaen,001,2025-02-27_13h33.00.439,MainFlow,2024.1.5,None,2025-02-27 13h33.12.713802 +0700,
2,1,1,1,letter/letten041.png,letter/lettth022.png,0,85,85,85,182.62087199999996,,,,,,,182.62087199999996,183.60514091699997,183.6163488340003,183.6163488340003,184.18411179199984,z,0.5579165409999405,None,184.18438095900046,184.19122912500052,184.371467167,,183.6163488340003,,,,,,,,yupaen,001,2025-02-27_13h33.00.439,MainFlow,2024.1.5,None,2025-02-27 13h33.12.713802 +0700,
2,1,1,7,letter/letten062.png,letter/lettth132.png,0,86,86,86,184.3876693750003,,,,,,,184.3876693750003,185.37102512499996,185.38281608399984,185.38281608399984,187.03392287500037,z,1.6390092090005055,None,187.03420433400015,187.03859750000038,187.22069808400056,,185.38281608399984,,,,,,,,yupaen,001,2025-02-27_13h33.00.439,MainFlow,2024.1.5,None,2025-02-27 13h33.12.713802 +0700,
2,3,1,6,letter/letten061.png,letter/lettgr066.png,0,87,87,87,187.23536554200064,,,,,,,187.23536554200064,188.22133058400004,188.23297454200065,188.23297454200065,188.4006352500005,z,0.15626849999989645,None,188.40091450000045,188.405213042,188.58742037500042,,,,,,,,,,yupaen,001,2025-02-27_13h33.00.439,MainFlow,2024.1.5,None,2025-02-27 13h33.12.713802 +0700,
2,1,1,3,letter/letten142.png,letter/lettth152.png,0,88,88,88,188.60200337500055,,,,,,,188.60200337500055,189.5876902920004,189.5997425420005,189.5997425420005,190.8390549589999,z,1.238157417000366,None,190.83933000000025,190.84956287500017,191.03319337499988,191.04703729200037,189.5997425420005,,,,,,,,yupaen,001,2025-02-27_13h33.00.439,MainFlow,2024.1.5,None,2025-02-27 13h33.12.713802 +0700,
2,3,2,5,letter/lettgr012.png,letter/letten011.png,0,89,89,89,191.04703729200037,,,,,,,191.04703729200037,192.03336654199984,192.0382187500004,192.0382187500004,192.50069366700018,x,0.456352500000321,None,192.50096404199985,192.50785870900063,192.6872794169999,,192.0382187500004,,,,,,,,yupaen,001,2025-02-27_13h33.00.439,MainFlow,2024.1.5,None,2025-02-27 13h33.12.713802 +0700,
2,2,2,8,letter/lettkh035.png,letter/letten051.png,0,90,90,90,192.70210712500057,,,,,,,192.70210712500057,193.68741229200032,193.6995233749999,193.6995233749999,194.03389916700007,x,0.3220272499993371,None,194.03419091700061,194.03865075000022,194.2211635839999,,,,,,,,,,yupaen,001,2025-02-27_13h33.00.439,MainFlow,2024.1.5,None,2025-02-27 13h33.12.713802 +0700,
2,1,1,8,letter/letten131.png,letter/lettth022.png,0,91,91,91,194.23851487500042,,,,,,,194.23851487500042,195.2329707920003,195.23721049999995,195.23721049999995,195.85529945900043,z,0.6168139589999555,None,195.8555797920003,195.8663651669999,196.03843120900046,,,,,,,,,,yupaen,001,2025-02-27_13h33.00.439,MainFlow,2024.1.5,None,2025-02-27 13h33.12.713802 +0700,
2,1,2,1,letter/lettth022.png,letter/letten041.png,0,92,92,92,196.05402295900012,,,,,,,196.05402295900012,197.03781391700022,197.04962879200002,197.04962879200002,197.46726995900053,x,0.41243712499999674,None,197.4675391249998,197.47446820899995,197.65384795900036,,197.04962879200002,,,,,,,,yupaen,001,2025-02-27_13h33.00.439,MainFlow,2024.1.5,None,2025-02-27 13h33.12.713802 +0700,
2,3,1,7,letter/letten062.png,letter/lettgr065.png,0,93,93,93,197.67073833400036,,,,,,,197.67073833400036,198.65460850000045,198.66616670900066,198.66616670900066,199.32403483400003,z,0.6512739580002744,None,199.32431679200045,199.33284745900028,199.5164794590005,199.53175316700026,,,,,,,,,yupaen,001,2025-02-27_13h33.00.439,MainFlow,2024.1.5,None,2025-02-27 13h33.12.713802 +0700,
2,2,1,3,letter/letten071.png,letter/lettkh091.png,0,94,94,94,199.53175316700026,,,,,,,199.53175316700026,200.51662820899992,200.5209724170004,200.5209724170004,201.234182875,z,0.709462457999507,None,201.23450591700066,201.24165429200048,201.4205694590005,,200.5209724170004,,,,,,,,yupaen,001,2025-02-27_13h33.00.439,MainFlow,2024.1.5,None,2025-02-27 13h33.12.713802 +0700,
2,2,2,1,letter/lettkh159.png,letter/letten153.png,0,95,95,95,201.43726791700055,,,,,,,201.43726791700055,202.42131904200005,202.43298366699992,202.43298366699992,202.86753137500045,x,0.43009362500015413,None,202.86787108399994,202.87490641700015,203.05408424999996,,,,,,,,,,yupaen,001,2025-02-27_13h33.00.439,MainFlow,2024.1.5,None,2025-02-27 13h33.12.713802 +0700,
,,,,,,,,,,,,,,,,,,,,,,,,,,,,,,203.05414804200018,203.06619637500035,203.06619637500035,207.7839790840003,space,4.70762674999969,None,yupaen,001,2025-02-27_13h33.00.439,MainFlow,2024.1.5,None,2025-02-27 13h33.12.713802 +0700,
