lang,stimuli,imageid,word_length,worddir,trials.thisRepN,trials.thisTrialN,trials.thisN,trials.thisIndex,thisRow.t,notes,tutorial.started,tutorial.stopped,key_instruct.keys,key_instruct.rt,key_instruct.duration,instructblank.started,cross1.started,letterselect.started,imageword.started,text_2.started,cross2.started,key_resp.started,letterselect.stopped,key_resp.keys,key_resp.rt,key_resp.duration,instructblank.stopped,cross1.stopped,ending.started,text_3.started,ending_key.started,ending.stopped,ending_key.keys,ending_key.rt,ending_key.duration,participant,session,date,expName,psychopyVersion,frameRate,expStart,
,,,,,,,,,,,0.007005874998867512,5.532727875048295,space,5.468293124809861,None,,,,,,,,,,,,,,,,,,,,,YP_en,001,2025-04-03_13h30.03.286,MainFlow,2023.2.3,None,2025-04-03 13h30.17.997561 +0700,
2,3,51,5,word/worden0513.png,0,0,0,0,5.585768874967471,,,,,,,5.585768874967471,5.585768874967471,6.520495167002082,6.562544083921239,6.562544083921239,6.562544083921239,6.562544083921239,23.487602083943784,x,16.91415337496437,None,,,,,,,,,,YP_en,001,2025-04-03_13h30.03.286,MainFlow,2023.2.3,None,2025-04-03 13h30.17.997561 +0700,
2,1,96,7,word/worden0961.png,0,1,1,1,23.49637662502937,,,,,,,23.49637662502937,23.49637662502937,24.475413334090263,24.498975958907977,24.498975958907977,24.498975958907977,24.498975958907977,25.493264416931197,x,0.9932587079238147,None,,,,,,,,,,YP_en,001,2025-04-03_13h30.03.286,MainFlow,2023.2.3,None,2025-04-03 13h30.17.997561 +0700,
2,2,63,6,word/worden0632.png,0,2,2,2,25.502967624925077,,,,,,,25.502967624925077,25.502967624925077,26.48733308399096,26.510523000033572,26.510523000033572,26.510523000033572,26.510523000033572,32.70996066695079,x,6.197292582830414,None,26.510523000033572,26.510523000033572,,,,,,,,YP_en,001,2025-04-03_13h30.03.286,MainFlow,2023.2.3,None,2025-04-03 13h30.17.997561 +0700,
2,3,89,7,word/worden0893.png,0,3,3,3,32.720016333973035,,,,,,,32.720016333973035,32.720016333973035,33.704212666954845,33.727857375051826,33.727857375051826,33.727857375051826,33.727857375051826,35.054724249988794,x,1.316268791910261,None,33.727857375051826,33.727857375051826,,,,,,,,YP_en,001,2025-04-03_13h30.03.286,MainFlow,2023.2.3,None,2025-04-03 13h30.17.997561 +0700,
2,3,64,6,word/worden0643.png,0,4,4,4,35.06238029198721,,,,,,,35.06238029198721,35.06238029198721,36.042175125097856,36.06848608399741,36.06848608399741,36.06848608399741,36.06848608399741,41.43773187510669,x,5.359580958029255,None,,,,,,,,,,YP_en,001,2025-04-03_13h30.03.286,MainFlow,2023.2.3,None,2025-04-03 13h30.17.997561 +0700,
2,1,7,3,word/worden0071.png,0,5,5,5,41.44546987512149,,,,,,,41.44546987512149,41.44546987512149,42.42106445902027,42.4444196249824,42.4444196249824,42.4444196249824,42.4444196249824,45.8547753340099,z,3.3991567499469966,None,,,,,,,,,,YP_en,001,2025-04-03_13h30.03.286,MainFlow,2023.2.3,None,2025-04-03 13h30.17.997561 +0700,
2,2,31,4,word/worden0312.png,0,6,6,6,45.86272812495008,,,,,,,45.86272812495008,45.86272812495008,46.842361292103305,46.86512174992822,46.86512174992822,46.86512174992822,46.86512174992822,51.47142024990171,x,4.59522912488319,None,,,,,,,,,,YP_en,001,2025-04-03_13h30.03.286,MainFlow,2023.2.3,None,2025-04-03 13h30.17.997561 +0700,
2,2,48,5,word/worden0482.png,0,7,7,7,51.479882874991745,,,,,,,51.479882874991745,51.479882874991745,52.45903516700491,52.48173612495884,52.48173612495884,52.48173612495884,52.48173612495884,59.12664974993095,x,6.6419609589502215,None,,,,,,,,,,YP_en,001,2025-04-03_13h30.03.286,MainFlow,2023.2.3,None,2025-04-03 13h30.17.997561 +0700,
2,2,46,5,word/worden0462.png,0,8,8,8,59.13691004202701,,,,,,,59.13691004202701,59.13691004202701,60.12117312499322,60.14335308410227,60.14335308410227,60.14335308410227,60.14335308410227,62.72662554192357,x,2.58163333311677,None,60.14335308410227,60.14335308410227,,,,,,,,YP_en,001,2025-04-03_13h30.03.286,MainFlow,2023.2.3,None,2025-04-03 13h30.17.997561 +0700,
2,3,93,7,word/worden0933.png,0,9,9,9,62.737224667100236,,,,,,,62.737224667100236,62.737224667100236,63.72134225000627,63.744304874911904,63.744304874911904,63.744304874911904,63.744304874911904,65.52644058410078,x,1.7797534160781652,None,63.744304874911904,63.744304874911904,,,,,,,,YP_en,001,2025-04-03_13h30.03.286,MainFlow,2023.2.3,None,2025-04-03 13h30.17.997561 +0700,
2,2,94,7,word/worden0942.png,0,10,10,10,65.53699525003321,,,,,,,65.53699525003321,65.53699525003321,66.52146199997514,66.5447373338975,66.5447373338975,66.5447373338975,66.5447373338975,70.22140845912509,x,3.667611541924998,None,66.5447373338975,66.5447373338975,,,,,,,,YP_en,001,2025-04-03_13h30.03.286,MainFlow,2023.2.3,None,2025-04-03 13h30.17.997561 +0700,
2,2,11,3,word/worden0112.png,0,11,11,11,70.22904075006954,,,,,,,70.22904075006954,70.22904075006954,71.20482916710898,71.22838987503201,71.22838987503201,71.22838987503201,71.22838987503201,72.46019358397461,x,1.2276337498333305,None,,,,,,,,,,YP_en,001,2025-04-03_13h30.03.286,MainFlow,2023.2.3,None,2025-04-03 13h30.17.997561 +0700,
2,1,6,3,word/worden0061.png,0,12,12,12,72.47018395899795,,,,,,,72.47018395899795,72.47018395899795,73.45454104198143,73.47657883400097,73.47657883400097,73.47657883400097,73.47657883400097,77.65999920899048,z,4.179186249850318,None,73.47657883400097,73.47657883400097,,,,,,,,YP_en,001,2025-04-03_13h30.03.286,MainFlow,2023.2.3,None,2025-04-03 13h30.17.997561 +0700,
2,1,8,3,word/worden0081.png,0,13,13,13,77.67072916706093,,,,,,,77.67072916706093,77.67072916706093,78.65497775003314,78.67760791699402,78.67760791699402,78.67760791699402,78.67760791699402,85.24373633391224,z,6.5613261251710355,None,78.67760791699402,78.67760791699402,,,,,,,,YP_en,001,2025-04-03_13h30.03.286,MainFlow,2023.2.3,None,2025-04-03 13h30.17.997561 +0700,
2,1,88,7,word/worden0881.png,0,14,14,14,85.25365212489851,,,,,,,85.25365212489851,85.25365212489851,86.23814724991098,86.26088054198772,86.26088054198772,86.26088054198772,86.26088054198772,105.72202774998732,z,19.45683795795776,None,86.26088054198772,86.26088054198772,,,,,,,,YP_en,001,2025-04-03_13h30.03.286,MainFlow,2023.2.3,None,2025-04-03 13h30.17.997561 +0700,
2,2,7,3,word/worden0072.png,0,15,15,15,105.72959383390844,,,,,,,105.72959383390844,105.72959383390844,106.70990858389996,106.73185895895585,106.73185895895585,106.73185895895585,106.73185895895585,113.59413104201667,x,6.8577685840427876,None,,,,,,,,,,YP_en,001,2025-04-03_13h30.03.286,MainFlow,2023.2.3,None,2025-04-03 13h30.17.997561 +0700,
2,1,68,6,word/worden0681.png,0,16,16,16,113.60431183408946,,,,,,,113.60431183408946,113.60431183408946,114.58846437511966,114.61125845904462,114.61125845904462,114.61125845904462,114.61125845904462,124.08904241700657,z,9.47628637519665,None,114.61125845904462,114.61125845904462,,,,,,,,YP_en,001,2025-04-03_13h30.03.286,MainFlow,2023.2.3,None,2025-04-03 13h30.17.997561 +0700,
2,3,48,5,word/worden0483.png,0,17,17,17,124.09713358408771,,,,,,,124.09713358408771,124.09713358408771,125.07673929212615,125.09953229199164,125.09953229199164,125.09953229199164,125.09953229199164,144.06070412509143,x,18.95654399995692,None,,,,,,,,,,YP_en,001,2025-04-03_13h30.03.286,MainFlow,2023.2.3,None,2025-04-03 13h30.17.997561 +0700,
2,3,3,3,word/worden0033.png,0,18,18,18,144.0712832501158,,,,,,,144.0712832501158,144.0712832501158,145.05562041699886,145.07764758402482,145.07764758402482,145.07764758402482,145.07764758402482,149.91144562512636,x,4.832792707951739,None,145.07764758402482,145.07764758402482,,,,,,,,YP_en,001,2025-04-03_13h30.03.286,MainFlow,2023.2.3,None,2025-04-03 13h30.17.997561 +0700,
2,1,93,7,word/worden0931.png,0,19,19,19,149.92106870911084,,,,,,,149.92106870911084,149.92106870911084,150.90542350010946,150.92768845893443,150.92768845893443,150.92768845893443,150.92768845893443,170.34457933390513,z,19.415201249998063,None,150.92768845893443,150.92768845893443,,,,,,,,YP_en,001,2025-04-03_13h30.03.286,MainFlow,2023.2.3,None,2025-04-03 13h30.17.997561 +0700,
2,2,88,7,word/worden0882.png,0,20,20,20,170.35522191692144,,,,,,,170.35522191692144,170.35522191692144,171.33926566690207,171.36411570897326,171.36411570897326,171.36411570897326,171.36411570897326,188.84465770912357,x,17.4766299999319,None,171.36411570897326,171.36411570897326,,,,,,,,YP_en,001,2025-04-03_13h30.03.286,MainFlow,2023.2.3,None,2025-04-03 13h30.17.997561 +0700,
2,1,41,5,word/worden0411.png,0,21,21,21,188.85544345900416,,,,,,,188.85544345900416,188.85544345900416,189.83939183410257,189.86110208393075,189.86110208393075,189.86110208393075,189.86110208393075,196.74502266710624,z,6.882658666931093,None,189.86110208393075,189.86110208393075,,,,,,,,YP_en,001,2025-04-03_13h30.03.286,MainFlow,2023.2.3,None,2025-04-03 13h30.17.997561 +0700,
2,1,89,7,word/worden0891.png,0,22,22,22,196.75533270905726,,,,,,,196.75533270905726,196.75533270905726,197.73958487506025,197.76194158405997,197.76194158405997,197.76194158405997,197.76194158405997,205.1121650841087,z,7.349109499948099,None,197.76194158405997,197.76194158405997,,,,,,,,YP_en,001,2025-04-03_13h30.03.286,MainFlow,2023.2.3,None,2025-04-03 13h30.17.997561 +0700,
2,2,23,4,word/worden0232.png,0,23,23,23,205.12173608411103,,,,,,,205.12173608411103,205.12173608411103,206.10610729199834,206.1293587500695,206.1293587500695,206.1293587500695,206.1293587500695,221.3733034171164,x,15.238700666930526,None,206.1293587500695,206.1293587500695,,,,,,,,YP_en,001,2025-04-03_13h30.03.286,MainFlow,2023.2.3,None,2025-04-03 13h30.17.997561 +0700,
2,1,64,6,word/worden0641.png,0,24,24,24,221.380893249996,,,,,,,221.380893249996,221.380893249996,222.3564119169023,222.37881599995308,222.37881599995308,222.37881599995308,222.37881599995308,254.39547895896249,x,32.012922666966915,None,,,,,,,,,,YP_en,001,2025-04-03_13h30.03.286,MainFlow,2023.2.3,None,2025-04-03 13h30.17.997561 +0700,
2,3,30,4,word/worden0303.png,0,25,25,25,254.4059498750139,,,,,,,254.4059498750139,254.4059498750139,255.39029862498865,255.41358041693456,255.41358041693456,255.41358041693456,255.41358041693456,264.9404064998962,x,9.524305166909471,None,255.41358041693456,255.41358041693456,,,,,,,,YP_en,001,2025-04-03_13h30.03.286,MainFlow,2023.2.3,None,2025-04-03 13h30.17.997561 +0700,
2,3,22,4,word/worden0223.png,0,26,26,26,264.94866620912217,,,,,,,264.94866620912217,264.94866620912217,265.92366599990055,265.9462241670117,265.9462241670117,265.9462241670117,265.9462241670117,273.82388408412226,x,7.871576042147353,None,,,,,,,,,,YP_en,001,2025-04-03_13h30.03.286,MainFlow,2023.2.3,None,2025-04-03 13h30.17.997561 +0700,
2,1,94,7,word/worden0941.png,0,27,27,27,273.8315250000451,,,,,,,273.8315250000451,273.8315250000451,274.8071002920624,274.83059445908293,274.83059445908293,274.83059445908293,274.83059445908293,280.30741120898165,z,5.466375207994133,None,,,,,,,,,,YP_en,001,2025-04-03_13h30.03.286,MainFlow,2023.2.3,None,2025-04-03 13h30.17.997561 +0700,
2,2,93,7,word/worden0932.png,0,28,28,28,280.3153486670926,,,,,,,280.3153486670926,280.3153486670926,281.29516766709276,281.3177721670363,281.3177721670363,281.3177721670363,281.3177721670363,293.24631679197773,x,11.923811875050887,None,,,,,,,,,,YP_en,001,2025-04-03_13h30.03.286,MainFlow,2023.2.3,None,2025-04-03 13h30.17.997561 +0700,
2,1,71,6,word/worden0711.png,0,29,29,29,293.2561768749729,,,,,,,293.2561768749729,293.2561768749729,294.24101170897484,294.26464416692033,294.26464416692033,294.26464416692033,294.26464416692033,308.7078106671106,z,14.432144166901708,None,294.26464416692033,294.26464416692033,,,,,,,,YP_en,001,2025-04-03_13h30.03.286,MainFlow,2023.2.3,None,2025-04-03 13h30.17.997561 +0700,
2,3,70,6,word/worden0703.png,0,30,30,30,308.71591237490065,,,,,,,308.71591237490065,308.71591237490065,309.6956225419417,309.71852975012735,309.71852975012735,309.71852975012735,309.71852975012735,324.0128962090239,x,14.291896416805685,None,,,,,,,,,,YP_en,001,2025-04-03_13h30.03.286,MainFlow,2023.2.3,None,2025-04-03 13h30.17.997561 +0700,
2,3,23,4,word/worden0233.png,0,31,31,31,324.0235377920326,,,,,,,324.0235377920326,324.0235377920326,325.00788083393127,325.03189512505196,325.03189512505196,325.03189512505196,325.03189512505196,335.85802399995737,x,10.818534166086465,None,325.03189512505196,325.03189512505196,,,,,,,,YP_en,001,2025-04-03_13h30.03.286,MainFlow,2023.2.3,None,2025-04-03 13h30.17.997561 +0700,
2,3,1,3,word/worden0013.png,0,32,32,32,335.8654444999993,,,,,,,335.8654444999993,335.8654444999993,336.8458602500614,336.8686001249589,336.8686001249589,336.8686001249589,336.8686001249589,345.4581490419805,x,8.58220204198733,None,,,,,,,,,,YP_en,001,2025-04-03_13h30.03.286,MainFlow,2023.2.3,None,2025-04-03 13h30.17.997561 +0700,
2,2,22,4,word/worden0222.png,0,33,33,33,345.46630208403803,,,,,,,345.46630208403803,345.46630208403803,346.445896709105,346.4682819999289,346.4682819999289,346.4682819999289,346.4682819999289,349.6992286250461,x,3.2230668750125915,None,,,,,,,,,,YP_en,001,2025-04-03_13h30.03.286,MainFlow,2023.2.3,None,2025-04-03 13h30.17.997561 +0700,
2,1,31,4,word/worden0311.png,0,34,34,34,349.707303958945,,,,,,,349.707303958945,349.707303958945,350.69143216707744,350.7143702090252,350.7143702090252,350.7143702090252,350.7143702090252,365.0750682919752,x,14.352404500124976,None,350.7143702090252,350.7143702090252,,,,,,,,YP_en,001,2025-04-03_13h30.03.286,MainFlow,2023.2.3,None,2025-04-03 13h30.17.997561 +0700,
2,2,8,3,word/worden0082.png,0,35,35,35,365.0827700421214,,,,,,,365.0827700421214,365.0827700421214,366.06288358406164,366.08565558400005,366.08565558400005,366.08565558400005,366.08565558400005,373.6137339998968,x,7.525699292076752,None,,,,,,,,,,YP_en,001,2025-04-03_13h30.03.286,MainFlow,2023.2.3,None,2025-04-03 13h30.17.997561 +0700,
2,1,30,4,word/worden0301.png,0,36,36,36,373.6240630419925,,,,,,,373.6240630419925,373.6240630419925,374.60831729206257,374.6303819171153,374.6303819171153,374.6303819171153,374.6303819171153,377.16405266709626,z,2.5326589581090957,None,374.6303819171153,374.6303819171153,,,,,,,,YP_en,001,2025-04-03_13h30.03.286,MainFlow,2023.2.3,None,2025-04-03 13h30.17.997561 +0700,
2,1,44,5,word/worden0441.png,0,37,37,37,377.173861291958,,,,,,,377.173861291958,377.173861291958,378.1581143750809,378.18080345890485,378.18080345890485,378.18080345890485,378.18080345890485,396.7419052920304,z,18.550689917057753,None,378.18080345890485,378.18080345890485,,,,,,,,YP_en,001,2025-04-03_13h30.03.286,MainFlow,2023.2.3,None,2025-04-03 13h30.17.997561 +0700,
2,2,44,5,word/worden0442.png,0,38,38,38,396.7490606671199,,,,,,,396.7490606671199,396.7490606671199,397.72501770895906,397.7478704589885,397.7478704589885,397.7478704589885,397.7478704589885,400.79219279205427,x,3.0324786251876503,None,,,,,,,,,,YP_en,001,2025-04-03_13h30.03.286,MainFlow,2023.2.3,None,2025-04-03 13h30.17.997561 +0700,
2,3,87,7,word/worden0873.png,0,39,39,39,400.79742958396673,,,,,,,400.79742958396673,400.79742958396673,401.77542266692035,401.79783345898613,401.79783345898613,401.79783345898613,401.79783345898613,408.5754864590708,x,6.7744128331542015,None,,,,,,,,,,YP_en,001,2025-04-03_13h30.03.286,MainFlow,2023.2.3,None,2025-04-03 13h30.17.997561 +0700,
2,1,52,5,word/worden0521.png,0,40,40,40,408.5829136669636,,,,,,,408.5829136669636,408.5829136669636,409.5586687501054,409.58203987497836,409.58203987497836,409.58203987497836,409.58203987497836,429.8089880840853,z,20.222131124930456,None,,,,,,,,,,YP_en,001,2025-04-03_13h30.03.286,MainFlow,2023.2.3,None,2025-04-03 13h30.17.997561 +0700,
2,3,11,3,word/worden0113.png,0,41,41,41,429.8168510841206,,,,,,,429.8168510841206,429.8168510841206,430.79260249994695,430.8151341250632,430.8151341250632,430.8151341250632,430.8151341250632,439.80917883408256,x,8.9891412910074,None,,,,,,,,,,YP_en,001,2025-04-03_13h30.03.286,MainFlow,2023.2.3,None,2025-04-03 13h30.17.997561 +0700,
2,2,3,3,word/worden0032.png,0,42,42,42,439.8169386670925,,,,,,,439.8169386670925,439.8169386670925,440.7970405840315,440.8196517920587,440.8196517920587,440.8196517920587,440.8196517920587,448.4836345841177,x,7.656525915954262,None,,,,,,,,,,YP_en,001,2025-04-03_13h30.03.286,MainFlow,2023.2.3,None,2025-04-03 13h30.17.997561 +0700,
2,1,75,6,word/worden0751.png,0,43,43,43,448.49183399998583,,,,,,,448.49183399998583,448.49183399998583,449.47566925012507,449.4979334999807,449.4979334999807,449.4979334999807,449.4979334999807,464.57610808406025,z,15.075570957968011,None,449.4979334999807,449.4979334999807,,,,,,,,YP_en,001,2025-04-03_13h30.03.286,MainFlow,2023.2.3,None,2025-04-03 13h30.17.997561 +0700,
2,2,96,7,word/worden0962.png,0,44,44,44,464.5837146670092,,,,,,,464.5837146670092,464.5837146670092,465.55929620889947,465.58319095894694,465.58319095894694,465.58319095894694,465.58319095894694,478.7265395419672,x,13.134358250070363,None,,,,,,,,,,YP_en,001,2025-04-03_13h30.03.286,MainFlow,2023.2.3,None,2025-04-03 13h30.17.997561 +0700,
2,3,75,6,word/worden0753.png,0,45,45,45,478.7343034169171,,,,,,,478.7343034169171,478.7343034169171,479.7145044589415,479.7375438751187,479.7375438751187,479.7375438751187,479.7375438751187,487.9264601669274,x,8.180059042060748,None,,,,,,,,,,YP_en,001,2025-04-03_13h30.03.286,MainFlow,2023.2.3,None,2025-04-03 13h30.17.997561 +0700,
2,1,95,7,word/worden0951.png,0,46,46,46,487.9343972920906,,,,,,,487.9343972920906,487.9343972920906,488.90968333394267,488.9321644590236,488.9321644590236,488.9321644590236,488.9321644590236,506.848609500099,x,17.91364345792681,None,,,,,,,,,,YP_en,001,2025-04-03_13h30.03.286,MainFlow,2023.2.3,None,2025-04-03 13h30.17.997561 +0700,
2,3,41,5,word/worden0413.png,0,47,47,47,506.8589358339086,,,,,,,506.8589358339086,506.8589358339086,507.8430855839979,507.86521895905025,507.86521895905025,507.86521895905025,507.86521895905025,518.726844958961,x,10.853149792179465,None,507.86521895905025,507.86521895905025,,,,,,,,YP_en,001,2025-04-03_13h30.03.286,MainFlow,2023.2.3,None,2025-04-03 13h30.17.997561 +0700,
2,1,11,3,word/worden0111.png,0,48,48,48,518.7343405419961,,,,,,,518.7343405419961,518.7343405419961,519.7100714589469,519.7339814999141,519.7339814999141,519.7339814999141,519.7339814999141,522.6605617499445,z,2.9206609998364,None,,,,,,,,,,YP_en,001,2025-04-03_13h30.03.286,MainFlow,2023.2.3,None,2025-04-03 13h30.17.997561 +0700,
2,1,24,4,word/worden0241.png,0,49,49,49,522.6684910419863,,,,,,,522.6684910419863,522.6684910419863,523.6479526250623,523.6696392500307,523.6696392500307,523.6696392500307,523.6696392500307,535.8435463749338,z,12.169330207863823,None,,,,,,,,,,YP_en,001,2025-04-03_13h30.03.286,MainFlow,2023.2.3,None,2025-04-03 13h30.17.997561 +0700,
2,1,61,6,word/worden0611.png,0,50,50,50,535.8513102501165,,,,,,,535.8513102501165,535.8513102501165,536.8313525419217,536.8537045419216,536.8537045419216,536.8537045419216,536.8537045419216,573.7160707919393,z,36.85819104220718,None,,,,,,,,,,YP_en,001,2025-04-03_13h30.03.286,MainFlow,2023.2.3,None,2025-04-03 13h30.17.997561 +0700,
2,1,82,7,word/worden0821.png,0,51,51,51,573.7262030420825,,,,,,,573.7262030420825,573.7262030420825,574.7107263340149,574.7338799999561,574.7338799999561,574.7338799999561,574.7338799999561,583.0776414589491,z,8.336776500102133,None,574.7338799999561,574.7338799999561,,,,,,,,YP_en,001,2025-04-03_13h30.03.286,MainFlow,2023.2.3,None,2025-04-03 13h30.17.997561 +0700,
2,2,64,6,word/worden0642.png,0,52,52,52,583.0851689169649,,,,,,,583.0851689169649,583.0851689169649,584.0654873340391,584.0878187920898,584.0878187920898,584.0878187920898,584.0878187920898,590.327722667018,x,6.231210625031963,None,,,,,,,,,,YP_en,001,2025-04-03_13h30.03.286,MainFlow,2023.2.3,None,2025-04-03 13h30.17.997561 +0700,
2,1,22,4,word/worden0221.png,0,53,53,53,590.3356347919907,,,,,,,590.3356347919907,590.3356347919907,591.3108793750871,591.333446667064,591.333446667064,591.333446667064,591.333446667064,594.1662916250061,z,2.8284292919561267,None,,,,,,,,,,YP_en,001,2025-04-03_13h30.03.286,MainFlow,2023.2.3,None,2025-04-03 13h30.17.997561 +0700,
2,2,41,5,word/worden0412.png,0,54,54,54,594.1766497089993,,,,,,,594.1766497089993,594.1766497089993,595.1610959589016,595.1842121670488,595.1842121670488,595.1842121670488,595.1842121670488,597.8776251669042,x,2.687435125000775,None,595.1842121670488,595.1842121670488,,,,,,,,YP_en,001,2025-04-03_13h30.03.286,MainFlow,2023.2.3,None,2025-04-03 13h30.17.997561 +0700,
2,2,68,6,word/worden0682.png,0,55,55,55,597.8852778750006,,,,,,,597.8852778750006,597.8852778750006,598.8609568749089,598.8840872920118,598.8840872920118,598.8840872920118,598.8840872920118,607.0114670000039,x,8.125480790855363,None,,,,,,,,,,YP_en,001,2025-04-03_13h30.03.286,MainFlow,2023.2.3,None,2025-04-03 13h30.17.997561 +0700,
2,3,28,4,word/worden0283.png,0,56,56,56,607.0194577090442,,,,,,,607.0194577090442,607.0194577090442,607.998752667103,608.0221962090582,608.0221962090582,608.0221962090582,608.0221962090582,635.4115787090268,z,27.38732725009322,None,,,,,,,,,,YP_en,001,2025-04-03_13h30.03.286,MainFlow,2023.2.3,None,2025-04-03 13h30.17.997561 +0700,
2,2,51,5,word/worden0512.png,0,57,57,57,635.4192218340468,,,,,,,635.4192218340468,635.4192218340468,636.3947438339237,636.4173921670299,636.4173921670299,636.4173921670299,636.4173921670299,640.0172067920212,x,3.598729917081073,None,,,,,,,,,,YP_en,001,2025-04-03_13h30.03.286,MainFlow,2023.2.3,None,2025-04-03 13h30.17.997561 +0700,
2,3,66,6,word/worden0663.png,0,58,58,58,640.026860666927,,,,,,,640.026860666927,640.026860666927,641.0115097090602,641.0343092090916,641.0343092090916,641.0343092090916,641.0343092090916,646.2284168340266,x,5.191895749885589,None,641.0343092090916,641.0343092090916,,,,,,,,YP_en,001,2025-04-03_13h30.03.286,MainFlow,2023.2.3,None,2025-04-03 13h30.17.997561 +0700,
2,3,82,7,word/worden0823.png,0,59,59,59,646.2357817499433,,,,,,,646.2357817499433,646.2357817499433,647.2162060840055,647.2400215840898,647.2400215840898,647.2400215840898,647.2400215840898,672.6286937498953,x,25.386389250168577,None,,,,,,,,,,YP_en,001,2025-04-03_13h30.03.286,MainFlow,2023.2.3,None,2025-04-03 13h30.17.997561 +0700,
2,1,10,3,word/worden0101.png,0,60,60,60,672.6366251669824,,,,,,,672.6366251669824,672.6366251669824,673.6163891670294,673.6386029589921,673.6386029589921,673.6386029589921,673.6386029589921,678.7621491670143,z,5.115160958841443,None,,,,,,,,,,YP_en,001,2025-04-03_13h30.03.286,MainFlow,2023.2.3,None,2025-04-03 13h30.17.997561 +0700,
2,3,46,5,word/worden0463.png,0,61,61,61,678.7699445839971,,,,,,,678.7699445839971,678.7699445839971,679.745257542003,679.7686208749656,679.7686208749656,679.7686208749656,679.7686208749656,702.9676650420297,x,23.19492870895192,None,,,,,,,,,,YP_en,001,2025-04-03_13h30.03.286,MainFlow,2023.2.3,None,2025-04-03 13h30.17.997561 +0700,
2,1,9,3,word/worden0091.png,0,62,62,62,702.9779232500587,,,,,,,702.9779232500587,702.9779232500587,703.962075999938,703.9840585000347,703.9840585000347,703.9840585000347,703.9840585000347,705.6289292089641,z,1.6342880420852453,None,703.9840585000347,703.9840585000347,,,,,,,,YP_en,001,2025-04-03_13h30.03.286,MainFlow,2023.2.3,None,2025-04-03 13h30.17.997561 +0700,
2,3,88,7,word/worden0883.png,0,63,63,63,705.636747749988,,,,,,,705.636747749988,705.636747749988,706.6169734171126,706.6399272091221,706.6399272091221,706.6399272091221,706.6399272091221,714.4842572091147,x,7.842458792030811,None,,,,,,,,,,YP_en,001,2025-04-03_13h30.03.286,MainFlow,2023.2.3,None,2025-04-03 13h30.17.997561 +0700,
2,1,51,5,word/worden0511.png,0,64,64,64,714.4949842919596,,,,,,,714.4949842919596,714.4949842919596,715.4790568340104,715.5016991249286,715.5016991249286,715.5016991249286,715.5016991249286,731.8178444169462,x,16.312266499968246,None,715.5016991249286,715.5016991249286,,,,,,,,YP_en,001,2025-04-03_13h30.03.286,MainFlow,2023.2.3,None,2025-04-03 13h30.17.997561 +0700,
2,3,50,5,word/worden0503.png,0,65,65,65,731.8280669590458,,,,,,,731.8280669590458,731.8280669590458,732.8124749590643,732.8369852500036,732.8369852500036,732.8369852500036,732.8369852500036,741.6627435421105,x,8.813832333078608,None,732.8369852500036,732.8369852500036,,,,,,,,YP_en,001,2025-04-03_13h30.03.286,MainFlow,2023.2.3,None,2025-04-03 13h30.17.997561 +0700,
2,2,82,7,word/worden0822.png,0,66,66,66,741.6677400839981,,,,,,,741.6677400839981,741.6677400839981,742.6460009170696,742.6693762920331,742.6693762920331,742.6693762920331,742.6693762920331,761.7014036669862,x,19.0303575838916,None,,,,,,,,,,YP_en,001,2025-04-03_13h30.03.286,MainFlow,2023.2.3,None,2025-04-03 13h30.17.997561 +0700,
2,3,95,7,word/worden0953.png,0,67,67,67,761.7122768750414,,,,,,,761.7122768750414,761.7122768750414,762.6963302919175,762.7199151669629,762.7199151669629,762.7199151669629,762.7199151669629,775.4802032499574,x,12.754854709142819,None,762.7199151669629,762.7199151669629,,,,,,,,YP_en,001,2025-04-03_13h30.03.286,MainFlow,2023.2.3,None,2025-04-03 13h30.17.997561 +0700,
2,3,31,4,word/worden0313.png,0,68,68,68,775.4883852091152,,,,,,,775.4883852091152,775.4883852091152,776.4674870839808,776.4897586670704,776.4897586670704,776.4897586670704,776.4897586670704,786.2184621670749,x,9.72407891601324,None,,,,,,,,,,YP_en,001,2025-04-03_13h30.03.286,MainFlow,2023.2.3,None,2025-04-03 13h30.17.997561 +0700,
2,1,3,3,word/worden0031.png,0,69,69,69,786.2291942499578,,,,,,,786.2291942499578,786.2291942499578,787.2130989169236,787.2358781669755,787.2358781669755,787.2358781669755,787.2358781669755,792.2800015420653,z,5.040997250005603,None,787.2358781669755,787.2358781669755,,,,,,,,YP_en,001,2025-04-03_13h30.03.286,MainFlow,2023.2.3,None,2025-04-03 13h30.17.997561 +0700,
2,1,46,5,word/worden0461.png,0,70,70,70,792.2876538750716,,,,,,,792.2876538750716,792.2876538750716,793.26307141711,793.2850272089709,793.2850272089709,793.2850272089709,793.2850272089709,804.9516294589266,x,11.663631957955658,None,,,,,,,,,,YP_en,001,2025-04-03_13h30.03.286,MainFlow,2023.2.3,None,2025-04-03 13h30.17.997561 +0700,
2,3,7,3,word/worden0073.png,0,71,71,71,804.9627034589648,,,,,,,804.9627034589648,804.9627034589648,805.9469722919166,805.9692008749116,805.9692008749116,805.9692008749116,805.9692008749116,819.017933208961,x,13.045030625071377,None,805.9692008749116,805.9692008749116,,,,,,,,YP_en,001,2025-04-03_13h30.03.286,MainFlow,2023.2.3,None,2025-04-03 13h30.17.997561 +0700,
2,2,95,7,word/worden0952.png,0,72,72,72,819.0292139591184,,,,,,,819.0292139591184,819.0292139591184,820.0014288339298,820.0245480840094,820.0245480840094,820.0245480840094,820.0245480840094,829.4025377500802,x,9.373901749961078,None,,,,,,,,,,YP_en,001,2025-04-03_13h30.03.286,MainFlow,2023.2.3,None,2025-04-03 13h30.17.997561 +0700,
2,3,6,3,word/worden0063.png,0,73,73,73,829.4125426670071,,,,,,,829.4125426670071,829.4125426670071,830.3969284170307,830.4202792500146,830.4202792500146,830.4202792500146,830.4202792500146,835.4187354170717,x,4.994771083118394,None,830.4202792500146,830.4202792500146,,,,,,,,YP_en,001,2025-04-03_13h30.03.286,MainFlow,2023.2.3,None,2025-04-03 13h30.17.997561 +0700,
2,3,52,5,word/worden0523.png,0,74,74,74,835.429638416972,,,,,,,835.429638416972,835.429638416972,836.413633374963,836.4363299170509,836.4363299170509,836.4363299170509,836.4363299170509,837.9637144999579,x,1.5205040420405567,None,836.4363299170509,836.4363299170509,,,,,,,,YP_en,001,2025-04-03_13h30.03.286,MainFlow,2023.2.3,None,2025-04-03 13h30.17.997561 +0700,
2,3,71,6,word/worden0713.png,0,75,75,75,837.9717076669913,,,,,,,837.9717076669913,837.9717076669913,838.9472168749198,838.9705542919692,838.9705542919692,838.9705542919692,838.9705542919692,839.9806891249027,x,1.0028562499210238,None,,,,,,,,,,YP_en,001,2025-04-03_13h30.03.286,MainFlow,2023.2.3,None,2025-04-03 13h30.17.997561 +0700,
2,3,63,6,word/worden0633.png,0,76,76,76,839.9882803340442,,,,,,,839.9882803340442,839.9882803340442,840.9683265420608,840.9905648750719,840.9905648750719,840.9905648750719,840.9905648750719,868.781096041901,x,27.783558749826625,None,,,,,,,,,,YP_en,001,2025-04-03_13h30.03.286,MainFlow,2023.2.3,None,2025-04-03 13h30.17.997561 +0700,
2,1,63,6,word/worden0631.png,0,77,77,77,868.7894080420956,,,,,,,868.7894080420956,868.7894080420956,869.768995749997,869.79246908403,869.79246908403,869.79246908403,869.79246908403,875.3695044589695,z,5.57303304085508,None,,,,,,,,,,YP_en,001,2025-04-03_13h30.03.286,MainFlow,2023.2.3,None,2025-04-03 13h30.17.997561 +0700,
2,1,28,4,word/worden0281.png,0,78,78,78,875.3801722500939,,,,,,,875.3801722500939,875.3801722500939,876.3641884999815,876.3876669169404,876.3876669169404,876.3876669169404,876.3876669169404,882.4144421669189,z,6.018704582937062,None,876.3876669169404,876.3876669169404,,,,,,,,YP_en,001,2025-04-03_13h30.03.286,MainFlow,2023.2.3,None,2025-04-03 13h30.17.997561 +0700,
2,3,94,7,word/worden0943.png,0,79,79,79,882.4220444171224,,,,,,,882.4220444171224,882.4220444171224,883.4021373339929,883.4251196670812,883.4251196670812,883.4251196670812,883.4251196670812,900.5700986250304,x,17.14028637506999,None,,,,,,,,,,YP_en,001,2025-04-03_13h30.03.286,MainFlow,2023.2.3,None,2025-04-03 13h30.17.997561 +0700,
2,3,8,3,word/worden0083.png,0,80,80,80,900.5800554170273,,,,,,,900.5800554170273,900.5800554170273,901.5646229169797,901.5880753339734,901.5880753339734,901.5880753339734,901.5880753339734,908.2814211670775,x,6.69094958412461,None,901.5880753339734,901.5880753339734,,,,,,,,YP_en,001,2025-04-03_13h30.03.286,MainFlow,2023.2.3,None,2025-04-03 13h30.17.997561 +0700,
2,1,87,7,word/worden0871.png,0,81,81,81,908.2892466250341,,,,,,,908.2892466250341,908.2892466250341,909.2646130421199,909.2873730419669,909.2873730419669,909.2873730419669,909.2873730419669,923.5484527919907,z,14.256345292087644,None,,,,,,,,,,YP_en,001,2025-04-03_13h30.03.286,MainFlow,2023.2.3,None,2025-04-03 13h30.17.997561 +0700,
2,2,24,4,word/worden0242.png,0,82,82,82,923.5563578340225,,,,,,,923.5563578340225,923.5563578340225,924.5317392500583,924.5551114589907,924.5551114589907,924.5551114589907,924.5551114589907,952.9208808750845,x,28.364656124962494,None,,,,,,,,,,YP_en,001,2025-04-03_13h30.03.286,MainFlow,2023.2.3,None,2025-04-03 13h30.17.997561 +0700,
2,2,61,6,word/worden0612.png,0,83,83,83,952.9305821671151,,,,,,,952.9305821671151,952.9305821671151,953.9150931669865,953.9380945418961,953.9380945418961,953.9380945418961,953.9380945418961,963.9655543339904,x,10.021069542039186,None,953.9380945418961,953.9380945418961,,,,,,,,YP_en,001,2025-04-03_13h30.03.286,MainFlow,2023.2.3,None,2025-04-03 13h30.17.997561 +0700,
2,2,52,5,word/worden0522.png,0,84,84,84,963.973735250067,,,,,,,963.973735250067,963.973735250067,964.9535311250947,964.9768122090027,964.9768122090027,964.9768122090027,964.9768122090027,975.8706493340433,x,10.8897192501463,None,,,,,,,,,,YP_en,001,2025-04-03_13h30.03.286,MainFlow,2023.2.3,None,2025-04-03 13h30.17.997561 +0700,
2,1,42,5,word/worden0421.png,0,85,85,85,975.8813862919342,,,,,,,975.8813862919342,975.8813862919342,976.8653170000762,976.8909042091109,976.8909042091109,976.8909042091109,976.8909042091109,990.1711213749368,z,13.277193833841011,None,976.8909042091109,976.8909042091109,,,,,,,,YP_en,001,2025-04-03_13h30.03.286,MainFlow,2023.2.3,None,2025-04-03 13h30.17.997561 +0700,
2,2,9,3,word/worden0092.png,0,86,86,86,990.1812752499245,,,,,,,990.1812752499245,990.1812752499245,991.1654556670692,991.1878761250991,991.1878761250991,991.1878761250991,991.1878761250991,996.2873233340215,x,5.094727582996711,None,991.1878761250991,991.1878761250991,,,,,,,,YP_en,001,2025-04-03_13h30.03.286,MainFlow,2023.2.3,None,2025-04-03 13h30.17.997561 +0700,
2,2,6,3,word/worden0062.png,0,87,87,87,996.2983079170808,,,,,,,996.2983079170808,996.2983079170808,997.2705231250729,997.2925610421225,997.2925610421225,997.2925610421225,997.2925610421225,1003.1157971669454,x,5.820578041952103,None,,,,,,,,,,YP_en,001,2025-04-03_13h30.03.286,MainFlow,2023.2.3,None,2025-04-03 13h30.17.997561 +0700,
2,1,66,6,word/worden0661.png,0,88,88,88,1003.1239072501194,,,,,,,1003.1239072501194,1003.1239072501194,1004.0990302921273,1004.1207714169286,1004.1207714169286,1004.1207714169286,1004.1207714169286,1020.1380133340135,x,16.015960375079885,None,,,,,,,,,,YP_en,001,2025-04-03_13h30.03.286,MainFlow,2023.2.3,None,2025-04-03 13h30.17.997561 +0700,
2,2,30,4,word/worden0302.png,0,89,89,89,1020.1483566251118,,,,,,,1020.1483566251118,1020.1483566251118,1021.1323986670468,1021.1543126669712,1021.1543126669712,1021.1543126669712,1021.1543126669712,1036.5386027919594,x,15.382954250089824,None,1021.1543126669712,1021.1543126669712,,,,,,,,YP_en,001,2025-04-03_13h30.03.286,MainFlow,2023.2.3,None,2025-04-03 13h30.17.997561 +0700,
2,3,42,5,word/worden0423.png,0,90,90,90,1036.5482262920123,,,,,,,1036.5482262920123,1036.5482262920123,1037.5326654999517,1037.555106749991,1037.555106749991,1037.555106749991,1037.555106749991,1044.9164862500038,x,7.349584459094331,None,1037.555106749991,1037.555106749991,,,,,,,,YP_en,001,2025-04-03_13h30.03.286,MainFlow,2023.2.3,None,2025-04-03 13h30.17.997561 +0700,
2,2,50,5,word/worden0502.png,0,91,91,91,1044.9243103340268,,,,,,,1044.9243103340268,1044.9243103340268,1045.8995930841193,1045.9233720418997,1045.9233720418997,1045.9233720418997,1045.9233720418997,1052.4998915840406,x,6.5656538750045,None,,,,,,,,,,YP_en,001,2025-04-03_13h30.03.286,MainFlow,2023.2.3,None,2025-04-03 13h30.17.997561 +0700,
2,1,48,5,word/worden0481.png,0,92,92,92,1052.5080356250983,,,,,,,1052.5080356250983,1052.5080356250983,1053.4877711250447,1053.5095371669158,1053.5095371669158,1053.5095371669158,1053.5095371669158,1059.6667747918982,z,6.1472127919550985,None,,,,,,,,,,YP_en,001,2025-04-03_13h30.03.286,MainFlow,2023.2.3,None,2025-04-03 13h30.17.997561 +0700,
2,2,26,4,word/worden0262.png,0,93,93,93,1059.6744198340457,,,,,,,1059.6744198340457,1059.6744198340457,1060.65444174991,1060.6760360419285,1060.6760360419285,1060.6760360419285,1060.6760360419285,1065.8883614588995,x,5.208102209027857,None,,,,,,,,,,YP_en,001,2025-04-03_13h30.03.286,MainFlow,2023.2.3,None,2025-04-03 13h30.17.997561 +0700,
2,2,27,4,word/worden0272.png,0,94,94,94,1065.8990782089531,,,,,,,1065.8990782089531,1065.8990782089531,1066.8832152090035,1066.9055878750514,1066.9055878750514,1066.9055878750514,1066.9055878750514,1069.716555208899,x,2.8000012498814613,None,1066.9055878750514,1066.9055878750514,,,,,,,,YP_en,001,2025-04-03_13h30.03.286,MainFlow,2023.2.3,None,2025-04-03 13h30.17.997561 +0700,
2,3,10,3,word/worden0103.png,0,95,95,95,1069.7239849590696,,,,,,,1069.7239849590696,1069.7239849590696,1070.6998822090682,1070.7219739591237,1070.7219739591237,1070.7219739591237,1070.7219739591237,1082.1555214170367,x,11.432471874868497,None,,,,,,,,,,YP_en,001,2025-04-03_13h30.03.286,MainFlow,2023.2.3,None,2025-04-03 13h30.17.997561 +0700,
2,3,61,6,word/worden0613.png,0,96,96,96,1082.165663166903,,,,,,,1082.165663166903,1082.165663166903,1083.1499942920636,1083.172730792081,1083.172730792081,1083.172730792081,1083.172730792081,1099.7338789999485,x,16.550397250102833,None,1083.172730792081,1083.172730792081,,,,,,,,YP_en,001,2025-04-03_13h30.03.286,MainFlow,2023.2.3,None,2025-04-03 13h30.17.997561 +0700,
2,1,27,4,word/worden0271.png,0,97,97,97,1099.7424249169417,,,,,,,1099.7424249169417,1099.7424249169417,1100.7217311670538,1100.7463762499392,1100.7463762499392,1100.7463762499392,1100.7463762499392,1104.317085500108,z,3.5686447920743376,None,,,,,,,,,,YP_en,001,2025-04-03_13h30.03.286,MainFlow,2023.2.3,None,2025-04-03 13h30.17.997561 +0700,
2,3,24,4,word/worden0243.png,0,98,98,98,1104.3249439590145,,,,,,,1104.3249439590145,1104.3249439590145,1105.3044772499707,1105.3260357500985,1105.3260357500985,1105.3260357500985,1105.3260357500985,1116.6386328749359,x,11.308132624952123,None,,,,,,,,,,YP_en,001,2025-04-03_13h30.03.286,MainFlow,2023.2.3,None,2025-04-03 13h30.17.997561 +0700,
2,3,26,4,word/worden0263.png,0,99,99,99,1116.6494856670033,,,,,,,1116.6494856670033,1116.6494856670033,1117.63355912501,1117.6559527919162,1117.6559527919162,1117.6559527919162,1117.6559527919162,1124.5006959170569,x,6.834890832891688,None,1117.6559527919162,1117.6559527919162,,,,,,,,YP_en,001,2025-04-03_13h30.03.286,MainFlow,2023.2.3,None,2025-04-03 13h30.17.997561 +0700,
2,2,28,4,word/worden0282.png,0,100,100,100,1124.508908542106,,,,,,,1124.508908542106,1124.508908542106,1125.4885283750482,1125.5110393341165,1125.5110393341165,1125.5110393341165,1125.5110393341165,1129.3006872090045,x,3.7792809999082237,None,,,,,,,,,,YP_en,001,2025-04-03_13h30.03.286,MainFlow,2023.2.3,None,2025-04-03 13h30.17.997561 +0700,
2,3,9,3,word/worden0093.png,0,101,101,101,1129.3085688750725,,,,,,,1129.3085688750725,1129.3085688750725,1130.2838459589984,1130.306860208977,1130.306860208977,1130.306860208977,1130.306860208977,1138.8675019170623,x,8.551897458964959,None,,,,,,,,,,YP_en,001,2025-04-03_13h30.03.286,MainFlow,2023.2.3,None,2025-04-03 13h30.17.997561 +0700,
2,2,70,6,word/worden0702.png,0,102,102,102,1138.8757405420765,,,,,,,1138.8757405420765,1138.8757405420765,1139.855494583957,1139.8785207089968,1139.8785207089968,1139.8785207089968,1139.8785207089968,1150.4676324171014,x,10.581728584133089,None,,,,,,,,,,YP_en,001,2025-04-03_13h30.03.286,MainFlow,2023.2.3,None,2025-04-03 13h30.17.997561 +0700,
2,2,66,6,word/worden0662.png,0,103,103,103,1150.4754888750613,,,,,,,1150.4754888750613,1150.4754888750613,1151.45551883406,1151.4777837500442,1151.4777837500442,1151.4777837500442,1151.4777837500442,1152.4509749589488,x,0.9653925420716405,None,,,,,,,,,,YP_en,001,2025-04-03_13h30.03.286,MainFlow,2023.2.3,None,2025-04-03 13h30.17.997561 +0700,
2,2,42,5,word/worden0422.png,0,104,104,104,1152.4586736250203,,,,,,,1152.4586736250203,1152.4586736250203,1153.438947666902,1153.4615282500163,1153.4615282500163,1153.4615282500163,1153.4615282500163,1154.8512048339471,x,1.3822237919084728,None,,,,,,,,,,YP_en,001,2025-04-03_13h30.03.286,MainFlow,2023.2.3,None,2025-04-03 13h30.17.997561 +0700,
2,2,89,7,word/worden0892.png,0,105,105,105,1154.8594967089593,,,,,,,1154.8594967089593,1154.8594967089593,1155.8391546250787,1155.8621895420365,1155.8621895420365,1155.8621895420365,1155.8621895420365,1160.9343433750328,x,5.060788541100919,None,,,,,,,,,,YP_en,001,2025-04-03_13h30.03.286,MainFlow,2023.2.3,None,2025-04-03 13h30.17.997561 +0700,
2,2,87,7,word/worden0872.png,0,106,106,106,1160.9394042920321,,,,,,,1160.9394042920321,1160.9394042920321,1161.917609083932,1161.9401340000331,1161.9401340000331,1161.9401340000331,1161.9401340000331,1171.8063584999181,x,9.863438916858286,None,,,,,,,,,,YP_en,001,2025-04-03_13h30.03.286,MainFlow,2023.2.3,None,2025-04-03 13h30.17.997561 +0700,
2,1,26,4,word/worden0261.png,0,107,107,107,1171.8170282091014,,,,,,,1171.8170282091014,1171.8170282091014,1172.8009910420515,1172.8233620419633,1172.8233620419633,1172.8233620419633,1172.8233620419633,1176.2061139999423,z,3.3801283340435475,None,1172.8233620419633,1172.8233620419633,,,,,,,,YP_en,001,2025-04-03_13h30.03.286,MainFlow,2023.2.3,None,2025-04-03 13h30.17.997561 +0700,
2,1,50,5,word/worden0501.png,0,108,108,108,1176.2170982090756,,,,,,,1176.2170982090756,1176.2170982090756,1177.1892819590867,1177.2124695000239,1177.2124695000239,1177.2124695000239,1177.2124695000239,1190.3514849171042,z,13.136600625002757,None,,,,,,,,,,YP_en,001,2025-04-03_13h30.03.286,MainFlow,2023.2.3,None,2025-04-03 13h30.17.997561 +0700,
2,1,1,3,word/worden0011.png,0,109,109,109,1190.3594335420057,,,,,,,1190.3594335420057,1190.3594335420057,1191.339037500089,1191.3612171669956,1191.3612171669956,1191.3612171669956,1191.3612171669956,1193.2182019168977,z,1.851882416056469,None,,,,,,,,,,YP_en,001,2025-04-03_13h30.03.286,MainFlow,2023.2.3,None,2025-04-03 13h30.17.997561 +0700,
2,3,68,6,word/worden0683.png,0,110,110,110,1193.2257127920166,,,,,,,1193.2257127920166,1193.2257127920166,1194.2058837499935,1194.2296221670695,1194.2296221670695,1194.2296221670695,1194.2296221670695,1203.5213210841175,x,9.288624916924164,None,,,,,,,,,,YP_en,001,2025-04-03_13h30.03.286,MainFlow,2023.2.3,None,2025-04-03 13h30.17.997561 +0700,
2,2,1,3,word/worden0012.png,0,111,111,111,1203.528858334059,,,,,,,1203.528858334059,1203.528858334059,1204.5063888339791,1204.5289219589904,1204.5289219589904,1204.5289219589904,1204.5289219589904,1212.6735880419146,x,8.139810665976256,None,,,,,,,,,,YP_en,001,2025-04-03_13h30.03.286,MainFlow,2023.2.3,None,2025-04-03 13h30.17.997561 +0700,
2,2,71,6,word/worden0712.png,0,112,112,112,1212.6836287090555,,,,,,,1212.6836287090555,1212.6836287090555,1213.6680906249676,1213.69099500007,1213.69099500007,1213.69099500007,1213.69099500007,1219.940342084039,x,6.244754665996879,None,1213.69099500007,1213.69099500007,,,,,,,,YP_en,001,2025-04-03_13h30.03.286,MainFlow,2023.2.3,None,2025-04-03 13h30.17.997561 +0700,
2,3,44,5,word/worden0443.png,0,113,113,113,1219.9509762919042,,,,,,,1219.9509762919042,1219.9509762919042,1220.9349030000158,1220.9589163749479,1220.9589163749479,1220.9589163749479,1220.9589163749479,1237.0906597089488,x,16.127316209021956,None,1220.9589163749479,1220.9589163749479,,,,,,,,YP_en,001,2025-04-03_13h30.03.286,MainFlow,2023.2.3,None,2025-04-03 13h30.17.997561 +0700,
2,2,75,6,word/worden0752.png,0,114,114,114,1237.1008927091025,,,,,,,1237.1008927091025,1237.1008927091025,1238.084933541948,1238.107021874981,1238.107021874981,1238.107021874981,1238.107021874981,1244.2074875419494,x,6.097407000139356,None,1238.107021874981,1238.107021874981,,,,,,,,YP_en,001,2025-04-03_13h30.03.286,MainFlow,2023.2.3,None,2025-04-03 13h30.17.997561 +0700,
2,3,96,7,word/worden0963.png,0,115,115,115,1244.2174389169086,,,,,,,1244.2174389169086,1244.2174389169086,1245.2019811249338,1245.2250326250214,1245.2250326250214,1245.2250326250214,1245.2250326250214,1264.3689173751045,x,19.140668083913624,None,1245.2250326250214,1245.2250326250214,,,,,,,,YP_en,001,2025-04-03_13h30.03.286,MainFlow,2023.2.3,None,2025-04-03 13h30.17.997561 +0700,
2,1,70,6,word/worden0701.png,0,116,116,116,1264.3767830000725,,,,,,,1264.3767830000725,1264.3767830000725,1265.3520599589683,1265.3746847091243,1265.3746847091243,1265.3746847091243,1265.3746847091243,1272.8358276670333,z,7.455578041030094,None,,,,,,,,,,YP_en,001,2025-04-03_13h30.03.286,MainFlow,2023.2.3,None,2025-04-03 13h30.17.997561 +0700,
2,2,10,3,word/worden0102.png,0,117,117,117,1272.843643374974,,,,,,,1272.843643374974,1272.843643374974,1273.8237614589743,1273.8463600000832,1273.8463600000832,1273.8463600000832,1273.8463600000832,1277.0078815000597,x,3.1598787910770625,None,,,,,,,,,,YP_en,001,2025-04-03_13h30.03.286,MainFlow,2023.2.3,None,2025-04-03 13h30.17.997561 +0700,
2,3,27,4,word/worden0273.png,0,118,118,118,1277.0180617091246,,,,,,,1277.0180617091246,1277.0180617091246,1278.002531416947,1278.0275347500574,1278.0275347500574,1278.0275347500574,1278.0275347500574,1300.9361278750002,x,22.899812916992232,None,1278.0275347500574,1278.0275347500574,,,,,,,,YP_en,001,2025-04-03_13h30.03.286,MainFlow,2023.2.3,None,2025-04-03 13h30.17.997561 +0700,
2,1,23,4,word/worden0231.png,0,119,119,119,1300.9438666249625,,,,,,,1300.9438666249625,1300.9438666249625,1301.9237890839577,1301.9467207919806,1301.9467207919806,1301.9467207919806,1301.9467207919806,1316.102877666941,x,14.148720874916762,None,,,,,,,,,,YP_en,001,2025-04-03_13h30.03.286,MainFlow,2023.2.3,None,2025-04-03 13h30.17.997561 +0700,
,,,,,,,,,,,,,,,,,,,,,,,,,,,,,1316.1031927498989,1316.1098710000515,1316.1098710000515,1323.0247929589823,space,6.9133027088828385,None,YP_en,001,2025-04-03_13h30.03.286,MainFlow,2023.2.3,None,2025-04-03 13h30.17.997561 +0700,
