lang,stimuli,imageid,worddir,word_length,trials.thisRepN,trials.thisTrialN,trials.thisN,trials.thisIndex,thisRow.t,notes,tutorial.started,tutorial.stopped,key_instruct.keys,key_instruct.rt,key_instruct.duration,instructblank.started,cross1.started,letterselect.started,imageword.started,text_2.started,cross2.started,key_resp.started,letterselect.stopped,key_resp.keys,key_resp.rt,key_resp.duration,instructblank.stopped,cross1.stopped,ending.started,text_3.started,ending_key.started,ending.stopped,ending_key.keys,ending_key.rt,ending_key.duration,participant,session,date,expName,psychopyVersion,frameRate,expStart
,,,,,,,,,,,0.00417,7.6510285,space,7.599282541,None,,,,,,,,,,,,,,,,,,,,,ypen,1,2025-05-29_13h28.21.359,MainFlow,2024.1.5,None,2025-05-29 13h28.30.721906 +0700
2,1,66,word/worden0661.png,6,0,0,0,0,7.690716333,,,,,,,7.690716333,7.690716333,8.641551667,8.678479792,8.678479792,8.678479792,8.678479792,9.908980375,x,1.225602917,None,,,,,,,,,,ypen,1,2025-05-29_13h28.21.359,MainFlow,2024.1.5,None,2025-05-29 13h28.30.721906 +0700
2,1,3,word/worden0031.png,3,0,1,1,1,9.916461208,,,,,,,9.916461208,9.916461208,10.89613658,10.92015725,10.92015725,10.92015725,10.92015725,11.98296887,z,1.055438791,None,,,,,,,,,,ypen,1,2025-05-29_13h28.21.359,MainFlow,2024.1.5,None,2025-05-29 13h28.30.721906 +0700
2,2,71,word/worden0712.png,6,0,2,2,2,11.991034,,,,,,,11.991034,11.991034,12.97498762,12.99982408,12.99982408,12.99982408,12.99982408,14.37565342,x,1.368089708,None,12.99982408,12.99982408,,,,,,,,ypen,1,2025-05-29_13h28.21.359,MainFlow,2024.1.5,None,2025-05-29 13h28.30.721906 +0700
2,3,27,word/worden0273.png,4,0,3,3,3,14.38291004,,,,,,,14.38291004,14.38291004,15.362622,15.38526421,15.38526421,15.38526421,15.38526421,19.33003671,x,3.941805125,None,,,,,,,,,,ypen,1,2025-05-29_13h28.21.359,MainFlow,2024.1.5,None,2025-05-29 13h28.30.721906 +0700
2,3,88,word/worden0883.png,7,0,4,4,4,19.34223571,,,,,,,19.34223571,19.34223571,20.32485075,20.34760529,20.34760529,20.34760529,20.34760529,21.09205804,x,0.740050708,None,,,,,,,,,,ypen,1,2025-05-29_13h28.21.359,MainFlow,2024.1.5,None,2025-05-29 13h28.30.721906 +0700
2,1,28,word/worden0281.png,4,0,5,5,5,21.09919954,,,,,,,21.09919954,21.09919954,22.07891329,22.10424029,22.10424029,22.10424029,22.10424029,27.59927283,z,5.48755575,None,,,,,,,,,,ypen,1,2025-05-29_13h28.21.359,MainFlow,2024.1.5,None,2025-05-29 13h28.30.721906 +0700
2,1,50,word/worden0501.png,5,0,6,6,6,27.607608,,,,,,,27.607608,27.607608,28.59139925,28.61493554,28.61493554,28.61493554,28.61493554,38.69707512,z,10.08069275,None,28.61493554,28.61493554,,,,,,,,ypen,1,2025-05-29_13h28.21.359,MainFlow,2024.1.5,None,2025-05-29 13h28.30.721906 +0700
2,1,41,word/worden0411.png,5,0,7,7,7,38.70692567,,,,,,,38.70692567,38.70692567,39.69140946,39.71483017,39.71483017,39.71483017,39.71483017,48.28067121,z,8.564493584,None,39.71483017,39.71483017,,,,,,,,ypen,1,2025-05-29_13h28.21.359,MainFlow,2024.1.5,None,2025-05-29 13h28.30.721906 +0700
2,2,52,word/worden0522.png,5,0,8,8,8,48.29070554,,,,,,,48.29070554,48.29070554,49.27483792,49.30015121,49.30015121,49.30015121,49.30015121,56.24204588,x,6.939980375,None,49.30015121,49.30015121,,,,,,,,ypen,1,2025-05-29_13h28.21.359,MainFlow,2024.1.5,None,2025-05-29 13h28.30.721906 +0700
2,3,6,word/worden0063.png,3,0,9,9,9,56.249077,,,,,,,56.249077,56.249077,57.22874587,57.25162783,57.25162783,57.25162783,57.25162783,58.74673688,x,1.492554458,None,,,,,,,,,,ypen,1,2025-05-29_13h28.21.359,MainFlow,2024.1.5,None,2025-05-29 13h28.30.721906 +0700
2,3,46,word/worden0463.png,5,0,10,10,10,58.75771433,,,,,,,58.75771433,58.75771433,59.74126133,59.76393187,59.76393187,59.76393187,59.76393187,71.69189792,x,11.92466154,None,59.76393187,59.76393187,,,,,,,,ypen,1,2025-05-29_13h28.21.359,MainFlow,2024.1.5,None,2025-05-29 13h28.30.721906 +0700
2,2,30,word/worden0302.png,4,0,11,11,11,71.69897787,,,,,,,71.69897787,71.69897787,72.67910771,72.70264662,72.70264662,72.70264662,72.70264662,73.56310267,x,0.856915084,None,,,,,,,,,,ypen,1,2025-05-29_13h28.21.359,MainFlow,2024.1.5,None,2025-05-29 13h28.30.721906 +0700
2,2,46,word/worden0462.png,5,0,12,12,12,73.57417392,,,,,,,73.57417392,73.57417392,74.55789237,74.58153046,74.58153046,74.58153046,74.58153046,75.2253575,x,0.633982958,None,74.58153046,74.58153046,,,,,,,,ypen,1,2025-05-29_13h28.21.359,MainFlow,2024.1.5,None,2025-05-29 13h28.30.721906 +0700
2,2,70,word/worden0702.png,6,0,13,13,13,75.23218117,,,,,,,75.23218117,75.23218117,76.20936308,76.22510037,76.22510037,76.22510037,76.22510037,77.16321258,x,0.933792666,None,,,,,,,,,,ypen,1,2025-05-29_13h28.21.359,MainFlow,2024.1.5,None,2025-05-29 13h28.30.721906 +0700
2,1,70,word/worden0701.png,6,0,14,14,14,77.17315825,,,,,,,77.17315825,77.17315825,78.15727862,78.173522,78.173522,78.173522,78.173522,86.55836529,z,8.378695125,None,78.173522,78.173522,,,,,,,,ypen,1,2025-05-29_13h28.21.359,MainFlow,2024.1.5,None,2025-05-29 13h28.30.721906 +0700
2,1,8,word/worden0081.png,3,0,15,15,15,86.5655795,,,,,,,86.5655795,86.5655795,87.54527167,87.56887187,87.56887187,87.56887187,87.56887187,100.1250626,z,12.55137942,None,,,,,,,,,,ypen,1,2025-05-29_13h28.21.359,MainFlow,2024.1.5,None,2025-05-29 13h28.30.721906 +0700
2,3,61,word/worden0613.png,6,0,16,16,16,100.1322225,,,,,,,100.1322225,100.1322225,101.1120044,101.1345933,101.1345933,101.1345933,101.1345933,103.5658175,x,2.424540708,None,,,,,,,,,,ypen,1,2025-05-29_13h28.21.359,MainFlow,2024.1.5,None,2025-05-29 13h28.30.721906 +0700
2,3,10,word/worden0103.png,3,0,17,17,17,103.5738877,,,,,,,103.5738877,103.5738877,104.5575987,104.5813504,104.5813504,104.5813504,104.5813504,112.6156017,x,8.027489292,None,104.5813504,104.5813504,,,,,,,,ypen,1,2025-05-29_13h28.21.359,MainFlow,2024.1.5,None,2025-05-29 13h28.30.721906 +0700
2,3,75,word/worden0753.png,6,0,18,18,18,112.6237976,,,,,,,112.6237976,112.6237976,113.6075914,113.6315174,113.6315174,113.6315174,113.6315174,114.4416383,x,0.799847334,None,113.6315174,113.6315174,,,,,,,,ypen,1,2025-05-29_13h28.21.359,MainFlow,2024.1.5,None,2025-05-29 13h28.30.721906 +0700
2,2,63,word/worden0632.png,6,0,19,19,19,114.448865,,,,,,,114.448865,114.448865,115.4284053,115.450995,115.450995,115.450995,115.450995,116.4486369,x,0.990010542,None,,,,,,,,,,ypen,1,2025-05-29_13h28.21.359,MainFlow,2024.1.5,None,2025-05-29 13h28.30.721906 +0700
2,3,11,word/worden0113.png,3,0,20,20,20,116.4572707,,,,,,,116.4572707,116.4572707,117.4408972,117.4641859,117.4641859,117.4641859,117.4641859,119.7247799,x,2.255201709,None,117.4641859,117.4641859,,,,,,,,ypen,1,2025-05-29_13h28.21.359,MainFlow,2024.1.5,None,2025-05-29 13h28.30.721906 +0700
2,2,89,word/worden0892.png,7,0,21,21,21,119.7319053,,,,,,,119.7319053,119.7319053,120.7123105,120.7369281,120.7369281,120.7369281,120.7369281,121.8582611,x,1.118588667,None,,,,,,,,,,ypen,1,2025-05-29_13h28.21.359,MainFlow,2024.1.5,None,2025-05-29 13h28.30.721906 +0700
2,1,9,word/worden0091.png,3,0,22,22,22,121.8654377,,,,,,,121.8654377,121.8654377,122.8452907,122.8683557,122.8683557,122.8683557,122.8683557,126.4583365,z,3.578768416,None,,,,,,,,,,ypen,1,2025-05-29_13h28.21.359,MainFlow,2024.1.5,None,2025-05-29 13h28.30.721906 +0700
2,3,28,word/worden0283.png,4,0,23,23,23,126.4630943,,,,,,,126.4630943,126.4630943,127.4448662,127.4684832,127.4684832,127.4684832,127.4684832,132.7248932,x,5.251218625,None,,,,,,,,,,ypen,1,2025-05-29_13h28.21.359,MainFlow,2024.1.5,None,2025-05-29 13h28.30.721906 +0700
2,1,82,word/worden0821.png,7,0,24,24,24,132.7320505,,,,,,,132.7320505,132.7320505,133.7116026,133.7344099,133.7344099,133.7344099,133.7344099,146.7249221,z,12.98541908,None,,,,,,,,,,ypen,1,2025-05-29_13h28.21.359,MainFlow,2024.1.5,None,2025-05-29 13h28.30.721906 +0700
2,2,28,word/worden0282.png,4,0,25,25,25,146.7319457,,,,,,,146.7319457,146.7319457,147.7114242,147.736358,147.736358,147.736358,147.736358,156.1983843,x,8.454895166,None,,,,,,,,,,ypen,1,2025-05-29_13h28.21.359,MainFlow,2024.1.5,None,2025-05-29 13h28.30.721906 +0700
2,1,23,word/worden0231.png,4,0,26,26,26,156.2068417,,,,,,,156.2068417,156.2068417,157.1906519,157.2148072,157.2148072,157.2148072,157.2148072,164.1294436,z,6.912809083,None,157.2148072,157.2148072,,,,,,,,ypen,1,2025-05-29_13h28.21.359,MainFlow,2024.1.5,None,2025-05-29 13h28.30.721906 +0700
2,2,42,word/worden0422.png,5,0,27,27,27,164.1403193,,,,,,,164.1403193,164.1403193,165.124018,165.147418,165.147418,165.147418,165.147418,165.9913892,x,0.836189625,None,165.147418,165.147418,,,,,,,,ypen,1,2025-05-29_13h28.21.359,MainFlow,2024.1.5,None,2025-05-29 13h28.30.721906 +0700
2,2,93,word/worden0932.png,7,0,28,28,28,165.9983778,,,,,,,165.9983778,165.9983778,166.9778909,167.0009761,167.0009761,167.0009761,167.0009761,171.3578127,x,4.3505345,None,,,,,,,,,,ypen,1,2025-05-29_13h28.21.359,MainFlow,2024.1.5,None,2025-05-29 13h28.30.721906 +0700
2,1,88,word/worden0881.png,7,0,29,29,29,171.3648686,,,,,,,171.3648686,171.3648686,172.3452324,172.3696934,172.3696934,172.3696934,172.3696934,173.6746465,x,1.292524667,None,,,,,,,,,,ypen,1,2025-05-29_13h28.21.359,MainFlow,2024.1.5,None,2025-05-29 13h28.30.721906 +0700
2,3,31,word/worden0313.png,4,0,30,30,30,173.6791238,,,,,,,173.6791238,173.6791238,174.6613595,174.6841905,174.6841905,174.6841905,174.6841905,184.7245863,x,10.03534992,None,,,,,,,,,,ypen,1,2025-05-29_13h28.21.359,MainFlow,2024.1.5,None,2025-05-29 13h28.30.721906 +0700
2,2,75,word/worden0752.png,6,0,31,31,31,184.7318854,,,,,,,184.7318854,184.7318854,185.711619,185.7365958,185.7365958,185.7365958,185.7365958,197.7411724,x,11.99831896,None,,,,,,,,,,ypen,1,2025-05-29_13h28.21.359,MainFlow,2024.1.5,None,2025-05-29 13h28.30.721906 +0700
2,2,48,word/worden0482.png,5,0,32,32,32,197.7483763,,,,,,,197.7483763,197.7483763,198.7277792,198.7509254,198.7509254,198.7509254,198.7509254,206.6479049,x,7.889975541,None,,,,,,,,,,ypen,1,2025-05-29_13h28.21.359,MainFlow,2024.1.5,None,2025-05-29 13h28.30.721906 +0700
2,1,26,word/worden0261.png,4,0,33,33,33,206.656718,,,,,,,206.656718,206.656718,207.6405855,207.6672287,207.6672287,207.6672287,207.6672287,210.2576187,z,2.579028791,None,207.6672287,207.6672287,,,,,,,,ypen,1,2025-05-29_13h28.21.359,MainFlow,2024.1.5,None,2025-05-29 13h28.30.721906 +0700
2,2,41,word/worden0412.png,5,0,34,34,34,210.26203,,,,,,,210.26203,210.26203,211.2442976,211.2677862,211.2677862,211.2677862,211.2677862,216.5624209,x,5.291515375,None,,,,,,,,,,ypen,1,2025-05-29_13h28.21.359,MainFlow,2024.1.5,None,2025-05-29 13h28.30.721906 +0700
2,3,66,word/worden0663.png,6,0,35,35,35,216.573221,,,,,,,216.573221,216.573221,217.5572108,217.5825487,217.5825487,217.5825487,217.5825487,218.4909607,x,0.904905917,None,217.5825487,217.5825487,,,,,,,,ypen,1,2025-05-29_13h28.21.359,MainFlow,2024.1.5,None,2025-05-29 13h28.30.721906 +0700
2,1,6,word/worden0061.png,3,0,36,36,36,218.4979367,,,,,,,218.4979367,218.4979367,219.4781546,219.5008801,219.5008801,219.5008801,219.5008801,222.2573662,z,2.745814125,None,,,,,,,,,,ypen,1,2025-05-29_13h28.21.359,MainFlow,2024.1.5,None,2025-05-29 13h28.30.721906 +0700
2,1,42,word/worden0421.png,5,0,37,37,37,222.2645608,,,,,,,222.2645608,222.2645608,223.2403692,223.2641286,223.2641286,223.2641286,223.2641286,229.5129032,z,6.247431084,None,,,,,,,,,,ypen,1,2025-05-29_13h28.21.359,MainFlow,2024.1.5,None,2025-05-29 13h28.30.721906 +0700
2,3,41,word/worden0413.png,5,0,38,38,38,229.5231647,,,,,,,229.5231647,229.5231647,230.5070261,230.5308364,230.5308364,230.5308364,230.5308364,238.5409653,x,8.004696875,None,230.5308364,230.5308364,,,,,,,,ypen,1,2025-05-29_13h28.21.359,MainFlow,2024.1.5,None,2025-05-29 13h28.30.721906 +0700
2,2,23,word/worden0232.png,4,0,39,39,39,238.548598,,,,,,,238.548598,238.548598,239.5281064,239.5513701,239.5513701,239.5513701,239.5513701,246.0907468,x,6.527522375,None,,,,,,,,,,ypen,1,2025-05-29_13h28.21.359,MainFlow,2024.1.5,None,2025-05-29 13h28.30.721906 +0700
2,3,96,word/worden0963.png,7,0,40,40,40,246.0952607,,,,,,,246.0952607,246.0952607,247.0780041,247.1014595,247.1014595,247.1014595,247.1014595,257.047725,x,9.939251291,None,247.1014595,247.1014595,,,,,,,,ypen,1,2025-05-29_13h28.21.359,MainFlow,2024.1.5,None,2025-05-29 13h28.30.721906 +0700
2,1,61,word/worden0611.png,6,0,41,41,41,257.0564504,,,,,,,257.0564504,257.0564504,258.0401545,258.0644773,258.0644773,258.0644773,258.0644773,292.6738925,z,34.59827258,None,258.0644773,258.0644773,,,,,,,,ypen,1,2025-05-29_13h28.21.359,MainFlow,2024.1.5,None,2025-05-29 13h28.30.721906 +0700
2,3,9,word/worden0093.png,3,0,42,42,42,292.6785653,,,,,,,292.6785653,292.6785653,293.6609738,293.6841451,293.6841451,293.6841451,293.6841451,301.74504,x,8.058683542,None,,,,,,,,,,ypen,1,2025-05-29_13h28.21.359,MainFlow,2024.1.5,None,2025-05-29 13h28.30.721906 +0700
2,3,63,word/worden0633.png,6,0,43,43,43,301.7561888,,,,,,,301.7561888,301.7561888,302.739921,302.763626,302.763626,302.763626,302.763626,325.1068636,x,22.33154654,None,302.763626,302.763626,,,,,,,,ypen,1,2025-05-29_13h28.21.359,MainFlow,2024.1.5,None,2025-05-29 13h28.30.721906 +0700
2,3,50,word/worden0503.png,5,0,44,44,44,325.1114202,,,,,,,325.1114202,325.1114202,326.089884,326.1140071,326.1140071,326.1140071,326.1140071,331.6402444,x,5.516304875,None,,,,,,,,,,ypen,1,2025-05-29_13h28.21.359,MainFlow,2024.1.5,None,2025-05-29 13h28.30.721906 +0700
2,2,27,word/worden0272.png,4,0,45,45,45,331.6472715,,,,,,,331.6472715,331.6472715,332.6272128,332.6496715,332.6496715,332.6496715,332.6496715,335.0237078,x,2.366388,None,,,,,,,,,,ypen,1,2025-05-29_13h28.21.359,MainFlow,2024.1.5,None,2025-05-29 13h28.30.721906 +0700
2,2,61,word/worden0612.png,6,0,46,46,46,335.0312474,,,,,,,335.0312474,335.0312474,336.0104476,336.0338248,336.0338248,336.0338248,336.0338248,342.3899588,x,6.349519625,None,,,,,,,,,,ypen,1,2025-05-29_13h28.21.359,MainFlow,2024.1.5,None,2025-05-29 13h28.30.721906 +0700
2,3,7,word/worden0073.png,3,0,47,47,47,342.396912,,,,,,,342.396912,342.396912,343.3729046,343.3963544,343.3963544,343.3963544,343.3963544,348.8234245,z,5.419354875,None,,,,,,,,,,ypen,1,2025-05-29_13h28.21.359,MainFlow,2024.1.5,None,2025-05-29 13h28.30.721906 +0700
2,3,23,word/worden0233.png,4,0,48,48,48,348.830471,,,,,,,348.830471,348.830471,349.8106025,349.8343837,349.8343837,349.8343837,349.8343837,356.906977,x,7.060505542,None,,,,,,,,,,ypen,1,2025-05-29_13h28.21.359,MainFlow,2024.1.5,None,2025-05-29 13h28.30.721906 +0700
2,1,95,word/worden0951.png,7,0,49,49,49,356.9113715,,,,,,,356.9113715,356.9113715,357.8935675,357.9162463,357.9162463,357.9162463,357.9162463,358.8901577,x,0.962016209,None,,,,,,,,,,ypen,1,2025-05-29_13h28.21.359,MainFlow,2024.1.5,None,2025-05-29 13h28.30.721906 +0700
2,3,42,word/worden0423.png,5,0,50,50,50,358.8945249,,,,,,,358.8945249,358.8945249,359.8774379,359.900793,359.900793,359.900793,359.900793,366.5118148,x,6.609676416,None,359.900793,359.900793,,,,,,,,ypen,1,2025-05-29_13h28.21.359,MainFlow,2024.1.5,None,2025-05-29 13h28.30.721906 +0700
2,1,30,word/worden0301.png,4,0,51,51,51,366.5223317,,,,,,,366.5223317,366.5223317,367.50635,367.5307195,367.5307195,367.5307195,367.5307195,377.8901877,z,10.35732787,None,367.5307195,367.5307195,,,,,,,,ypen,1,2025-05-29_13h28.21.359,MainFlow,2024.1.5,None,2025-05-29 13h28.30.721906 +0700
2,3,87,word/worden0873.png,7,0,52,52,52,377.897217,,,,,,,377.897217,377.897217,378.8774874,378.9019198,378.9019198,378.9019198,378.9019198,398.2565642,x,19.34510233,None,,,,,,,,,,ypen,1,2025-05-29_13h28.21.359,MainFlow,2024.1.5,None,2025-05-29 13h28.30.721906 +0700
2,2,6,word/worden0062.png,3,0,53,53,53,398.2638834,,,,,,,398.2638834,398.2638834,399.2438492,399.2672242,399.2672242,399.2672242,399.2672242,401.5284262,x,2.259858167,None,,,,,,,,,,ypen,1,2025-05-29_13h28.21.359,MainFlow,2024.1.5,None,2025-05-29 13h28.30.721906 +0700
2,2,68,word/worden0682.png,6,0,54,54,54,401.5388024,,,,,,,401.5388024,401.5388024,402.522662,402.5471198,402.5471198,402.5471198,402.5471198,405.6566836,x,3.099574,None,402.5471198,402.5471198,,,,,,,,ypen,1,2025-05-29_13h28.21.359,MainFlow,2024.1.5,None,2025-05-29 13h28.30.721906 +0700
2,3,1,word/worden0013.png,3,0,55,55,55,405.663971,,,,,,,405.663971,405.663971,406.6433223,406.6663882,406.6663882,406.6663882,406.6663882,415.4897602,x,8.811729541,None,,,,,,,,,,ypen,1,2025-05-29_13h28.21.359,MainFlow,2024.1.5,None,2025-05-29 13h28.30.721906 +0700
2,2,94,word/worden0942.png,7,0,56,56,56,415.4941592,,,,,,,415.4941592,415.4941592,416.4767025,416.4999879,416.4999879,416.4999879,416.4999879,421.5899845,x,5.08327075,None,,,,,,,,,,ypen,1,2025-05-29_13h28.21.359,MainFlow,2024.1.5,None,2025-05-29 13h28.30.721906 +0700
2,3,82,word/worden0823.png,7,0,57,57,57,421.5972543,,,,,,,421.5972543,421.5972543,422.5771969,422.6016865,422.6016865,422.6016865,422.6016865,443.0815194,x,20.47078713,None,,,,,,,,,,ypen,1,2025-05-29_13h28.21.359,MainFlow,2024.1.5,None,2025-05-29 13h28.30.721906 +0700
2,1,89,word/worden0891.png,7,0,58,58,58,443.0876226,,,,,,,443.0876226,443.0876226,444.0723343,444.0963264,444.0963264,444.0963264,444.0963264,453.623245,z,9.51874525,None,444.0963264,444.0963264,,,,,,,,ypen,1,2025-05-29_13h28.21.359,MainFlow,2024.1.5,None,2025-05-29 13h28.30.721906 +0700
2,1,31,word/worden0311.png,4,0,59,59,59,453.630693,,,,,,,453.630693,453.630693,454.6096785,454.6337352,454.6337352,454.6337352,454.6337352,458.863376,z,4.222655458,None,,,,,,,,,,ypen,1,2025-05-29_13h28.21.359,MainFlow,2024.1.5,None,2025-05-29 13h28.30.721906 +0700
2,2,51,word/worden0512.png,5,0,60,60,60,458.8719469,,,,,,,458.8719469,458.8719469,459.855647,459.8793268,459.8793268,459.8793268,459.8793268,461.6561766,x,1.767867292,None,459.8793268,459.8793268,,,,,,,,ypen,1,2025-05-29_13h28.21.359,MainFlow,2024.1.5,None,2025-05-29 13h28.30.721906 +0700
2,3,44,word/worden0443.png,5,0,61,61,61,461.6631611,,,,,,,461.6631611,461.6631611,462.643124,462.6668944,462.6668944,462.6668944,462.6668944,473.4896817,x,10.82092858,None,,,,,,,,,,ypen,1,2025-05-29_13h28.21.359,MainFlow,2024.1.5,None,2025-05-29 13h28.30.721906 +0700
2,1,1,word/worden0011.png,3,0,62,62,62,473.4969244,,,,,,,473.4969244,473.4969244,474.4763035,474.4988551,474.4988551,474.4988551,474.4988551,476.4727192,z,1.963350791,None,,,,,,,,,,ypen,1,2025-05-29_13h28.21.359,MainFlow,2024.1.5,None,2025-05-29 13h28.30.721906 +0700
2,1,96,word/worden0961.png,7,0,63,63,63,476.4798336,,,,,,,476.4798336,476.4798336,477.4600612,477.485164,477.485164,477.485164,477.485164,493.0894524,x,15.59326058,None,,,,,,,,,,ypen,1,2025-05-29_13h28.21.359,MainFlow,2024.1.5,None,2025-05-29 13h28.30.721906 +0700
2,1,11,word/worden0111.png,3,0,64,64,64,493.0969801,,,,,,,493.0969801,493.0969801,494.07671,494.1009224,494.1009224,494.1009224,494.1009224,501.4635175,z,7.355535209,None,,,,,,,,,,ypen,1,2025-05-29_13h28.21.359,MainFlow,2024.1.5,None,2025-05-29 13h28.30.721906 +0700
2,3,70,word/worden0703.png,6,0,65,65,65,501.4715786,,,,,,,501.4715786,501.4715786,502.4554546,502.4795612,502.4795612,502.4795612,502.4795612,524.9055563,x,22.42341829,None,502.4795612,502.4795612,,,,,,,,ypen,1,2025-05-29_13h28.21.359,MainFlow,2024.1.5,None,2025-05-29 13h28.30.721906 +0700
2,3,71,word/worden0713.png,6,0,66,66,66,524.9124573,,,,,,,524.9124573,524.9124573,525.8884829,525.9125597,525.9125597,525.9125597,525.9125597,527.2394211,x,1.318111125,None,,,,,,,,,,ypen,1,2025-05-29_13h28.21.359,MainFlow,2024.1.5,None,2025-05-29 13h28.30.721906 +0700
2,1,68,word/worden0681.png,6,0,67,67,67,527.2471555,,,,,,,527.2471555,527.2471555,528.2268688,528.2502602,528.2502602,528.2502602,528.2502602,533.5058177,z,5.252582208,None,,,,,,,,,,ypen,1,2025-05-29_13h28.21.359,MainFlow,2024.1.5,None,2025-05-29 13h28.30.721906 +0700
2,2,88,word/worden0882.png,7,0,68,68,68,533.5126918,,,,,,,533.5126918,533.5126918,534.4925742,534.5157565,534.5157565,534.5157565,534.5157565,536.5722273,x,2.050052083,None,,,,,,,,,,ypen,1,2025-05-29_13h28.21.359,MainFlow,2024.1.5,None,2025-05-29 13h28.30.721906 +0700
2,2,50,word/worden0502.png,5,0,69,69,69,536.579932,,,,,,,536.579932,536.579932,537.559405,537.5827092,537.5827092,537.5827092,537.5827092,543.7725764,x,6.183909458,None,,,,,,,,,,ypen,1,2025-05-29_13h28.21.359,MainFlow,2024.1.5,None,2025-05-29 13h28.30.721906 +0700
2,3,93,word/worden0933.png,7,0,70,70,70,543.7802338,,,,,,,543.7802338,543.7802338,544.7597364,544.7835483,544.7835483,544.7835483,544.7835483,551.6270892,x,6.840089375,None,,,,,,,,,,ypen,1,2025-05-29_13h28.21.359,MainFlow,2024.1.5,None,2025-05-29 13h28.30.721906 +0700
2,1,63,word/worden0631.png,6,0,71,71,71,551.6380131,,,,,,,551.6380131,551.6380131,552.6217034,552.6446001,552.6446001,552.6446001,552.6446001,555.360516,z,2.713918625,None,552.6446001,552.6446001,,,,,,,,ypen,1,2025-05-29_13h28.21.359,MainFlow,2024.1.5,None,2025-05-29 13h28.30.721906 +0700
2,2,7,word/worden0072.png,3,0,72,72,72,555.3713942,,,,,,,555.3713942,555.3713942,556.3551152,556.3790257,556.3790257,556.3790257,556.3790257,565.6296133,x,9.242895,None,556.3790257,556.3790257,,,,,,,,ypen,1,2025-05-29_13h28.21.359,MainFlow,2024.1.5,None,2025-05-29 13h28.30.721906 +0700
2,2,64,word/worden0642.png,6,0,73,73,73,565.637721,,,,,,,565.637721,565.637721,566.6215812,566.6445279,566.6445279,566.6445279,566.6445279,574.3222367,x,7.666718209,None,566.6445279,566.6445279,,,,,,,,ypen,1,2025-05-29_13h28.21.359,MainFlow,2024.1.5,None,2025-05-29 13h28.30.721906 +0700
2,1,24,word/worden0241.png,4,0,74,74,74,574.3297436,,,,,,,574.3297436,574.3297436,575.309556,575.3328045,575.3328045,575.3328045,575.3328045,579.20561,z,3.865621667,None,,,,,,,,,,ypen,1,2025-05-29_13h28.21.359,MainFlow,2024.1.5,None,2025-05-29 13h28.30.721906 +0700
2,2,1,word/worden0012.png,3,0,75,75,75,579.212674,,,,,,,579.212674,579.212674,580.1927989,580.2163703,580.2163703,580.2163703,580.2163703,585.1554945,x,4.93431075,None,,,,,,,,,,ypen,1,2025-05-29_13h28.21.359,MainFlow,2024.1.5,None,2025-05-29 13h28.30.721906 +0700
2,1,46,word/worden0461.png,5,0,76,76,76,585.1623384,,,,,,,585.1623384,585.1623384,586.1427245,586.1658423,586.1658423,586.1658423,586.1658423,595.8221255,x,9.649363959,None,,,,,,,,,,ypen,1,2025-05-29_13h28.21.359,MainFlow,2024.1.5,None,2025-05-29 13h28.30.721906 +0700
2,3,52,word/worden0523.png,5,0,77,77,77,595.8294504,,,,,,,595.8294504,595.8294504,596.8089167,596.8314417,596.8314417,596.8314417,596.8314417,607.4794099,x,10.64095508,None,,,,,,,,,,ypen,1,2025-05-29_13h28.21.359,MainFlow,2024.1.5,None,2025-05-29 13h28.30.721906 +0700
2,2,31,word/worden0312.png,4,0,78,78,78,607.4877791,,,,,,,607.4877791,607.4877791,608.4715513,608.4959296,608.4959296,608.4959296,608.4959296,612.9382739,x,4.430276042,None,608.4959296,608.4959296,,,,,,,,ypen,1,2025-05-29_13h28.21.359,MainFlow,2024.1.5,None,2025-05-29 13h28.30.721906 +0700
2,2,95,word/worden0952.png,7,0,79,79,79,612.9426087,,,,,,,612.9426087,612.9426087,613.9213812,613.94471,613.94471,613.94471,613.94471,625.9051852,x,11.95843983,None,,,,,,,,,,ypen,1,2025-05-29_13h28.21.359,MainFlow,2024.1.5,None,2025-05-29 13h28.30.721906 +0700
2,1,93,word/worden0931.png,7,0,80,80,80,625.9120985,,,,,,,625.9120985,625.9120985,626.8924843,626.9163174,626.9163174,626.9163174,626.9163174,643.5051014,z,16.58629404,None,,,,,,,,,,ypen,1,2025-05-29_13h28.21.359,MainFlow,2024.1.5,None,2025-05-29 13h28.30.721906 +0700
2,1,71,word/worden0711.png,6,0,81,81,81,643.5125511,,,,,,,643.5125511,643.5125511,644.4923158,644.5153751,644.5153751,644.5153751,644.5153751,645.9383152,z,1.420346792,None,,,,,,,,,,ypen,1,2025-05-29_13h28.21.359,MainFlow,2024.1.5,None,2025-05-29 13h28.30.721906 +0700
2,1,48,word/worden0481.png,5,0,82,82,82,645.9455705,,,,,,,645.9455705,645.9455705,646.9213152,646.9454924,646.9454924,646.9454924,646.9454924,664.5886435,x,17.63620483,None,,,,,,,,,,ypen,1,2025-05-29_13h28.21.359,MainFlow,2024.1.5,None,2025-05-29 13h28.30.721906 +0700
2,1,94,word/worden0941.png,7,0,83,83,83,664.5958547,,,,,,,664.5958547,664.5958547,665.5757325,665.5997563,665.5997563,665.5997563,665.5997563,670.7549247,z,5.151277833,None,,,,,,,,,,ypen,1,2025-05-29_13h28.21.359,MainFlow,2024.1.5,None,2025-05-29 13h28.30.721906 +0700
2,3,68,word/worden0683.png,6,0,84,84,84,670.7618651,,,,,,,670.7618651,670.7618651,671.741643,671.764779,671.764779,671.764779,671.764779,689.6881129,x,17.91368588,None,,,,,,,,,,ypen,1,2025-05-29_13h28.21.359,MainFlow,2024.1.5,None,2025-05-29 13h28.30.721906 +0700
2,2,66,word/worden0662.png,6,0,85,85,85,689.6950501,,,,,,,689.6950501,689.6950501,690.6757075,690.7003295,690.7003295,690.7003295,690.7003295,698.3049011,x,7.602711291,None,,,,,,,,,,ypen,1,2025-05-29_13h28.21.359,MainFlow,2024.1.5,None,2025-05-29 13h28.30.721906 +0700
2,3,95,word/worden0953.png,7,0,86,86,86,698.3120835,,,,,,,698.3120835,698.3120835,699.2922977,699.3155885,699.3155885,699.3155885,699.3155885,711.809475,x,12.49100671,None,,,,,,,,,,ypen,1,2025-05-29_13h28.21.359,MainFlow,2024.1.5,None,2025-05-29 13h28.30.721906 +0700
2,3,30,word/worden0303.png,4,0,87,87,87,711.8202032,,,,,,,711.8202032,711.8202032,712.8040012,712.8270566,712.8270566,712.8270566,712.8270566,727.1596492,x,14.33110092,None,712.8270566,712.8270566,,,,,,,,ypen,1,2025-05-29_13h28.21.359,MainFlow,2024.1.5,None,2025-05-29 13h28.30.721906 +0700
2,3,22,word/worden0223.png,4,0,88,88,88,727.170135,,,,,,,727.170135,727.170135,728.1538713,728.174139,728.174139,728.174139,728.174139,732.6619263,x,4.480087666,None,728.174139,728.174139,,,,,,,,ypen,1,2025-05-29_13h28.21.359,MainFlow,2024.1.5,None,2025-05-29 13h28.30.721906 +0700
2,1,75,word/worden0751.png,6,0,89,89,89,732.6704304,,,,,,,732.6704304,732.6704304,733.6540572,733.6775776,733.6775776,733.6775776,733.6775776,742.1210869,x,8.440903458,None,733.6775776,733.6775776,,,,,,,,ypen,1,2025-05-29_13h28.21.359,MainFlow,2024.1.5,None,2025-05-29 13h28.30.721906 +0700
2,1,64,word/worden0641.png,6,0,90,90,90,742.1283455,,,,,,,742.1283455,742.1283455,743.1085529,743.1322655,743.1322655,743.1322655,743.1322655,759.4787955,z,16.33823454,None,,,,,,,,,,ypen,1,2025-05-29_13h28.21.359,MainFlow,2024.1.5,None,2025-05-29 13h28.30.721906 +0700
2,1,27,word/worden0271.png,4,0,91,91,91,759.486671,,,,,,,759.486671,759.486671,760.4705288,760.494577,760.494577,760.494577,760.494577,769.9376897,z,9.432166417,None,760.494577,760.494577,,,,,,,,ypen,1,2025-05-29_13h28.21.359,MainFlow,2024.1.5,None,2025-05-29 13h28.30.721906 +0700
2,2,24,word/worden0242.png,4,0,92,92,92,769.9422334,,,,,,,769.9422334,769.9422334,770.92491,770.9484855,770.9484855,770.9484855,770.9484855,782.6712339,x,11.71401079,None,770.9484855,770.9484855,,,,,,,,ypen,1,2025-05-29_13h28.21.359,MainFlow,2024.1.5,None,2025-05-29 13h28.30.721906 +0700
2,1,87,word/worden0871.png,7,0,93,93,93,782.678716,,,,,,,782.678716,782.678716,783.6582297,783.6813423,783.6813423,783.6813423,783.6813423,796.7543879,z,13.07005292,None,,,,,,,,,,ypen,1,2025-05-29_13h28.21.359,MainFlow,2024.1.5,None,2025-05-29 13h28.30.721906 +0700
2,1,7,word/worden0071.png,3,0,94,94,94,796.761923,,,,,,,796.761923,796.761923,797.7414182,797.7652302,797.7652302,797.7652302,797.7652302,801.294781,z,3.522178708,None,,,,,,,,,,ypen,1,2025-05-29_13h28.21.359,MainFlow,2024.1.5,None,2025-05-29 13h28.30.721906 +0700
2,2,9,word/worden0092.png,3,0,95,95,95,801.3032309,,,,,,,801.3032309,801.3032309,802.2869502,802.3099768,802.3099768,802.3099768,802.3099768,804.7426937,x,2.431521458,None,802.3099768,802.3099768,,,,,,,,ypen,1,2025-05-29_13h28.21.359,MainFlow,2024.1.5,None,2025-05-29 13h28.30.721906 +0700
2,1,44,word/worden0441.png,5,0,96,96,96,804.7531398,,,,,,,804.7531398,804.7531398,805.7369802,805.7613193,805.7613193,805.7613193,805.7613193,815.2710383,z,9.50096675,None,805.7613193,805.7613193,,,,,,,,ypen,1,2025-05-29_13h28.21.359,MainFlow,2024.1.5,None,2025-05-29 13h28.30.721906 +0700
2,2,10,word/worden0102.png,3,0,97,97,97,815.2781108,,,,,,,815.2781108,815.2781108,816.2580574,816.2813976,816.2813976,816.2813976,816.2813976,820.3110025,x,4.02299525,None,,,,,,,,,,ypen,1,2025-05-29_13h28.21.359,MainFlow,2024.1.5,None,2025-05-29 13h28.30.721906 +0700
2,2,82,word/worden0822.png,7,0,98,98,98,820.3198728,,,,,,,820.3198728,820.3198728,821.3035861,821.3278675,821.3278675,821.3278675,821.3278675,840.4420332,x,19.11052054,None,821.3278675,821.3278675,,,,,,,,ypen,1,2025-05-29_13h28.21.359,MainFlow,2024.1.5,None,2025-05-29 13h28.30.721906 +0700
2,3,89,word/worden0893.png,7,0,99,99,99,840.4529693,,,,,,,840.4529693,840.4529693,841.4367702,841.4609715,841.4609715,841.4609715,841.4609715,854.3038292,x,12.83304625,None,841.4609715,841.4609715,,,,,,,,ypen,1,2025-05-29_13h28.21.359,MainFlow,2024.1.5,None,2025-05-29 13h28.30.721906 +0700
2,2,44,word/worden0442.png,5,0,100,100,100,854.3110138,,,,,,,854.3110138,854.3110138,855.291311,855.315341,855.315341,855.315341,855.315341,857.1539384,x,1.826721917,None,,,,,,,,,,ypen,1,2025-05-29_13h28.21.359,MainFlow,2024.1.5,None,2025-05-29 13h28.30.721906 +0700
2,1,52,word/worden0521.png,5,0,101,101,101,857.1583572,,,,,,,857.1583572,857.1583572,858.141404,858.1659739,858.1659739,858.1659739,858.1659739,877.7369756,x,19.568278,None,858.1659739,858.1659739,,,,,,,,ypen,1,2025-05-29_13h28.21.359,MainFlow,2024.1.5,None,2025-05-29 13h28.30.721906 +0700
2,1,51,word/worden0511.png,5,0,102,102,102,877.7443541,,,,,,,877.7443541,877.7443541,878.723842,878.7467342,878.7467342,878.7467342,878.7467342,896.7199548,z,17.97185021,None,,,,,,,,,,ypen,1,2025-05-29_13h28.21.359,MainFlow,2024.1.5,None,2025-05-29 13h28.30.721906 +0700
2,3,51,word/worden0513.png,5,0,103,103,103,896.7261411,,,,,,,896.7261411,896.7261411,897.7029828,897.726697,897.726697,897.726697,897.726697,919.7704496,x,22.04022575,None,,,,,,,,,,ypen,1,2025-05-29_13h28.21.359,MainFlow,2024.1.5,None,2025-05-29 13h28.30.721906 +0700
2,2,8,word/worden0082.png,3,0,104,104,104,919.7780403,,,,,,,919.7780403,919.7780403,920.7574601,920.7805328,920.7805328,920.7805328,920.7805328,927.0869797,x,6.2975125,None,,,,,,,,,,ypen,1,2025-05-29_13h28.21.359,MainFlow,2024.1.5,None,2025-05-29 13h28.30.721906 +0700
2,2,3,word/worden0032.png,3,0,105,105,105,927.0945807,,,,,,,927.0945807,927.0945807,928.0736047,928.0967968,928.0967968,928.0967968,928.0967968,945.5199806,x,17.41346612,None,,,,,,,,,,ypen,1,2025-05-29_13h28.21.359,MainFlow,2024.1.5,None,2025-05-29 13h28.30.721906 +0700
2,3,3,word/worden0033.png,3,0,106,106,106,945.5273024,,,,,,,945.5273024,945.5273024,946.5069119,946.5308166,946.5308166,946.5308166,946.5308166,952.274873,x,5.740182208,None,,,,,,,,,,ypen,1,2025-05-29_13h28.21.359,MainFlow,2024.1.5,None,2025-05-29 13h28.30.721906 +0700
2,3,64,word/worden0643.png,6,0,107,107,107,952.285638,,,,,,,952.285638,952.285638,953.2694136,953.2927978,953.2927978,953.2927978,953.2927978,963.0411359,x,9.745050625,None,953.2927978,953.2927978,,,,,,,,ypen,1,2025-05-29_13h28.21.359,MainFlow,2024.1.5,None,2025-05-29 13h28.30.721906 +0700
2,3,26,word/worden0263.png,4,0,108,108,108,963.0522547,,,,,,,963.0522547,963.0522547,964.0362195,964.060379,964.060379,964.060379,964.060379,973.1076977,x,9.043812875,None,964.060379,964.060379,,,,,,,,ypen,1,2025-05-29_13h28.21.359,MainFlow,2024.1.5,None,2025-05-29 13h28.30.721906 +0700
2,2,96,word/worden0962.png,7,0,109,109,109,973.1189322,,,,,,,973.1189322,973.1189322,974.1026438,974.1273288,974.1273288,974.1273288,974.1273288,980.408058,x,6.278881875,None,974.1273288,974.1273288,,,,,,,,ypen,1,2025-05-29_13h28.21.359,MainFlow,2024.1.5,None,2025-05-29 13h28.30.721906 +0700
2,1,22,word/worden0221.png,4,0,110,110,110,980.4187195,,,,,,,980.4187195,980.4187195,981.4027882,981.4273515,981.4273515,981.4273515,981.4273515,983.1364311,z,1.707649083,None,981.4273515,981.4273515,,,,,,,,ypen,1,2025-05-29_13h28.21.359,MainFlow,2024.1.5,None,2025-05-29 13h28.30.721906 +0700
2,2,22,word/worden0222.png,4,0,111,111,111,983.1438758,,,,,,,983.1438758,983.1438758,984.1233002,984.1463496,984.1463496,984.1463496,984.1463496,993.3750843,x,9.227373625,None,,,,,,,,,,ypen,1,2025-05-29_13h28.21.359,MainFlow,2024.1.5,None,2025-05-29 13h28.30.721906 +0700
2,2,26,word/worden0262.png,4,0,112,112,112,993.3846332,,,,,,,993.3846332,993.3846332,994.3693588,994.3938859,994.3938859,994.3938859,994.3938859,1001.253108,x,6.852536292,None,994.3938859,994.3938859,,,,,,,,ypen,1,2025-05-29_13h28.21.359,MainFlow,2024.1.5,None,2025-05-29 13h28.30.721906 +0700
2,3,48,word/worden0483.png,5,0,113,113,113,1001.25995,,,,,,,1001.25995,1001.25995,1002.24032,1002.263719,1002.263719,1002.263719,1002.263719,1022.969592,x,20.70329512,None,,,,,,,,,,ypen,1,2025-05-29_13h28.21.359,MainFlow,2024.1.5,None,2025-05-29 13h28.30.721906 +0700
2,2,87,word/worden0872.png,7,0,114,114,114,1022.976699,,,,,,,1022.976699,1022.976699,1023.956988,1023.980708,1023.980708,1023.980708,1023.980708,1040.186118,x,16.20186492,None,,,,,,,,,,ypen,1,2025-05-29_13h28.21.359,MainFlow,2024.1.5,None,2025-05-29 13h28.30.721906 +0700
2,1,10,word/worden0101.png,3,0,115,115,115,1040.193548,,,,,,,1040.193548,1040.193548,1041.173519,1041.196333,1041.196333,1041.196333,1041.196333,1045.269688,z,4.06609725,None,,,,,,,,,,ypen,1,2025-05-29_13h28.21.359,MainFlow,2024.1.5,None,2025-05-29 13h28.30.721906 +0700
2,3,8,word/worden0083.png,3,0,116,116,116,1045.276728,,,,,,,1045.276728,1045.276728,1046.256782,1046.280019,1046.280019,1046.280019,1046.280019,1054.093814,x,7.806508459,None,,,,,,,,,,ypen,1,2025-05-29_13h28.21.359,MainFlow,2024.1.5,None,2025-05-29 13h28.30.721906 +0700
2,3,94,word/worden0943.png,7,0,117,117,117,1054.101726,,,,,,,1054.101726,1054.101726,1055.085505,1055.110059,1055.110059,1055.110059,1055.110059,1067.510029,x,12.39262358,None,1055.110059,1055.110059,,,,,,,,ypen,1,2025-05-29_13h28.21.359,MainFlow,2024.1.5,None,2025-05-29 13h28.30.721906 +0700
2,2,11,word/worden0112.png,3,0,118,118,118,1067.518421,,,,,,,1067.518421,1067.518421,1068.502302,1068.526062,1068.526062,1068.526062,1068.526062,1071.436141,x,2.903642708,None,1068.526062,1068.526062,,,,,,,,ypen,1,2025-05-29_13h28.21.359,MainFlow,2024.1.5,None,2025-05-29 13h28.30.721906 +0700
2,3,24,word/worden0243.png,4,0,119,119,119,1071.443359,,,,,,,1071.443359,1071.443359,1072.423279,1072.446351,1072.446351,1072.446351,1072.446351,1077.602603,x,5.143872667,None,,,,,,,,,,ypen,1,2025-05-29_13h28.21.359,MainFlow,2024.1.5,None,2025-05-29 13h28.30.721906 +0700
,,,,,,,,,,,,,,,,,,,,,,,,,,,,,1077.602896,1077.606725,1077.606725,1085.769494,space,8.159299583,None,ypen,1,2025-05-29_13h28.21.359,MainFlow,2024.1.5,None,2025-05-29 13h28.30.721906 +0700
