lang,stimuli,imageid,worddir,word_length,trials.thisRepN,trials.thisTrialN,trials.thisN,trials.thisIndex,thisRow.t,notes,tutorial.started,tutorial.stopped,key_instruct.keys,key_instruct.rt,key_instruct.duration,instructblank.started,cross1.started,letterselect.started,imageword.started,text_2.started,cross2.started,key_resp.started,letterselect.stopped,key_resp.keys,key_resp.rt,key_resp.duration,instructblank.stopped,cross1.stopped,ending.started,text_3.started,ending_key.started,ending.stopped,ending_key.keys,ending_key.rt,ending_key.duration,participant,session,date,expName,psychopyVersion,frameRate,expStart
,,,,,,,,,,,0.00437575,2.779963334,space,2.734467125,None,,,,,,,,,,,,,,,,,,,,,ypth,1,2025-05-29_13h22.45.849,MainFlow,2024.1.5,None,2025-05-29 13h22.54.242246 +0700
1,3,89,word/wordth0893.png,7,0,0,0,0,2.819593209,,,,,,,2.819593209,2.819593209,3.773041209,3.811238459,3.811238459,3.811238459,3.811238459,4.723629875,x,0.909744458,None,,,,,,,,,,ypth,1,2025-05-29_13h22.45.849,MainFlow,2024.1.5,None,2025-05-29 13h22.54.242246 +0700
1,3,28,word/wordth0283.png,7,0,1,1,1,4.731285667,,,,,,,4.731285667,4.731285667,5.710411625,5.736147959,5.736147959,5.736147959,5.736147959,6.323819209,x,0.5750795,None,,,,,,,,,,ypth,1,2025-05-29_13h22.45.849,MainFlow,2024.1.5,None,2025-05-29 13h22.54.242246 +0700
1,2,87,word/wordth0872.png,5,0,2,2,2,6.328336292,,,,,,,6.328336292,6.328336292,7.311031084,7.33479825,7.33479825,7.33479825,7.33479825,12.02366804,x,4.6813665,None,7.33479825,7.33479825,,,,,,,,ypth,1,2025-05-29_13h22.45.849,MainFlow,2024.1.5,None,2025-05-29 13h22.54.242246 +0700
1,2,68,word/wordth0682.png,4,0,3,3,3,12.03126913,,,,,,,12.03126913,12.03126913,13.0105005,13.03575308,13.03575308,13.03575308,13.03575308,13.87382387,x,0.828441084,None,,,,,,,,,,ypth,1,2025-05-29_13h22.45.849,MainFlow,2024.1.5,None,2025-05-29 13h22.54.242246 +0700
1,2,11,word/wordth0112.png,6,0,4,4,4,13.88084221,,,,,,,13.88084221,13.88084221,14.86039012,14.88355467,14.88355467,14.88355467,14.88355467,15.594967,x,0.707701208,None,,,,,,,,,,ypth,1,2025-05-29_13h22.45.849,MainFlow,2024.1.5,None,2025-05-29 13h22.54.242246 +0700
1,3,11,word/wordth0113.png,6,0,5,5,5,15.60601042,,,,,,,15.60601042,15.60601042,16.58961783,16.61336875,16.61336875,16.61336875,16.61336875,17.2403485,x,0.618255834,None,16.61336875,16.61336875,,,,,,,,ypth,1,2025-05-29_13h22.45.849,MainFlow,2024.1.5,None,2025-05-29 13h22.54.242246 +0700
1,2,71,word/wordth0712.png,6,0,6,6,6,17.24773862,,,,,,,17.24773862,17.24773862,18.22753233,18.25147662,18.25147662,18.25147662,18.25147662,19.0403975,x,0.780489,None,,,,,,,,,,ypth,1,2025-05-29_13h22.45.849,MainFlow,2024.1.5,None,2025-05-29 13h22.54.242246 +0700
1,3,44,word/wordth0443.png,5,0,7,7,7,19.04747596,,,,,,,19.04747596,19.04747596,20.02737721,20.05080621,20.05080621,20.05080621,20.05080621,25.07355283,x,5.013744542,None,,,,,,,,,,ypth,1,2025-05-29_13h22.45.849,MainFlow,2024.1.5,None,2025-05-29 13h22.54.242246 +0700
1,2,82,word/wordth0822.png,6,0,8,8,8,25.08088421,,,,,,,25.08088421,25.08088421,26.06121204,26.085588,26.085588,26.085588,26.085588,26.90698092,x,0.810149291,None,,,,,,,,,,ypth,1,2025-05-29_13h22.45.849,MainFlow,2024.1.5,None,2025-05-29 13h22.54.242246 +0700
1,2,28,word/wordth0282.png,7,0,9,9,9,26.91388662,,,,,,,26.91388662,26.91388662,27.89405833,27.91778862,27.91778862,27.91778862,27.91778862,28.96196967,x,1.042797375,None,,,,,,,,,,ypth,1,2025-05-29_13h22.45.849,MainFlow,2024.1.5,None,2025-05-29 13h22.54.242246 +0700
1,1,23,word/wordth0231.png,7,0,10,10,10,28.97178825,,,,,,,28.97178825,28.97178825,29.95612129,29.98093096,29.98093096,29.98093096,29.98093096,34.54036129,z,4.555848542,None,29.98093096,29.98093096,,,,,,,,ypth,1,2025-05-29_13h22.45.849,MainFlow,2024.1.5,None,2025-05-29 13h22.54.242246 +0700
1,2,63,word/wordth0632.png,4,0,11,11,11,34.54795962,,,,,,,34.54795962,34.54795962,35.52698929,35.55092737,35.55092737,35.55092737,35.55092737,37.99471621,x,2.441082541,None,,,,,,,,,,ypth,1,2025-05-29_13h22.45.849,MainFlow,2024.1.5,None,2025-05-29 13h22.54.242246 +0700
1,3,71,word/wordth0713.png,6,0,12,12,12,38.00570967,,,,,,,38.00570967,38.00570967,38.98950546,39.01346504,39.01346504,39.01346504,39.01346504,39.70672121,x,0.681705833,None,39.01346504,39.01346504,,,,,,,,ypth,1,2025-05-29_13h22.45.849,MainFlow,2024.1.5,None,2025-05-29 13h22.54.242246 +0700
1,1,1,word/wordth0011.png,5,0,13,13,13,39.71131712,,,,,,,39.71131712,39.71131712,40.69354587,40.71651412,40.71651412,40.71651412,40.71651412,44.16158883,z,3.443186459,None,,,,,,,,,,ypth,1,2025-05-29_13h22.45.849,MainFlow,2024.1.5,None,2025-05-29 13h22.54.242246 +0700
1,3,41,word/wordth0413.png,5,0,14,14,14,44.17244321,,,,,,,44.17244321,44.17244321,45.15623283,45.18497362,45.18497362,45.18497362,45.18497362,45.89732208,x,0.705011291,None,45.18497362,45.18497362,,,,,,,,ypth,1,2025-05-29_13h22.45.849,MainFlow,2024.1.5,None,2025-05-29 13h22.54.242246 +0700
1,2,64,word/wordth0642.png,3,0,15,15,15,45.90585804,,,,,,,45.90585804,45.90585804,46.88947642,46.91278475,46.91278475,46.91278475,46.91278475,47.63076554,x,0.711009375,None,46.91278475,46.91278475,,,,,,,,ypth,1,2025-05-29_13h22.45.849,MainFlow,2024.1.5,None,2025-05-29 13h22.54.242246 +0700
1,3,6,word/wordth0063.png,5,0,16,16,16,47.63905754,,,,,,,47.63905754,47.63905754,48.62288092,48.646788,48.646788,48.646788,48.646788,49.32370179,x,0.673347458,None,48.646788,48.646788,,,,,,,,ypth,1,2025-05-29_13h22.45.849,MainFlow,2024.1.5,None,2025-05-29 13h22.54.242246 +0700
1,2,31,word/wordth0312.png,7,0,17,17,17,49.33058208,,,,,,,49.33058208,49.33058208,50.31044062,50.33409158,50.33409158,50.33409158,50.33409158,51.00677779,x,0.665490292,None,,,,,,,,,,ypth,1,2025-05-29_13h22.45.849,MainFlow,2024.1.5,None,2025-05-29 13h22.54.242246 +0700
1,1,46,word/wordth0461.png,5,0,18,18,18,51.01383283,,,,,,,51.01383283,51.01383283,51.99352654,52.0168535,52.0168535,52.0168535,52.0168535,53.594916,z,1.575342083,None,,,,,,,,,,ypth,1,2025-05-29_13h22.45.849,MainFlow,2024.1.5,None,2025-05-29 13h22.54.242246 +0700
1,3,51,word/wordth0513.png,4,0,19,19,19,53.60576221,,,,,,,53.60576221,53.60576221,54.58944342,54.61374754,54.61374754,54.61374754,54.61374754,65.30671758,x,10.68153979,None,54.61374754,54.61374754,,,,,,,,ypth,1,2025-05-29_13h22.45.849,MainFlow,2024.1.5,None,2025-05-29 13h22.54.242246 +0700
1,2,26,word/wordth0262.png,5,0,20,20,20,65.31156025,,,,,,,65.31156025,65.31156025,66.29387042,66.31887346,66.31887346,66.31887346,66.31887346,67.30663075,x,0.984874292,None,,,,,,,,,,ypth,1,2025-05-29_13h22.45.849,MainFlow,2024.1.5,None,2025-05-29 13h22.54.242246 +0700
1,2,96,word/wordth0962.png,7,0,21,21,21,67.31363583,,,,,,,67.31363583,67.31363583,68.2934045,68.317432,68.317432,68.317432,68.317432,68.99019433,x,0.666055417,None,,,,,,,,,,ypth,1,2025-05-29_13h22.45.849,MainFlow,2024.1.5,None,2025-05-29 13h22.54.242246 +0700
1,1,31,word/wordth0311.png,7,0,22,22,22,68.99728954,,,,,,,68.99728954,68.99728954,69.97732617,70.00080325,70.00080325,70.00080325,70.00080325,71.49009996,z,1.487634875,None,,,,,,,,,,ypth,1,2025-05-29_13h22.45.849,MainFlow,2024.1.5,None,2025-05-29 13h22.54.242246 +0700
1,2,94,word/wordth0942.png,5,0,23,23,23,71.49725533,,,,,,,71.49725533,71.49725533,72.47712442,72.5007425,72.5007425,72.5007425,72.5007425,73.77809433,z,1.275050167,None,,,,,,,,,,ypth,1,2025-05-29_13h22.45.849,MainFlow,2024.1.5,None,2025-05-29 13h22.54.242246 +0700
1,3,48,word/wordth0483.png,5,0,24,24,24,73.78891267,,,,,,,73.78891267,73.78891267,74.77260942,74.79612217,74.79612217,74.79612217,74.79612217,75.72326217,x,0.915733625,None,74.79612217,74.79612217,,,,,,,,ypth,1,2025-05-29_13h22.45.849,MainFlow,2024.1.5,None,2025-05-29 13h22.54.242246 +0700
1,3,24,word/wordth0243.png,7,0,25,25,25,75.72770346,,,,,,,75.72770346,75.72770346,76.71051796,76.73493713,76.73493713,76.73493713,76.73493713,78.29002763,x,1.553251,None,76.73493713,76.73493713,,,,,,,,ypth,1,2025-05-29_13h22.45.849,MainFlow,2024.1.5,None,2025-05-29 13h22.54.242246 +0700
1,1,87,word/wordth0871.png,5,0,26,26,26,78.29727304,,,,,,,78.29727304,78.29727304,79.27722733,79.30075892,79.30075892,79.30075892,79.30075892,80.88062858,z,1.572339208,None,,,,,,,,,,ypth,1,2025-05-29_13h22.45.849,MainFlow,2024.1.5,None,2025-05-29 13h22.54.242246 +0700
1,2,51,word/wordth0512.png,4,0,27,27,27,80.88887958,,,,,,,80.88887958,80.88887958,81.87270054,81.89567167,81.89567167,81.89567167,81.89567167,83.26383483,z,1.360850667,None,81.89567167,81.89567167,,,,,,,,ypth,1,2025-05-29_13h22.45.849,MainFlow,2024.1.5,None,2025-05-29 13h22.54.242246 +0700
1,3,27,word/wordth0273.png,3,0,28,28,28,83.27218354,,,,,,,83.27218354,83.27218354,84.25596908,84.28047575,84.28047575,84.28047575,84.28047575,88.56107254,x,4.278696917,None,84.28047575,84.28047575,,,,,,,,ypth,1,2025-05-29_13h22.45.849,MainFlow,2024.1.5,None,2025-05-29 13h22.54.242246 +0700
1,2,22,word/wordth0222.png,7,0,29,29,29,88.57216533,,,,,,,88.57216533,88.57216533,89.55603287,89.58042567,89.58042567,89.58042567,89.58042567,90.86421529,x,1.2754245,None,89.58042567,89.58042567,,,,,,,,ypth,1,2025-05-29_13h22.45.849,MainFlow,2024.1.5,None,2025-05-29 13h22.54.242246 +0700
1,3,23,word/wordth0233.png,7,0,30,30,30,90.87211717,,,,,,,90.87211717,90.87211717,91.85597479,91.88026912,91.88026912,91.88026912,91.88026912,94.46414112,x,2.576691875,None,91.88026912,91.88026912,,,,,,,,ypth,1,2025-05-29_13h22.45.849,MainFlow,2024.1.5,None,2025-05-29 13h22.54.242246 +0700
1,1,48,word/wordth0481.png,5,0,31,31,31,94.4721305,,,,,,,94.4721305,94.4721305,95.45593367,95.48041912,95.48041912,95.48041912,95.48041912,97.03984262,z,1.550898666,None,95.48041912,95.48041912,,,,,,,,ypth,1,2025-05-29_13h22.45.849,MainFlow,2024.1.5,None,2025-05-29 13h22.54.242246 +0700
1,2,10,word/wordth0102.png,7,0,32,32,32,97.04715242,,,,,,,97.04715242,97.04715242,98.02667071,98.05073654,98.05073654,98.05073654,98.05073654,98.89702029,x,0.83912725,None,,,,,,,,,,ypth,1,2025-05-29_13h22.45.849,MainFlow,2024.1.5,None,2025-05-29 13h22.54.242246 +0700
1,3,64,word/wordth0643.png,3,0,33,33,33,98.90544771,,,,,,,98.90544771,98.90544771,99.88934283,99.91439387,99.91439387,99.91439387,99.91439387,100.755938,x,0.829321417,None,99.91439387,99.91439387,,,,,,,,ypth,1,2025-05-29_13h22.45.849,MainFlow,2024.1.5,None,2025-05-29 13h22.54.242246 +0700
1,3,22,word/wordth0223.png,7,0,34,34,34,100.7603827,,,,,,,100.7603827,100.7603827,101.7392585,101.7638077,101.7638077,101.7638077,101.7638077,102.4232499,x,0.651279875,None,,,,,,,,,,ypth,1,2025-05-29_13h22.45.849,MainFlow,2024.1.5,None,2025-05-29 13h22.54.242246 +0700
1,1,42,word/wordth0421.png,3,0,35,35,35,102.4304392,,,,,,,102.4304392,102.4304392,103.4101172,103.433738,103.433738,103.433738,103.433738,104.5566114,z,1.118551458,None,,,,,,,,,,ypth,1,2025-05-29_13h22.45.849,MainFlow,2024.1.5,None,2025-05-29 13h22.54.242246 +0700
1,2,1,word/wordth0012.png,5,0,36,36,36,104.5637865,,,,,,,104.5637865,104.5637865,105.5437447,105.5673353,105.5673353,105.5673353,105.5673353,106.5945077,x,1.024523875,None,,,,,,,,,,ypth,1,2025-05-29_13h22.45.849,MainFlow,2024.1.5,None,2025-05-29 13h22.54.242246 +0700
1,1,82,word/wordth0821.png,6,0,37,37,37,106.605284,,,,,,,106.605284,106.605284,107.5891058,107.6130564,107.6130564,107.6130564,107.6130564,108.9778727,z,1.363188417,None,107.6130564,107.6130564,,,,,,,,ypth,1,2025-05-29_13h22.45.849,MainFlow,2024.1.5,None,2025-05-29 13h22.54.242246 +0700
1,2,3,word/wordth0032.png,3,0,38,38,38,108.9888547,,,,,,,108.9888547,108.9888547,109.9725044,109.9950751,109.9950751,109.9950751,109.9950751,111.3563727,x,1.356566542,None,109.9950751,109.9950751,,,,,,,,ypth,1,2025-05-29_13h22.45.849,MainFlow,2024.1.5,None,2025-05-29 13h22.54.242246 +0700
1,1,68,word/wordth0681.png,4,0,39,39,39,111.3633882,,,,,,,111.3633882,111.3633882,112.3432997,112.3664261,112.3664261,112.3664261,112.3664261,113.177842,z,0.809417083,None,,,,,,,,,,ypth,1,2025-05-29_13h22.45.849,MainFlow,2024.1.5,None,2025-05-29 13h22.54.242246 +0700
1,1,66,word/wordth0661.png,5,0,40,40,40,113.1886039,,,,,,,113.1886039,113.1886039,114.172337,114.1960093,114.1960093,114.1960093,114.1960093,115.1448083,z,0.947482084,None,114.1960093,114.1960093,,,,,,,,ypth,1,2025-05-29_13h22.45.849,MainFlow,2024.1.5,None,2025-05-29 13h22.54.242246 +0700
1,2,42,word/wordth0422.png,3,0,41,41,41,115.155332,,,,,,,115.155332,115.155332,116.1390408,116.1638843,116.1638843,116.1638843,116.1638843,117.0398792,x,0.86787625,None,116.1638843,116.1638843,,,,,,,,ypth,1,2025-05-29_13h22.45.849,MainFlow,2024.1.5,None,2025-05-29 13h22.54.242246 +0700
1,3,93,word/wordth0933.png,4,0,42,42,42,117.047009,,,,,,,117.047009,117.047009,118.0267073,118.0509782,118.0509782,118.0509782,118.0509782,122.2967559,x,4.238352292,None,,,,,,,,,,ypth,1,2025-05-29_13h22.45.849,MainFlow,2024.1.5,None,2025-05-29 13h22.54.242246 +0700
1,1,71,word/wordth0711.png,6,0,43,43,43,122.3050115,,,,,,,122.3050115,122.3050115,123.2890544,123.3132287,123.3132287,123.3132287,123.3132287,124.3778005,z,1.062101458,None,123.3132287,123.3132287,,,,,,,,ypth,1,2025-05-29_13h22.45.849,MainFlow,2024.1.5,None,2025-05-29 13h22.54.242246 +0700
1,1,64,word/wordth0641.png,3,0,44,44,44,124.3886059,,,,,,,124.3886059,124.3886059,125.3723261,125.396049,125.396049,125.396049,125.396049,126.5896678,z,1.187976083,None,125.396049,125.396049,,,,,,,,ypth,1,2025-05-29_13h22.45.849,MainFlow,2024.1.5,None,2025-05-29 13h22.54.242246 +0700
1,1,88,word/wordth0881.png,6,0,45,45,45,126.5971412,,,,,,,126.5971412,126.5971412,127.5763567,127.5996743,127.5996743,127.5996743,127.5996743,128.823114,z,1.216299041,None,,,,,,,,,,ypth,1,2025-05-29_13h22.45.849,MainFlow,2024.1.5,None,2025-05-29 13h22.54.242246 +0700
1,3,87,word/wordth0873.png,5,0,46,46,46,128.8301227,,,,,,,128.8301227,128.8301227,129.8098409,129.8329232,129.8329232,129.8329232,129.8329232,130.5563247,x,0.718783125,None,,,,,,,,,,ypth,1,2025-05-29_13h22.45.849,MainFlow,2024.1.5,None,2025-05-29 13h22.54.242246 +0700
1,3,3,word/wordth0033.png,3,0,47,47,47,130.5631818,,,,,,,130.5631818,130.5631818,131.5435769,131.5671564,131.5671564,131.5671564,131.5671564,132.464171,z,0.888643084,None,,,,,,,,,,ypth,1,2025-05-29_13h22.45.849,MainFlow,2024.1.5,None,2025-05-29 13h22.54.242246 +0700
1,2,95,word/wordth0952.png,6,0,48,48,48,132.4711832,,,,,,,132.4711832,132.4711832,133.4557518,133.4802512,133.4802512,133.4802512,133.4802512,134.4303174,x,0.943222291,None,133.4802512,133.4802512,,,,,,,,ypth,1,2025-05-29_13h22.45.849,MainFlow,2024.1.5,None,2025-05-29 13h22.54.242246 +0700
1,1,11,word/wordth0111.png,6,0,49,49,49,134.4385634,,,,,,,134.4385634,134.4385634,135.4222252,135.4464337,135.4464337,135.4464337,135.4464337,136.830052,z,1.377222459,None,135.4464337,135.4464337,,,,,,,,ypth,1,2025-05-29_13h22.45.849,MainFlow,2024.1.5,None,2025-05-29 13h22.54.242246 +0700
1,1,10,word/wordth0101.png,7,0,50,50,50,136.8386411,,,,,,,136.8386411,136.8386411,137.8223259,137.8453914,137.8453914,137.8453914,137.8453914,139.606407,z,1.754331167,None,137.8453914,137.8453914,,,,,,,,ypth,1,2025-05-29_13h22.45.849,MainFlow,2024.1.5,None,2025-05-29 13h22.54.242246 +0700
1,1,44,word/wordth0441.png,5,0,51,51,51,139.6135824,,,,,,,139.6135824,139.6135824,140.5934789,140.6174315,140.6174315,140.6174315,140.6174315,141.7896019,z,1.165765334,None,,,,,,,,,,ypth,1,2025-05-29_13h22.45.849,MainFlow,2024.1.5,None,2025-05-29 13h22.54.242246 +0700
1,1,96,word/wordth0961.png,7,0,52,52,52,141.7964941,,,,,,,141.7964941,141.7964941,142.7767943,142.800687,142.800687,142.800687,142.800687,145.4729783,z,2.662922375,None,,,,,,,,,,ypth,1,2025-05-29_13h22.45.849,MainFlow,2024.1.5,None,2025-05-29 13h22.54.242246 +0700
1,2,27,word/wordth0272.png,3,0,53,53,53,145.4798536,,,,,,,145.4798536,145.4798536,146.4595459,146.4829182,146.4829182,146.4829182,146.4829182,147.5894317,x,1.100060458,None,,,,,,,,,,ypth,1,2025-05-29_13h22.45.849,MainFlow,2024.1.5,None,2025-05-29 13h22.54.242246 +0700
1,1,63,word/wordth0631.png,4,0,54,54,54,147.5968004,,,,,,,147.5968004,147.5968004,148.57645,148.5996376,148.5996376,148.5996376,148.5996376,149.4729525,z,0.862985542,None,,,,,,,,,,ypth,1,2025-05-29_13h22.45.849,MainFlow,2024.1.5,None,2025-05-29 13h22.54.242246 +0700
1,3,66,word/wordth0663.png,5,0,55,55,55,149.4798658,,,,,,,149.4798658,149.4798658,150.4595975,150.4835692,150.4835692,150.4835692,150.4835692,155.1561201,z,4.660503708,None,,,,,,,,,,ypth,1,2025-05-29_13h22.45.849,MainFlow,2024.1.5,None,2025-05-29 13h22.54.242246 +0700
1,3,88,word/wordth0883.png,7,0,56,56,56,155.1605898,,,,,,,155.1605898,155.1605898,156.1427012,156.1660955,156.1660955,156.1660955,156.1660955,156.9775923,x,0.809576625,None,,,,,,,,,,ypth,1,2025-05-29_13h22.45.849,MainFlow,2024.1.5,None,2025-05-29 13h22.54.242246 +0700
1,3,96,word/wordth0963.png,7,0,57,57,57,156.9885026,,,,,,,156.9885026,156.9885026,157.9721047,157.994455,157.994455,157.994455,157.994455,158.8303012,x,0.828562292,None,157.994455,157.994455,,,,,,,,ypth,1,2025-05-29_13h22.45.849,MainFlow,2024.1.5,None,2025-05-29 13h22.54.242246 +0700
1,2,52,word/wordth0522.png,5,0,58,58,58,158.8382559,,,,,,,158.8382559,158.8382559,159.8222787,159.8459375,159.8459375,159.8459375,159.8459375,160.872793,x,1.017776333,None,159.8459375,159.8459375,,,,,,,,ypth,1,2025-05-29_13h22.45.849,MainFlow,2024.1.5,None,2025-05-29 13h22.54.242246 +0700
1,3,50,word/wordth0503.png,6,0,59,59,59,160.8800164,,,,,,,160.8800164,160.8800164,161.8594777,161.884568,161.884568,161.884568,161.884568,163.0061396,x,1.113935375,None,,,,,,,,,,ypth,1,2025-05-29_13h22.45.849,MainFlow,2024.1.5,None,2025-05-29 13h22.54.242246 +0700
1,3,61,word/wordth0613.png,7,0,60,60,60,163.0135132,,,,,,,163.0135132,163.0135132,163.9925828,164.0165352,164.0165352,164.0165352,164.0165352,164.8394317,x,0.814845084,None,,,,,,,,,,ypth,1,2025-05-29_13h22.45.849,MainFlow,2024.1.5,None,2025-05-29 13h22.54.242246 +0700
1,2,46,word/wordth0462.png,5,0,61,61,61,164.8462225,,,,,,,164.8462225,164.8462225,165.8264362,165.8497818,165.8497818,165.8497818,165.8497818,166.5061988,x,0.654595583,None,,,,,,,,,,ypth,1,2025-05-29_13h22.45.849,MainFlow,2024.1.5,None,2025-05-29 13h22.54.242246 +0700
1,1,61,word/wordth0611.png,7,0,62,62,62,166.5133178,,,,,,,166.5133178,166.5133178,167.4929706,167.5171179,167.5171179,167.5171179,167.5171179,168.4968762,z,0.971825625,None,,,,,,,,,,ypth,1,2025-05-29_13h22.45.849,MainFlow,2024.1.5,None,2025-05-29 13h22.54.242246 +0700
1,1,24,word/wordth0241.png,7,0,63,63,63,168.5050527,,,,,,,168.5050527,168.5050527,169.4888004,169.5122834,169.5122834,169.5122834,169.5122834,171.8272336,z,2.311299542,None,169.5122834,169.5122834,,,,,,,,ypth,1,2025-05-29_13h22.45.849,MainFlow,2024.1.5,None,2025-05-29 13h22.54.242246 +0700
1,2,89,word/wordth0892.png,7,0,64,64,64,171.838481,,,,,,,171.838481,171.838481,172.8220694,172.8468367,172.8468367,172.8468367,172.8468367,173.6468457,x,0.791994916,None,172.8468367,172.8468367,,,,,,,,ypth,1,2025-05-29_13h22.45.849,MainFlow,2024.1.5,None,2025-05-29 13h22.54.242246 +0700
1,1,30,word/wordth0301.png,4,0,65,65,65,173.6548965,,,,,,,173.6548965,173.6548965,174.6387764,174.6636019,174.6636019,174.6636019,174.6636019,175.5225813,z,0.847297125,None,174.6636019,174.6636019,,,,,,,,ypth,1,2025-05-29_13h22.45.849,MainFlow,2024.1.5,None,2025-05-29 13h22.54.242246 +0700
1,1,93,word/wordth0931.png,4,0,66,66,66,175.5269679,,,,,,,175.5269679,175.5269679,176.5099331,176.5337088,176.5337088,176.5337088,176.5337088,177.2630458,z,0.721955458,None,176.5337088,176.5337088,,,,,,,,ypth,1,2025-05-29_13h22.45.849,MainFlow,2024.1.5,None,2025-05-29 13h22.54.242246 +0700
1,1,50,word/wordth0501.png,6,0,67,67,67,177.2716633,,,,,,,177.2716633,177.2716633,178.2553415,178.2779177,178.2779177,178.2779177,178.2779177,178.9604696,z,0.680934208,None,178.2779177,178.2779177,,,,,,,,ypth,1,2025-05-29_13h22.45.849,MainFlow,2024.1.5,None,2025-05-29 13h22.54.242246 +0700
1,3,82,word/wordth0823.png,6,0,68,68,68,178.9716024,,,,,,,178.9716024,178.9716024,179.9553178,179.9784212,179.9784212,179.9784212,179.9784212,180.7059113,z,0.716480584,None,179.9784212,179.9784212,,,,,,,,ypth,1,2025-05-29_13h22.45.849,MainFlow,2024.1.5,None,2025-05-29 13h22.54.242246 +0700
1,1,27,word/wordth0271.png,3,0,69,69,69,180.7104541,,,,,,,180.7104541,180.7104541,181.6926557,181.715367,181.715367,181.715367,181.715367,182.430004,z,0.707679,None,,,,,,,,,,ypth,1,2025-05-29_13h22.45.849,MainFlow,2024.1.5,None,2025-05-29 13h22.54.242246 +0700
1,3,52,word/wordth0523.png,5,0,70,70,70,182.438332,,,,,,,182.438332,182.438332,183.4220718,183.4470403,183.4470403,183.4470403,183.4470403,184.1392446,x,0.689291459,None,183.4470403,183.4470403,,,,,,,,ypth,1,2025-05-29_13h22.45.849,MainFlow,2024.1.5,None,2025-05-29 13h22.54.242246 +0700
1,1,22,word/wordth0221.png,7,0,71,71,71,184.1463217,,,,,,,184.1463217,184.1463217,185.1260366,185.148964,185.148964,185.148964,185.148964,186.0893462,z,0.93056325,None,,,,,,,,,,ypth,1,2025-05-29_13h22.45.849,MainFlow,2024.1.5,None,2025-05-29 13h22.54.242246 +0700
1,1,6,word/wordth0061.png,5,0,72,72,72,186.0964662,,,,,,,186.0964662,186.0964662,187.0765767,187.1004925,187.1004925,187.1004925,187.1004925,187.7894719,z,0.68306325,None,,,,,,,,,,ypth,1,2025-05-29_13h22.45.849,MainFlow,2024.1.5,None,2025-05-29 13h22.54.242246 +0700
1,2,30,word/wordth0302.png,4,0,73,73,73,187.7963611,,,,,,,187.7963611,187.7963611,188.7765222,188.7998785,188.7998785,188.7998785,188.7998785,189.6059155,x,0.799702209,None,,,,,,,,,,ypth,1,2025-05-29_13h22.45.849,MainFlow,2024.1.5,None,2025-05-29 13h22.54.242246 +0700
1,1,51,word/wordth0511.png,4,0,74,74,74,189.6126814,,,,,,,189.6126814,189.6126814,190.593218,190.6171446,190.6171446,190.6171446,190.6171446,191.5725985,z,0.950252709,None,,,,,,,,,,ypth,1,2025-05-29_13h22.45.849,MainFlow,2024.1.5,None,2025-05-29 13h22.54.242246 +0700
1,2,50,word/wordth0502.png,6,0,75,75,75,191.5796738,,,,,,,191.5796738,191.5796738,192.559811,192.5836645,192.5836645,192.5836645,192.5836645,193.4890649,x,0.895998791,None,,,,,,,,,,ypth,1,2025-05-29_13h22.45.849,MainFlow,2024.1.5,None,2025-05-29 13h22.54.242246 +0700
1,3,95,word/wordth0953.png,6,0,76,76,76,193.4958922,,,,,,,193.4958922,193.4958922,194.4758546,194.499252,194.499252,194.499252,194.499252,195.4105995,x,0.908268875,None,,,,,,,,,,ypth,1,2025-05-29_13h22.45.849,MainFlow,2024.1.5,None,2025-05-29 13h22.54.242246 +0700
1,1,75,word/wordth0751.png,4,0,77,77,77,195.4215567,,,,,,,195.4215567,195.4215567,196.4054462,196.4295623,196.4295623,196.4295623,196.4295623,197.1061169,x,0.674342541,None,196.4295623,196.4295623,,,,,,,,ypth,1,2025-05-29_13h22.45.849,MainFlow,2024.1.5,None,2025-05-29 13h22.54.242246 +0700
1,1,95,word/wordth0951.png,6,0,78,78,78,197.1130266,,,,,,,197.1130266,197.1130266,198.0928788,198.1163959,198.1163959,198.1163959,198.1163959,199.2965662,z,1.17226425,None,,,,,,,,,,ypth,1,2025-05-29_13h22.45.849,MainFlow,2024.1.5,None,2025-05-29 13h22.54.242246 +0700
1,2,8,word/wordth0082.png,6,0,79,79,79,199.3049317,,,,,,,199.3049317,199.3049317,200.2886153,200.3126453,200.3126453,200.3126453,200.3126453,200.9392954,x,0.623485666,None,200.3126453,200.3126453,,,,,,,,ypth,1,2025-05-29_13h22.45.849,MainFlow,2024.1.5,None,2025-05-29 13h22.54.242246 +0700
1,3,75,word/wordth0753.png,4,0,80,80,80,200.946308,,,,,,,200.946308,200.946308,201.9259766,201.9487029,201.9487029,201.9487029,201.9487029,205.5393293,x,3.578504041,None,,,,,,,,,,ypth,1,2025-05-29_13h22.45.849,MainFlow,2024.1.5,None,2025-05-29 13h22.54.242246 +0700
1,1,28,word/wordth0281.png,7,0,81,81,81,205.544242,,,,,,,205.544242,205.544242,206.5260485,206.5498886,206.5498886,206.5498886,206.5498886,207.8559071,z,1.297453875,None,,,,,,,,,,ypth,1,2025-05-29_13h22.45.849,MainFlow,2024.1.5,None,2025-05-29 13h22.54.242246 +0700
1,3,42,word/wordth0423.png,3,0,82,82,82,207.8629448,,,,,,,207.8629448,207.8629448,208.8431553,208.8675608,208.8675608,208.8675608,208.8675608,214.4556235,x,5.580447917,None,,,,,,,,,,ypth,1,2025-05-29_13h22.45.849,MainFlow,2024.1.5,None,2025-05-29 13h22.54.242246 +0700
1,3,46,word/wordth0463.png,5,0,83,83,83,214.4626825,,,,,,,214.4626825,214.4626825,215.4425835,215.4666347,215.4666347,215.4666347,215.4666347,216.462739,x,0.98943225,None,,,,,,,,,,ypth,1,2025-05-29_13h22.45.849,MainFlow,2024.1.5,None,2025-05-29 13h22.54.242246 +0700
1,3,1,word/wordth0013.png,5,0,84,84,84,216.4715652,,,,,,,216.4715652,216.4715652,217.4551112,217.4789844,217.4789844,217.4789844,217.4789844,218.0890551,x,0.600413208,None,217.4789844,217.4789844,,,,,,,,ypth,1,2025-05-29_13h22.45.849,MainFlow,2024.1.5,None,2025-05-29 13h22.54.242246 +0700
1,2,70,word/wordth0702.png,6,0,85,85,85,218.0964932,,,,,,,218.0964932,218.0964932,219.0763685,219.0995763,219.0995763,219.0995763,219.0995763,220.2058162,x,1.098629708,None,,,,,,,,,,ypth,1,2025-05-29_13h22.45.849,MainFlow,2024.1.5,None,2025-05-29 13h22.54.242246 +0700
1,1,7,word/wordth0071.png,4,0,86,86,86,220.2134839,,,,,,,220.2134839,220.2134839,221.1930698,221.2169824,221.2169824,221.2169824,221.2169824,222.0725656,z,0.845993041,None,,,,,,,,,,ypth,1,2025-05-29_13h22.45.849,MainFlow,2024.1.5,None,2025-05-29 13h22.54.242246 +0700
1,2,7,word/wordth0072.png,4,0,87,87,87,222.0797799,,,,,,,222.0797799,222.0797799,223.0596121,223.0834417,223.0834417,223.0834417,223.0834417,223.9225629,x,0.836615125,None,,,,,,,,,,ypth,1,2025-05-29_13h22.45.849,MainFlow,2024.1.5,None,2025-05-29 13h22.54.242246 +0700
1,2,24,word/wordth0242.png,7,0,88,88,88,223.9298817,,,,,,,223.9298817,223.9298817,224.9093803,224.9331319,224.9331319,224.9331319,224.9331319,225.6964721,x,0.755587292,None,,,,,,,,,,ypth,1,2025-05-29_13h22.45.849,MainFlow,2024.1.5,None,2025-05-29 13h22.54.242246 +0700
1,3,26,word/wordth0263.png,5,0,89,89,89,225.7047753,,,,,,,225.7047753,225.7047753,226.6885354,226.712707,226.712707,226.712707,226.712707,227.2892129,x,0.567177208,None,226.712707,226.712707,,,,,,,,ypth,1,2025-05-29_13h22.45.849,MainFlow,2024.1.5,None,2025-05-29 13h22.54.242246 +0700
1,2,23,word/wordth0232.png,7,0,90,90,90,227.2965272,,,,,,,227.2965272,227.2965272,228.2764958,228.3010135,228.3010135,228.3010135,228.3010135,228.8059407,x,0.498112958,None,,,,,,,,,,ypth,1,2025-05-29_13h22.45.849,MainFlow,2024.1.5,None,2025-05-29 13h22.54.242246 +0700
1,2,75,word/wordth0752.png,4,0,91,91,91,228.8132494,,,,,,,228.8132494,228.8132494,229.7924665,229.8158519,229.8158519,229.8158519,229.8158519,230.955689,x,1.127876708,None,,,,,,,,,,ypth,1,2025-05-29_13h22.45.849,MainFlow,2024.1.5,None,2025-05-29 13h22.54.242246 +0700
1,2,6,word/wordth0062.png,5,0,92,92,92,230.960175,,,,,,,230.960175,230.960175,231.9424478,231.965766,231.965766,231.965766,231.965766,232.5387455,x,0.570454209,None,,,,,,,,,,ypth,1,2025-05-29_13h22.45.849,MainFlow,2024.1.5,None,2025-05-29 13h22.54.242246 +0700
1,2,93,word/wordth0932.png,4,0,93,93,93,232.5455805,,,,,,,232.5455805,232.5455805,233.5216641,233.5457213,233.5457213,233.5457213,233.5457213,234.3057662,x,0.758555959,None,,,,,,,,,,ypth,1,2025-05-29_13h22.45.849,MainFlow,2024.1.5,None,2025-05-29 13h22.54.242246 +0700
1,2,48,word/wordth0482.png,5,0,94,94,94,234.3127777,,,,,,,234.3127777,234.3127777,235.2928729,235.3169712,235.3169712,235.3169712,235.3169712,235.8795232,x,0.556057834,None,,,,,,,,,,ypth,1,2025-05-29_13h22.45.849,MainFlow,2024.1.5,None,2025-05-29 13h22.54.242246 +0700
1,1,70,word/wordth0701.png,6,0,95,95,95,235.88787,,,,,,,235.88787,235.88787,236.8717369,236.895845,236.895845,236.895845,236.895845,238.0056779,z,1.103425166,None,236.895845,236.895845,,,,,,,,ypth,1,2025-05-29_13h22.45.849,MainFlow,2024.1.5,None,2025-05-29 13h22.54.242246 +0700
1,2,66,word/wordth0662.png,5,0,96,96,96,238.0129167,,,,,,,238.0129167,238.0129167,238.9925054,239.016115,239.016115,239.016115,239.016115,240.2724236,x,1.2471855,None,,,,,,,,,,ypth,1,2025-05-29_13h22.45.849,MainFlow,2024.1.5,None,2025-05-29 13h22.54.242246 +0700
1,1,26,word/wordth0261.png,5,0,97,97,97,240.2795915,,,,,,,240.2795915,240.2795915,241.2589829,241.2827706,241.2827706,241.2827706,241.2827706,242.0557605,z,0.764534,None,,,,,,,,,,ypth,1,2025-05-29_13h22.45.849,MainFlow,2024.1.5,None,2025-05-29 13h22.54.242246 +0700
1,3,9,word/wordth0093.png,6,0,98,98,98,242.0627093,,,,,,,242.0627093,242.0627093,243.0423744,243.0654774,243.0654774,243.0654774,243.0654774,243.9222159,x,0.854079416,None,,,,,,,,,,ypth,1,2025-05-29_13h22.45.849,MainFlow,2024.1.5,None,2025-05-29 13h22.54.242246 +0700
1,2,61,word/wordth0612.png,7,0,99,99,99,243.9295092,,,,,,,243.9295092,243.9295092,244.909449,244.9340029,244.9340029,244.9340029,244.9340029,245.5221597,x,0.576557875,None,,,,,,,,,,ypth,1,2025-05-29_13h22.45.849,MainFlow,2024.1.5,None,2025-05-29 13h22.54.242246 +0700
1,3,8,word/wordth0083.png,6,0,100,100,100,245.5265028,,,,,,,245.5265028,245.5265028,246.5091704,246.5329758,246.5329758,246.5329758,246.5329758,247.0294652,x,0.490062166,None,,,,,,,,,,ypth,1,2025-05-29_13h22.45.849,MainFlow,2024.1.5,None,2025-05-29 13h22.54.242246 +0700
1,1,8,word/wordth0081.png,6,0,101,101,101,247.0378053,,,,,,,247.0378053,247.0378053,248.0215634,248.0455525,248.0455525,248.0455525,248.0455525,249.0270775,z,0.977663583,None,248.0455525,248.0455525,,,,,,,,ypth,1,2025-05-29_13h22.45.849,MainFlow,2024.1.5,None,2025-05-29 13h22.54.242246 +0700
1,2,44,word/wordth0442.png,5,0,102,102,102,249.0379436,,,,,,,249.0379436,249.0379436,250.0216392,250.0457469,250.0457469,250.0457469,250.0457469,251.1220995,x,1.064878917,None,250.0457469,250.0457469,,,,,,,,ypth,1,2025-05-29_13h22.45.849,MainFlow,2024.1.5,None,2025-05-29 13h22.54.242246 +0700
1,3,31,word/wordth0313.png,7,0,103,103,103,251.1264445,,,,,,,251.1264445,251.1264445,252.1095868,252.1342677,252.1342677,252.1342677,252.1342677,252.66343,x,0.520801084,None,252.1342677,252.1342677,,,,,,,,ypth,1,2025-05-29_13h22.45.849,MainFlow,2024.1.5,None,2025-05-29 13h22.54.242246 +0700
1,1,89,word/wordth0891.png,7,0,104,104,104,252.6711752,,,,,,,252.6711752,252.6711752,253.6550056,253.6788637,253.6788637,253.6788637,253.6788637,254.5716148,z,0.880851458,None,253.6788637,253.6788637,,,,,,,,ypth,1,2025-05-29_13h22.45.849,MainFlow,2024.1.5,None,2025-05-29 13h22.54.242246 +0700
1,3,70,word/wordth0703.png,7,0,105,105,105,254.5759183,,,,,,,254.5759183,254.5759183,255.5549478,255.5786041,255.5786041,255.5786041,255.5786041,256.3224357,x,0.741635708,None,,,,,,,,,,ypth,1,2025-05-29_13h22.45.849,MainFlow,2024.1.5,None,2025-05-29 13h22.54.242246 +0700
1,3,68,word/wordth0683.png,4,0,106,106,106,256.3292222,,,,,,,256.3292222,256.3292222,257.3089122,257.3316085,257.3316085,257.3316085,257.3316085,257.8389573,x,0.499764208,None,,,,,,,,,,ypth,1,2025-05-29_13h22.45.849,MainFlow,2024.1.5,None,2025-05-29 13h22.54.242246 +0700
1,3,10,word/wordth0103.png,7,0,107,107,107,257.8459218,,,,,,,257.8459218,257.8459218,258.825604,258.8487719,258.8487719,258.8487719,258.8487719,259.5555652,x,0.694239542,None,,,,,,,,,,ypth,1,2025-05-29_13h22.45.849,MainFlow,2024.1.5,None,2025-05-29 13h22.54.242246 +0700
1,3,94,word/wordth0943.png,5,0,108,108,108,259.5600348,,,,,,,259.5600348,259.5600348,260.5425364,260.5656433,260.5656433,260.5656433,260.5656433,263.2103597,x,2.641426584,None,,,,,,,,,,ypth,1,2025-05-29_13h22.45.849,MainFlow,2024.1.5,None,2025-05-29 13h22.54.242246 +0700
1,1,3,word/wordth0031.png,3,0,109,109,109,263.2211525,,,,,,,263.2211525,263.2211525,264.2048176,264.228187,264.228187,264.228187,264.228187,265.0887612,z,0.850283917,None,264.228187,264.228187,,,,,,,,ypth,1,2025-05-29_13h22.45.849,MainFlow,2024.1.5,None,2025-05-29 13h22.54.242246 +0700
1,3,63,word/wordth0633.png,4,0,110,110,110,265.0960104,,,,,,,265.0960104,265.0960104,266.0754652,266.0981678,266.0981678,266.0981678,266.0981678,266.7386584,x,0.637844666,None,,,,,,,,,,ypth,1,2025-05-29_13h22.45.849,MainFlow,2024.1.5,None,2025-05-29 13h22.54.242246 +0700
1,2,9,word/wordth0092.png,6,0,111,111,111,266.7456469,,,,,,,266.7456469,266.7456469,267.7255656,267.7488783,267.7488783,267.7488783,267.7488783,268.4462383,x,0.690373291,None,,,,,,,,,,ypth,1,2025-05-29_13h22.45.849,MainFlow,2024.1.5,None,2025-05-29 13h22.54.242246 +0700
1,3,7,word/wordth0073.png,4,0,112,112,112,268.4545986,,,,,,,268.4545986,268.4545986,269.4382168,269.4615115,269.4615115,269.4615115,269.4615115,270.0461955,x,0.577722959,None,269.4615115,269.4615115,,,,,,,,ypth,1,2025-05-29_13h22.45.849,MainFlow,2024.1.5,None,2025-05-29 13h22.54.242246 +0700
1,2,41,word/wordth0412.png,5,0,113,113,113,270.054405,,,,,,,270.054405,270.054405,271.038155,271.0611528,271.0611528,271.0611528,271.0611528,271.9554396,x,0.881936417,None,271.0611528,271.0611528,,,,,,,,ypth,1,2025-05-29_13h22.45.849,MainFlow,2024.1.5,None,2025-05-29 13h22.54.242246 +0700
1,1,9,word/wordth0091.png,6,0,114,114,114,271.9598518,,,,,,,271.9598518,271.9598518,272.94223,272.9650984,272.9650984,272.9650984,272.9650984,276.9389567,z,3.970181584,None,,,,,,,,,,ypth,1,2025-05-29_13h22.45.849,MainFlow,2024.1.5,None,2025-05-29 13h22.54.242246 +0700
1,1,94,word/wordth0941.png,5,0,115,115,115,276.9464532,,,,,,,276.9464532,276.9464532,277.9258945,277.9496947,277.9496947,277.9496947,277.9496947,278.7602645,z,0.809155792,None,,,,,,,,,,ypth,1,2025-05-29_13h22.45.849,MainFlow,2024.1.5,None,2025-05-29 13h22.54.242246 +0700
1,1,52,word/wordth0521.png,5,0,116,116,116,278.7711119,,,,,,,278.7711119,278.7711119,279.7548902,279.778635,279.778635,279.778635,279.778635,280.8459212,z,1.059682666,None,279.778635,279.778635,,,,,,,,ypth,1,2025-05-29_13h22.45.849,MainFlow,2024.1.5,None,2025-05-29 13h22.54.242246 +0700
1,2,88,word/wordth0882.png,6,0,117,117,117,280.8543579,,,,,,,280.8543579,280.8543579,281.8380935,281.862527,281.862527,281.862527,281.862527,282.7054497,x,0.831988083,None,281.862527,281.862527,,,,,,,,ypth,1,2025-05-29_13h22.45.849,MainFlow,2024.1.5,None,2025-05-29 13h22.54.242246 +0700
1,1,41,word/wordth0411.png,5,0,118,118,118,282.7127006,,,,,,,282.7127006,282.7127006,283.6927113,283.7171365,283.7171365,283.7171365,283.7171365,284.5387301,z,0.809948625,None,,,,,,,,,,ypth,1,2025-05-29_13h22.45.849,MainFlow,2024.1.5,None,2025-05-29 13h22.54.242246 +0700
1,3,30,word/wordth0303.png,4,0,119,119,119,284.5433859,,,,,,,284.5433859,284.5433859,285.5254498,285.5492672,285.5492672,285.5492672,285.5492672,286.2220325,z,0.665732083,None,,,,,,,,,,ypth,1,2025-05-29_13h22.45.849,MainFlow,2024.1.5,None,2025-05-29 13h22.54.242246 +0700
,,,,,,,,,,,,,,,,,,,,,,,,,,,,,286.2223513,286.2286644,286.2286644,293.3555749,space,7.115049291,None,ypth,1,2025-05-29_13h22.45.849,MainFlow,2024.1.5,None,2025-05-29 13h22.54.242246 +0700
