lang,stimuli,imageid,worddir,trials.thisRepN,trials.thisTrialN,trials.thisN,trials.thisIndex,thisRow.t,notes,tutorial.started,tutorial.stopped,key_instruct.keys,key_instruct.rt,key_instruct.duration,instructblank.started,cross1.started,letterselect.started,imageword.started,text_2.started,cross2.started,key_resp.started,letterselect.stopped,key_resp.keys,key_resp.rt,key_resp.duration,instructblank.stopped,cross1.stopped,ending.started,text_3.started,ending_key.started,ending.stopped,ending_key.keys,ending_key.rt,ending_key.duration,participant,session,date,expName,psychopyVersion,frameRate,expStart,
,,,,,,,,,,0.004105874999822845,20.854709125,space,20.805702999999994,None,,,,,,,,,,,,,,,,,,,,,yupa_th,240768,2025-07-24_13h37.24.663,MainFlow,2024.1.5,None,2025-07-24 13h37.46.727408 +0700,
1,3,89,word/wordth0893.png,0,0,0,0,20.89425366699993,,,,,,,20.89425366699993,20.89425366699993,21.837872499999776,21.875186832999816,21.875186832999816,21.875186832999816,21.875186832999816,23.504985874999875,x,1.6192516670000714,None,,,,,,,,,,yupa_th,240768,2025-07-24_13h37.24.663,MainFlow,2024.1.5,None,2025-07-24 13h37.46.727408 +0700,
1,3,28,word/wordth0283.png,0,1,1,1,23.512724124999977,,,,,,,23.512724124999977,23.512724124999977,24.491981332999785,24.51665720799997,24.51665720799997,24.51665720799997,24.51665720799997,26.343094832999896,x,1.8251712910000606,None,,,,,,,,,,yupa_th,240768,2025-07-24_13h37.24.663,MainFlow,2024.1.5,None,2025-07-24 13h37.46.727408 +0700,
1,2,87,word/wordth0872.png,0,2,2,2,26.354130749999968,,,,,,,26.354130749999968,26.354130749999968,27.33778099999995,27.364948541999865,27.364948541999865,27.364948541999865,27.364948541999865,40.0549350419999,x,12.681923374999997,None,27.364948541999865,27.364948541999865,,,,,,,,yupa_th,240768,2025-07-24_13h37.24.663,MainFlow,2024.1.5,None,2025-07-24 13h37.46.727408 +0700,
1,2,68,word/wordth0682.png,0,3,3,3,40.06212362499991,,,,,,,40.06212362499991,40.06212362499991,41.04179416699981,41.06719033299987,41.06719033299987,41.06719033299987,41.06719033299987,42.13821574999997,x,1.0679832089999763,None,,,,,,,,,,yupa_th,240768,2025-07-24_13h37.24.663,MainFlow,2024.1.5,None,2025-07-24 13h37.46.727408 +0700,
1,2,11,word/wordth0112.png,0,4,4,4,42.14514070799987,,,,,,,42.14514070799987,42.14514070799987,43.12562587499997,43.14913291699986,43.14913291699986,43.14913291699986,43.14913291699986,44.159918957999935,x,1.0095419579999998,None,,,,,,,,,,yupa_th,240768,2025-07-24_13h37.24.663,MainFlow,2024.1.5,None,2025-07-24 13h37.46.727408 +0700,
1,3,11,word/wordth0113.png,0,5,5,5,44.17060637499981,,,,,,,44.17060637499981,44.17060637499981,45.154326874999924,45.178278957999964,45.178278957999964,45.178278957999964,45.178278957999964,46.07898116699994,x,0.8934047090001513,None,45.178278957999964,45.178278957999964,,,,,,,,yupa_th,240768,2025-07-24_13h37.24.663,MainFlow,2024.1.5,None,2025-07-24 13h37.46.727408 +0700,
1,2,71,word/wordth0712.png,0,6,6,6,46.087322791999895,,,,,,,46.087322791999895,46.087322791999895,47.070938499999784,47.09514495799999,47.09514495799999,47.09514495799999,47.09514495799999,47.9550046249999,x,0.8477942919998895,None,47.09514495799999,47.09514495799999,,,,,,,,yupa_th,240768,2025-07-24_13h37.24.663,MainFlow,2024.1.5,None,2025-07-24 13h37.46.727408 +0700,
1,3,44,word/wordth0443.png,0,7,7,7,47.95939899999985,,,,,,,47.95939899999985,47.95939899999985,48.941765999999916,48.96617674999993,48.96617674999993,48.96617674999993,48.96617674999993,50.27175929199984,x,1.2966830420000406,None,,,,,,,,,,yupa_th,240768,2025-07-24_13h37.24.663,MainFlow,2024.1.5,None,2025-07-24 13h37.46.727408 +0700,
1,2,82,word/wordth0822.png,0,8,8,8,50.279115542,,,,,,,50.279115542,50.279115542,51.25889245799999,51.28241949999983,51.28241949999983,51.28241949999983,51.28241949999983,52.50502041699997,x,1.2206790000000183,None,,,,,,,,,,yupa_th,240768,2025-07-24_13h37.24.663,MainFlow,2024.1.5,None,2025-07-24 13h37.46.727408 +0700,
1,2,28,word/wordth0282.png,0,9,9,9,52.51189274999979,,,,,,,52.51189274999979,52.51189274999979,53.49204008299989,53.51620091699988,53.51620091699988,53.51620091699988,53.51620091699988,54.48813729199992,x,0.9705464169999232,None,,,,,,,,,,yupa_th,240768,2025-07-24_13h37.24.663,MainFlow,2024.1.5,None,2025-07-24 13h37.46.727408 +0700,
1,1,23,word/wordth0231.png,0,10,10,10,54.49531720799996,,,,,,,54.49531720799996,54.49531720799996,55.47506424999983,55.49858874999995,55.49858874999995,55.49858874999995,55.49858874999995,56.43842004199996,x,0.9319024999999783,None,,,,,,,,,,yupa_th,240768,2025-07-24_13h37.24.663,MainFlow,2024.1.5,None,2025-07-24 13h37.46.727408 +0700,
1,2,63,word/wordth0632.png,0,11,11,11,56.445861082999954,,,,,,,56.445861082999954,56.445861082999954,57.42510433299981,57.448708916999976,57.448708916999976,57.448708916999976,57.448708916999976,59.56007883299981,x,2.1100485829999798,None,,,,,,,,,,yupa_th,240768,2025-07-24_13h37.24.663,MainFlow,2024.1.5,None,2025-07-24 13h37.46.727408 +0700,
1,3,71,word/wordth0713.png,0,12,12,12,59.57049079199987,,,,,,,59.57049079199987,59.57049079199987,60.5544061669998,60.57901899999979,60.57901899999979,60.57901899999979,60.57901899999979,61.438239458,x,0.8515569589999359,None,60.57901899999979,60.57901899999979,,,,,,,,yupa_th,240768,2025-07-24_13h37.24.663,MainFlow,2024.1.5,None,2025-07-24 13h37.46.727408 +0700,
1,1,1,word/wordth0011.png,0,13,13,13,61.445500166999864,,,,,,,61.445500166999864,61.445500166999864,62.425458416999845,62.44908295799996,62.44908295799996,62.44908295799996,62.44908295799996,66.5382441669999,z,4.077539958999978,None,,,,,,,,,,yupa_th,240768,2025-07-24_13h37.24.663,MainFlow,2024.1.5,None,2025-07-24 13h37.46.727408 +0700,
1,3,41,word/wordth0413.png,0,14,14,14,66.54272929199988,,,,,,,66.54272929199988,66.54272929199988,67.52538179199996,67.54948474999992,67.54948474999992,67.54948474999992,67.54948474999992,68.55486329199994,x,1.0009096250000766,None,,,,,,,,,,yupa_th,240768,2025-07-24_13h37.24.663,MainFlow,2024.1.5,None,2025-07-24 13h37.46.727408 +0700,
1,2,64,word/wordth0642.png,0,15,15,15,68.56165829199995,,,,,,,68.56165829199995,68.56165829199995,69.54155012499996,69.56493212499981,69.56493212499981,69.56493212499981,69.56493212499981,70.40943654199987,x,0.8407884999999169,None,,,,,,,,,,yupa_th,240768,2025-07-24_13h37.24.663,MainFlow,2024.1.5,None,2025-07-24 13h37.46.727408 +0700,
1,3,6,word/wordth0063.png,0,16,16,16,70.42055233299993,,,,,,,70.42055233299993,70.42055233299993,71.40419754199979,71.42855937499985,71.42855937499985,71.42855937499985,71.42855937499985,73.0459008329999,x,1.6089407919998848,None,71.42855937499985,71.42855937499985,,,,,,,,yupa_th,240768,2025-07-24_13h37.24.663,MainFlow,2024.1.5,None,2025-07-24 13h37.46.727408 +0700,
1,2,31,word/wordth0312.png,0,17,17,17,73.05368824999982,,,,,,,73.05368824999982,73.05368824999982,74.03752337499986,74.06214416699981,74.06214416699981,74.06214416699981,74.06214416699981,74.77152162499988,x,0.7045694170001298,None,74.06214416699981,74.06214416699981,,,,,,,,yupa_th,240768,2025-07-24_13h37.24.663,MainFlow,2024.1.5,None,2025-07-24 13h37.46.727408 +0700,
1,1,46,word/wordth0461.png,0,18,18,18,74.77911883299998,,,,,,,74.77911883299998,74.77911883299998,75.75867933299992,75.78270241699988,75.78270241699988,75.78270241699988,75.78270241699988,81.61218883299989,z,5.822868333000088,None,,,,,,,,,,yupa_th,240768,2025-07-24_13h37.24.663,MainFlow,2024.1.5,None,2025-07-24 13h37.46.727408 +0700,
1,3,51,word/wordth0513.png,0,19,19,19,81.62037712499978,,,,,,,81.62037712499978,81.62037712499978,82.6041980829998,82.62748324999984,82.62748324999984,82.62748324999984,82.62748324999984,84.08788462499979,x,1.4509606670001176,None,82.62748324999984,82.62748324999984,,,,,,,,yupa_th,240768,2025-07-24_13h37.24.663,MainFlow,2024.1.5,None,2025-07-24 13h37.46.727408 +0700,
1,2,26,word/wordth0262.png,0,20,20,20,84.095063708,,,,,,,84.095063708,84.095063708,85.07469812499994,85.09762470799978,85.09762470799978,85.09762470799978,85.09762470799978,86.55482979199996,x,1.4535929579999447,None,,,,,,,,,,yupa_th,240768,2025-07-24_13h37.24.663,MainFlow,2024.1.5,None,2025-07-24 13h37.46.727408 +0700,
1,2,96,word/wordth0962.png,0,21,21,21,86.56223849999992,,,,,,,86.56223849999992,86.56223849999992,87.54188924999994,87.56607912499999,87.56607912499999,87.56607912499999,87.56607912499999,88.33804566699996,x,0.7598838750000141,None,,,,,,,,,,yupa_th,240768,2025-07-24_13h37.24.663,MainFlow,2024.1.5,None,2025-07-24 13h37.46.727408 +0700,
1,1,31,word/wordth0311.png,0,22,22,22,88.34253166699978,,,,,,,88.34253166699978,88.34253166699978,89.3234934579998,89.33623583299982,89.33623583299982,89.33623583299982,89.33623583299982,91.6546408329998,z,2.3097579999998743,None,,,,,,,,,,yupa_th,240768,2025-07-24_13h37.24.663,MainFlow,2024.1.5,None,2025-07-24 13h37.46.727408 +0700,
1,2,94,word/wordth0942.png,0,23,23,23,91.6596714169998,,,,,,,91.6596714169998,91.6596714169998,92.64111195799978,92.65484225,92.65484225,92.65484225,92.65484225,124.85441124999988,x,32.19227595799998,None,,,,,,,,,,yupa_th,240768,2025-07-24_13h37.24.663,MainFlow,2024.1.5,None,2025-07-24 13h37.46.727408 +0700,
1,3,48,word/wordth0483.png,0,24,24,24,124.86186241699988,,,,,,,124.86186241699988,124.86186241699988,125.84176758299986,125.86578487499992,125.86578487499992,125.86578487499992,125.86578487499992,126.70454599999994,x,0.8372655419998409,None,,,,,,,,,,yupa_th,240768,2025-07-24_13h37.24.663,MainFlow,2024.1.5,None,2025-07-24 13h37.46.727408 +0700,
1,3,24,word/wordth0243.png,0,25,25,25,126.71188308299998,,,,,,,126.71188308299998,126.71188308299998,127.69157433299983,127.7157908329998,127.7157908329998,127.7157908329998,127.7157908329998,129.278440542,x,1.5551503750000393,None,,,,,,,,,,yupa_th,240768,2025-07-24_13h37.24.663,MainFlow,2024.1.5,None,2025-07-24 13h37.46.727408 +0700,
1,1,87,word/wordth0871.png,0,26,26,26,129.28684841699987,,,,,,,129.28684841699987,129.28684841699987,130.27059179199978,130.29543487499996,130.29543487499996,130.29543487499996,130.29543487499996,132.69524870799978,z,2.392358958999921,None,130.29543487499996,130.29543487499996,,,,,,,,yupa_th,240768,2025-07-24_13h37.24.663,MainFlow,2024.1.5,None,2025-07-24 13h37.46.727408 +0700,
1,2,51,word/wordth0512.png,0,27,27,27,132.70327629199983,,,,,,,132.70327629199983,132.70327629199983,133.68732424999985,133.71216191699978,133.71216191699978,133.71216191699978,133.71216191699978,149.22590512499983,x,15.50982699999986,None,133.71216191699978,133.71216191699978,,,,,,,,yupa_th,240768,2025-07-24_13h37.24.663,MainFlow,2024.1.5,None,2025-07-24 13h37.46.727408 +0700,
1,3,27,word/wordth0273.png,0,28,28,28,149.2365608749999,,,,,,,149.2365608749999,149.2365608749999,150.22038958299981,150.2439002079998,150.2439002079998,150.2439002079998,150.2439002079998,157.38761016699982,x,7.137448749999976,None,150.2439002079998,150.2439002079998,,,,,,,,yupa_th,240768,2025-07-24_13h37.24.663,MainFlow,2024.1.5,None,2025-07-24 13h37.46.727408 +0700,
1,2,22,word/wordth0222.png,0,29,29,29,157.3952502919999,,,,,,,157.3952502919999,157.3952502919999,158.37469899999996,158.3984700829999,158.3984700829999,158.3984700829999,158.3984700829999,159.5759039579998,x,1.1760340000000724,None,,,,,,,,,,yupa_th,240768,2025-07-24_13h37.24.663,MainFlow,2024.1.5,None,2025-07-24 13h37.46.727408 +0700,
1,3,23,word/wordth0233.png,0,30,30,30,159.58654958299985,,,,,,,159.58654958299985,159.58654958299985,160.5704982079999,160.59464212499984,160.59464212499984,160.59464212499984,160.59464212499984,167.02095458299982,x,6.419687084000088,None,160.59464212499984,160.59464212499984,,,,,,,,yupa_th,240768,2025-07-24_13h37.24.663,MainFlow,2024.1.5,None,2025-07-24 13h37.46.727408 +0700,
1,1,48,word/wordth0481.png,0,31,31,31,167.02830208299997,,,,,,,167.02830208299997,167.02830208299997,168.008495542,168.03343637499984,168.03343637499984,168.03343637499984,168.03343637499984,174.17095654199989,z,6.12513312499982,None,,,,,,,,,,yupa_th,240768,2025-07-24_13h37.24.663,MainFlow,2024.1.5,None,2025-07-24 13h37.46.727408 +0700,
1,2,10,word/wordth0102.png,0,32,32,32,174.1754485419999,,,,,,,174.1754485419999,174.1754485419999,175.15830591699978,175.18258387499986,175.18258387499986,175.18258387499986,175.18258387499986,179.20435937499997,x,4.015478083000062,None,175.18258387499986,175.18258387499986,,,,,,,,yupa_th,240768,2025-07-24_13h37.24.663,MainFlow,2024.1.5,None,2025-07-24 13h37.46.727408 +0700,
1,3,64,word/wordth0643.png,0,33,33,33,179.21146649999991,,,,,,,179.21146649999991,179.21146649999991,180.19155041699992,180.21499541699995,180.21499541699995,180.21499541699995,180.21499541699995,185.987367167,x,5.767306374999862,None,,,,,,,,,,yupa_th,240768,2025-07-24_13h37.24.663,MainFlow,2024.1.5,None,2025-07-24 13h37.46.727408 +0700,
1,3,22,word/wordth0223.png,0,34,34,34,185.99440541699983,,,,,,,185.99440541699983,185.99440541699983,186.97429454199983,186.99686845799988,186.99686845799988,186.99686845799988,186.99686845799988,187.92079949999993,x,0.9126579160001711,None,,,,,,,,,,yupa_th,240768,2025-07-24_13h37.24.663,MainFlow,2024.1.5,None,2025-07-24 13h37.46.727408 +0700,
1,1,42,word/wordth0421.png,0,35,35,35,187.9281780419999,,,,,,,187.9281780419999,187.9281780419999,188.90817937499992,188.9324029999998,188.9324029999998,188.9324029999998,188.9324029999998,190.60859374999995,z,1.673844999999801,None,,,,,,,,,,yupa_th,240768,2025-07-24_13h37.24.663,MainFlow,2024.1.5,None,2025-07-24 13h37.46.727408 +0700,
1,2,1,word/wordth0012.png,0,36,36,36,190.61967174999995,,,,,,,190.61967174999995,190.61967174999995,191.60362487499992,191.62780124999995,191.62780124999995,191.62780124999995,191.62780124999995,193.92065141699982,x,2.2903771669998605,None,191.62780124999995,191.62780124999995,,,,,,,,yupa_th,240768,2025-07-24_13h37.24.663,MainFlow,2024.1.5,None,2025-07-24 13h37.46.727408 +0700,
1,1,82,word/wordth0821.png,0,37,37,37,193.92769395799996,,,,,,,193.92769395799996,193.92769395799996,194.90759720799997,194.93075474999978,194.93075474999978,194.93075474999978,194.93075474999978,196.82549595799992,z,1.8916002079999998,None,,,,,,,,,,yupa_th,240768,2025-07-24_13h37.24.663,MainFlow,2024.1.5,None,2025-07-24 13h37.46.727408 +0700,
1,2,3,word/wordth0032.png,0,38,38,38,196.83644624999988,,,,,,,196.83644624999988,196.83644624999988,197.82011437499978,197.84323833299982,197.84323833299982,197.84323833299982,197.84323833299982,199.60900145799997,x,1.7630261669999072,None,197.84323833299982,197.84323833299982,,,,,,,,yupa_th,240768,2025-07-24_13h37.24.663,MainFlow,2024.1.5,None,2025-07-24 13h37.46.727408 +0700,
1,1,68,word/wordth0681.png,0,39,39,39,199.61963416699996,,,,,,,199.61963416699996,199.61963416699996,200.60365712499993,200.62786320799978,200.62786320799978,200.62786320799978,200.62786320799978,202.83746299999984,z,2.2020113339999625,None,200.62786320799978,200.62786320799978,,,,,,,,yupa_th,240768,2025-07-24_13h37.24.663,MainFlow,2024.1.5,None,2025-07-24 13h37.46.727408 +0700,
1,1,66,word/wordth0661.png,0,40,40,40,202.84470229199997,,,,,,,202.84470229199997,202.84470229199997,203.82436195799983,203.84795499999996,203.84795499999996,203.84795499999996,203.84795499999996,206.820710083,z,2.9665153339999506,None,,,,,,,,,,yupa_th,240768,2025-07-24_13h37.24.663,MainFlow,2024.1.5,None,2025-07-24 13h37.46.727408 +0700,
1,2,42,word/wordth0422.png,0,41,41,41,206.82803154199996,,,,,,,206.82803154199996,206.82803154199996,207.8082364999998,207.83248758299987,207.83248758299987,207.83248758299987,207.83248758299987,209.10402420799983,x,1.260907583000062,None,,,,,,,,,,yupa_th,240768,2025-07-24_13h37.24.663,MainFlow,2024.1.5,None,2025-07-24 13h37.46.727408 +0700,
1,3,93,word/wordth0933.png,0,42,42,42,209.11107987499986,,,,,,,209.11107987499986,209.11107987499986,210.09076945799984,210.1141141249998,210.1141141249998,210.1141141249998,210.1141141249998,214.2874754579998,x,4.16449191699985,None,,,,,,,,,,yupa_th,240768,2025-07-24_13h37.24.663,MainFlow,2024.1.5,None,2025-07-24 13h37.46.727408 +0700,
1,1,71,word/wordth0711.png,0,43,43,43,214.29478208299997,,,,,,,214.29478208299997,214.29478208299997,215.27402708299996,215.2971480829999,215.2971480829999,215.2971480829999,215.2971480829999,233.64499824999984,x,18.340581250000014,None,,,,,,,,,,yupa_th,240768,2025-07-24_13h37.24.663,MainFlow,2024.1.5,None,2025-07-24 13h37.46.727408 +0700,
1,1,64,word/wordth0641.png,0,44,44,44,233.65291024999988,,,,,,,233.65291024999988,233.65291024999988,234.63659133299984,234.66079391699986,234.66079391699986,234.66079391699986,234.66079391699986,237.43744249999986,z,2.7691150420000668,None,234.66079391699986,234.66079391699986,,,,,,,,yupa_th,240768,2025-07-24_13h37.24.663,MainFlow,2024.1.5,None,2025-07-24 13h37.46.727408 +0700,
1,1,88,word/wordth0881.png,0,45,45,45,237.445000833,,,,,,,237.445000833,237.445000833,238.42395754199993,238.44864141699986,238.44864141699986,238.44864141699986,238.44864141699986,242.07078887499983,z,3.6208094169999185,None,,,,,,,,,,yupa_th,240768,2025-07-24_13h37.24.663,MainFlow,2024.1.5,None,2025-07-24 13h37.46.727408 +0700,
1,3,87,word/wordth0873.png,0,46,46,46,242.07801129199993,,,,,,,242.07801129199993,242.07801129199993,243.0574734999998,243.08399433299996,243.08399433299996,243.08399433299996,243.08399433299996,244.13729116699983,x,1.0417355419999694,None,,,,,,,,,,yupa_th,240768,2025-07-24_13h37.24.663,MainFlow,2024.1.5,None,2025-07-24 13h37.46.727408 +0700,
1,3,3,word/wordth0033.png,0,47,47,47,244.1417400419998,,,,,,,244.1417400419998,244.1417400419998,245.12387112499982,245.1474576669998,245.1474576669998,245.1474576669998,245.1474576669998,246.96991716699995,z,1.810462791999953,None,,,,,,,,,,yupa_th,240768,2025-07-24_13h37.24.663,MainFlow,2024.1.5,None,2025-07-24 13h37.46.727408 +0700,
1,2,95,word/wordth0952.png,0,48,48,48,246.97426674999997,,,,,,,246.97426674999997,246.97426674999997,247.95321970799978,247.97803029199986,247.97803029199986,247.97803029199986,247.97803029199986,249.0873298749998,x,1.1008184170000277,None,,,,,,,,,,yupa_th,240768,2025-07-24_13h37.24.663,MainFlow,2024.1.5,None,2025-07-24 13h37.46.727408 +0700,
1,1,11,word/wordth0111.png,0,49,49,49,249.09444316699978,,,,,,,249.09444316699978,249.09444316699978,250.0743702919999,250.09813033299997,250.09813033299997,250.09813033299997,250.09813033299997,252.55386854199992,z,2.4441115419999733,None,,,,,,,,,,yupa_th,240768,2025-07-24_13h37.24.663,MainFlow,2024.1.5,None,2025-07-24 13h37.46.727408 +0700,
1,1,10,word/wordth0101.png,0,50,50,50,252.55826720799996,,,,,,,252.55826720799996,252.55826720799996,253.54067895799994,253.5643184999999,253.5643184999999,253.5643184999999,253.5643184999999,257.736991,z,4.170040375000099,None,,,,,,,,,,yupa_th,240768,2025-07-24_13h37.24.663,MainFlow,2024.1.5,None,2025-07-24 13h37.46.727408 +0700,
1,1,44,word/wordth0441.png,0,51,51,51,257.7442421249998,,,,,,,257.7442421249998,257.7442421249998,258.72418208299996,258.74758633299984,258.74758633299984,258.74758633299984,258.74758633299984,261.12050499999987,z,2.371145249999927,None,,,,,,,,,,yupa_th,240768,2025-07-24_13h37.24.663,MainFlow,2024.1.5,None,2025-07-24 13h37.46.727408 +0700,
1,1,96,word/wordth0961.png,0,52,52,52,261.1275625829999,,,,,,,261.1275625829999,261.1275625829999,262.107047708,262.131291875,262.131291875,262.131291875,262.131291875,269.037009208,z,6.897794541999929,None,,,,,,,,,,yupa_th,240768,2025-07-24_13h37.24.663,MainFlow,2024.1.5,None,2025-07-24 13h37.46.727408 +0700,
1,2,27,word/wordth0272.png,0,53,53,53,269.04423262499995,,,,,,,269.04423262499995,269.04423262499995,270.0238849169998,270.0474923749998,270.0474923749998,270.0474923749998,270.0474923749998,271.3868619579998,x,1.3351071670001602,None,,,,,,,,,,yupa_th,240768,2025-07-24_13h37.24.663,MainFlow,2024.1.5,None,2025-07-24 13h37.46.727408 +0700,
1,1,63,word/wordth0631.png,0,54,54,54,271.3937235829999,,,,,,,271.3937235829999,271.3937235829999,272.3738586249999,272.3963967919999,272.3963967919999,272.3963967919999,272.3963967919999,275.6606775419998,z,3.2578200830000696,None,,,,,,,,,,yupa_th,240768,2025-07-24_13h37.24.663,MainFlow,2024.1.5,None,2025-07-24 13h37.46.727408 +0700,
1,3,66,word/wordth0663.png,0,55,55,55,275.66916045799985,,,,,,,275.66916045799985,275.66916045799985,276.6531749169999,276.677547625,276.677547625,276.677547625,276.677547625,278.51110308299985,x,1.8254991660000996,None,276.677547625,276.677547625,,,,,,,,yupa_th,240768,2025-07-24_13h37.24.663,MainFlow,2024.1.5,None,2025-07-24 13h37.46.727408 +0700,
1,3,88,word/wordth0883.png,0,56,56,56,278.5193727919998,,,,,,,278.5193727919998,278.5193727919998,279.50312804199984,279.5267909999998,279.5267909999998,279.5267909999998,279.5267909999998,280.60361866699986,x,1.0710376249999172,None,279.5267909999998,279.5267909999998,,,,,,,,yupa_th,240768,2025-07-24_13h37.24.663,MainFlow,2024.1.5,None,2025-07-24 13h37.46.727408 +0700,
1,3,96,word/wordth0963.png,0,57,57,57,280.61043379199987,,,,,,,280.61043379199987,280.61043379199987,281.591019083,281.61551204199986,281.61551204199986,281.61551204199986,281.61551204199986,282.73669733299994,x,1.1186171670001386,None,,,,,,,,,,yupa_th,240768,2025-07-24_13h37.24.663,MainFlow,2024.1.5,None,2025-07-24 13h37.46.727408 +0700,
1,2,52,word/wordth0522.png,0,58,58,58,282.74353258299993,,,,,,,282.74353258299993,282.74353258299993,283.71968845799984,283.74364208299994,283.74364208299994,283.74364208299994,283.74364208299994,285.09446816699983,x,1.3427819579999323,None,,,,,,,,,,yupa_th,240768,2025-07-24_13h37.24.663,MainFlow,2024.1.5,None,2025-07-24 13h37.46.727408 +0700,
1,3,50,word/wordth0503.png,0,59,59,59,285.102588042,,,,,,,285.102588042,285.102588042,286.08652004199985,286.1122264169999,286.1122264169999,286.1122264169999,286.1122264169999,287.261010167,x,1.14200308400018,None,286.1122264169999,286.1122264169999,,,,,,,,yupa_th,240768,2025-07-24_13h37.24.663,MainFlow,2024.1.5,None,2025-07-24 13h37.46.727408 +0700,
1,3,61,word/wordth0613.png,0,60,60,60,287.2690970419999,,,,,,,287.2690970419999,287.2690970419999,288.2530305829998,288.2776979999999,288.2776979999999,288.2776979999999,288.2776979999999,289.136672333,x,0.8564915000001747,None,288.2776979999999,288.2776979999999,,,,,,,,yupa_th,240768,2025-07-24_13h37.24.663,MainFlow,2024.1.5,None,2025-07-24 13h37.46.727408 +0700,
1,2,46,word/wordth0462.png,0,61,61,61,289.143514375,,,,,,,289.143514375,289.143514375,290.1195674999999,290.14342466699986,290.14342466699986,290.14342466699986,290.14342466699986,290.853751333,x,0.7023004999998648,None,,,,,,,,,,yupa_th,240768,2025-07-24_13h37.24.663,MainFlow,2024.1.5,None,2025-07-24 13h37.46.727408 +0700,
1,1,61,word/wordth0611.png,0,62,62,62,290.86068362499987,,,,,,,290.86068362499987,290.86068362499987,291.8403448329998,291.8641404169998,291.8641404169998,291.8641404169998,291.8641404169998,295.98700699999995,z,4.11809233300005,None,,,,,,,,,,yupa_th,240768,2025-07-24_13h37.24.663,MainFlow,2024.1.5,None,2025-07-24 13h37.46.727408 +0700,
1,1,24,word/wordth0241.png,0,63,63,63,295.9943384579999,,,,,,,295.9943384579999,295.9943384579999,296.9735717499998,296.9975714579998,296.9975714579998,296.9975714579998,296.9975714579998,301.753493125,z,4.744480542000019,None,,,,,,,,,,yupa_th,240768,2025-07-24_13h37.24.663,MainFlow,2024.1.5,None,2025-07-24 13h37.46.727408 +0700,
1,2,89,word/wordth0892.png,0,64,64,64,301.7580103749999,,,,,,,301.7580103749999,301.7580103749999,302.7402534999999,302.7641247079998,302.7641247079998,302.7641247079998,302.7641247079998,303.7915418329999,x,1.0257604170001287,None,,,,,,,,,,yupa_th,240768,2025-07-24_13h37.24.663,MainFlow,2024.1.5,None,2025-07-24 13h37.46.727408 +0700,
1,1,30,word/wordth0301.png,0,65,65,65,303.80250245799994,,,,,,,303.80250245799994,303.80250245799994,304.78634866699986,304.8109582079999,304.8109582079999,304.8109582079999,304.8109582079999,306.3203347919998,z,1.4981848330000958,None,304.8109582079999,304.8109582079999,,,,,,,,yupa_th,240768,2025-07-24_13h37.24.663,MainFlow,2024.1.5,None,2025-07-24 13h37.46.727408 +0700,
1,1,93,word/wordth0931.png,0,66,66,66,306.32488858299985,,,,,,,306.32488858299985,306.32488858299985,307.30694641699984,307.330440792,307.330440792,307.330440792,307.330440792,309.69456883299995,z,2.3556979159998264,None,,,,,,,,,,yupa_th,240768,2025-07-24_13h37.24.663,MainFlow,2024.1.5,None,2025-07-24 13h37.46.727408 +0700,
1,1,50,word/wordth0501.png,0,67,67,67,309.7024684999999,,,,,,,309.7024684999999,309.7024684999999,310.68622304199994,310.7108006249998,310.7108006249998,310.7108006249998,310.7108006249998,319.703300208,z,8.982898707999993,None,310.7108006249998,310.7108006249998,,,,,,,,yupa_th,240768,2025-07-24_13h37.24.663,MainFlow,2024.1.5,None,2025-07-24 13h37.46.727408 +0700,
1,3,82,word/wordth0823.png,0,68,68,68,319.71043166699997,,,,,,,319.71043166699997,319.71043166699997,320.6907088749999,320.7139139169999,320.7139139169999,320.7139139169999,320.7139139169999,329.51145770799985,x,8.788559999999961,None,,,,,,,,,,yupa_th,240768,2025-07-24_13h37.24.663,MainFlow,2024.1.5,None,2025-07-24 13h37.46.727408 +0700,
1,1,27,word/wordth0271.png,0,69,69,69,329.518038167,,,,,,,329.518038167,329.518038167,330.5027625829998,330.52613675,330.52613675,330.52613675,330.52613675,331.503493125,z,0.967188207999925,None,330.52613675,330.52613675,,,,,,,,yupa_th,240768,2025-07-24_13h37.24.663,MainFlow,2024.1.5,None,2025-07-24 13h37.46.727408 +0700,
1,3,52,word/wordth0523.png,0,70,70,70,331.51074137499995,,,,,,,331.51074137499995,331.51074137499995,332.49010799999996,332.51469974999986,332.51469974999986,332.51469974999986,332.51469974999986,333.25320058299985,x,0.7316306660000009,None,,,,,,,,,,yupa_th,240768,2025-07-24_13h37.24.663,MainFlow,2024.1.5,None,2025-07-24 13h37.46.727408 +0700,
1,1,22,word/wordth0221.png,0,71,71,71,333.2600303749998,,,,,,,333.2600303749998,333.2600303749998,334.24034770799994,334.26318308299983,334.26318308299983,334.26318308299983,334.26318308299983,342.9916257919999,z,8.727024875000097,None,,,,,,,,,,yupa_th,240768,2025-07-24_13h37.24.663,MainFlow,2024.1.5,None,2025-07-24 13h37.46.727408 +0700,
1,1,6,word/wordth0061.png,0,72,72,72,343.0022879169999,,,,,,,343.0022879169999,343.0022879169999,343.986033917,344.0103702499998,344.0103702499998,344.0103702499998,344.0103702499998,345.0034089579999,z,0.9875893339999493,None,344.0103702499998,344.0103702499998,,,,,,,,yupa_th,240768,2025-07-24_13h37.24.663,MainFlow,2024.1.5,None,2025-07-24 13h37.46.727408 +0700,
1,2,30,word/wordth0302.png,0,73,73,73,345.01073237499986,,,,,,,345.01073237499986,345.01073237499986,345.98992366699986,346.0126782919999,346.0126782919999,346.0126782919999,346.0126782919999,346.81992283299996,x,0.8010522499998842,None,,,,,,,,,,yupa_th,240768,2025-07-24_13h37.24.663,MainFlow,2024.1.5,None,2025-07-24 13h37.46.727408 +0700,
1,1,51,word/wordth0511.png,0,74,74,74,346.82700424999985,,,,,,,346.82700424999985,346.82700424999985,347.8071767079998,347.8308334169999,347.8308334169999,347.8308334169999,347.8308334169999,349.57019254199986,z,1.73579391699991,None,,,,,,,,,,yupa_th,240768,2025-07-24_13h37.24.663,MainFlow,2024.1.5,None,2025-07-24 13h37.46.727408 +0700,
1,2,50,word/wordth0502.png,0,75,75,75,349.577713875,,,,,,,349.577713875,349.577713875,350.55703074999997,350.5807655419999,350.5807655419999,350.5807655419999,350.5807655419999,351.5202534169998,x,0.9288034999999581,None,,,,,,,,,,yupa_th,240768,2025-07-24_13h37.24.663,MainFlow,2024.1.5,None,2025-07-24 13h37.46.727408 +0700,
1,3,95,word/wordth0953.png,0,76,76,76,351.5273890829999,,,,,,,351.5273890829999,351.5273890829999,352.5071839999998,352.53094024999996,352.53094024999996,352.53094024999996,352.53094024999996,353.5530282079999,x,1.0107825839997986,None,,,,,,,,,,yupa_th,240768,2025-07-24_13h37.24.663,MainFlow,2024.1.5,None,2025-07-24 13h37.46.727408 +0700,
1,1,75,word/wordth0751.png,0,77,77,77,353.557495583,,,,,,,353.557495583,353.557495583,354.54065249999985,354.5646099579999,354.5646099579999,354.5646099579999,354.5646099579999,355.69403799999986,x,1.1224787090000063,None,354.5646099579999,354.5646099579999,,,,,,,,yupa_th,240768,2025-07-24_13h37.24.663,MainFlow,2024.1.5,None,2025-07-24 13h37.46.727408 +0700,
1,1,95,word/wordth0951.png,0,78,78,78,355.70201837499985,,,,,,,355.70201837499985,355.70201837499985,356.6860482919999,356.7109660829999,356.7109660829999,356.7109660829999,356.7109660829999,366.8532211249999,z,10.134391999999934,None,356.7109660829999,356.7109660829999,,,,,,,,yupa_th,240768,2025-07-24_13h37.24.663,MainFlow,2024.1.5,None,2025-07-24 13h37.46.727408 +0700,
1,2,8,word/wordth0082.png,0,79,79,79,366.86062416699997,,,,,,,366.86062416699997,366.86062416699997,367.8398363749998,367.8636574169998,367.8636574169998,367.8636574169998,367.8636574169998,368.6698046669999,x,0.7987622919999922,None,,,,,,,,,,yupa_th,240768,2025-07-24_13h37.24.663,MainFlow,2024.1.5,None,2025-07-24 13h37.46.727408 +0700,
1,3,75,word/wordth0753.png,0,80,80,80,368.6769365829998,,,,,,,368.6769365829998,368.6769365829998,369.6571273750001,369.68293912499985,369.68293912499985,369.68293912499985,369.68293912499985,375.12762833299985,x,5.436121332999846,None,,,,,,,,,,yupa_th,240768,2025-07-24_13h37.24.663,MainFlow,2024.1.5,None,2025-07-24 13h37.46.727408 +0700,
1,1,28,word/wordth0281.png,0,81,81,81,375.1354187920001,,,,,,,375.1354187920001,375.1354187920001,376.11928895799974,376.14350958299974,376.14350958299974,376.14350958299974,376.14350958299974,379.1701607499999,z,3.0228703749999113,None,376.14350958299974,376.14350958299974,,,,,,,,yupa_th,240768,2025-07-24_13h37.24.663,MainFlow,2024.1.5,None,2025-07-24 13h37.46.727408 +0700,
1,3,42,word/wordth0423.png,0,82,82,82,379.17750616700005,,,,,,,379.17750616700005,379.17750616700005,380.1565350000001,380.179800292,380.179800292,380.179800292,380.179800292,382.78642008299994,z,2.6020292500002142,None,,,,,,,,,,yupa_th,240768,2025-07-24_13h37.24.663,MainFlow,2024.1.5,None,2025-07-24 13h37.46.727408 +0700,
1,3,46,word/wordth0463.png,0,83,83,83,382.79335749999973,,,,,,,382.79335749999973,382.79335749999973,383.77304695799967,383.7957503749999,383.7957503749999,383.7957503749999,383.7957503749999,385.2936810420001,x,1.4903213339998729,None,,,,,,,,,,yupa_th,240768,2025-07-24_13h37.24.663,MainFlow,2024.1.5,None,2025-07-24 13h37.46.727408 +0700,
1,3,1,word/wordth0013.png,0,84,84,84,385.3021441669998,,,,,,,385.3021441669998,385.3021441669998,386.28569770800004,386.3095351669999,386.3095351669999,386.3095351669999,386.3095351669999,387.46967570800007,x,1.1520246670002052,None,386.3095351669999,386.3095351669999,,,,,,,,yupa_th,240768,2025-07-24_13h37.24.663,MainFlow,2024.1.5,None,2025-07-24 13h37.46.727408 +0700,
1,2,70,word/wordth0702.png,0,85,85,85,387.4767030419998,,,,,,,387.4767030419998,387.4767030419998,388.4565681670001,388.4801629169997,388.4801629169997,388.4801629169997,388.4801629169997,389.8244485,x,1.3410422500001005,None,,,,,,,,,,yupa_th,240768,2025-07-24_13h37.24.663,MainFlow,2024.1.5,None,2025-07-24 13h37.46.727408 +0700,
1,1,7,word/wordth0071.png,0,86,86,86,389.835452625,,,,,,,389.835452625,389.835452625,390.81912566699975,390.84291837499995,390.84291837499995,390.84291837499995,390.84291837499995,398.18636070799994,z,7.339424750000035,None,390.84291837499995,390.84291837499995,,,,,,,,yupa_th,240768,2025-07-24_13h37.24.663,MainFlow,2024.1.5,None,2025-07-24 13h37.46.727408 +0700,
1,2,7,word/wordth0072.png,0,87,87,87,398.1938009579999,,,,,,,398.1938009579999,398.1938009579999,399.173491,399.19733199999973,399.19733199999973,399.19733199999973,399.19733199999973,404.36956729199983,x,5.160358625000299,None,,,,,,,,,,yupa_th,240768,2025-07-24_13h37.24.663,MainFlow,2024.1.5,None,2025-07-24 13h37.46.727408 +0700,
1,2,24,word/wordth0242.png,0,88,88,88,404.37398429199993,,,,,,,404.37398429199993,404.37398429199993,405.3569842080001,405.37981091699976,405.37981091699976,405.37981091699976,405.37981091699976,406.2770415,x,0.890625916999852,None,405.37981091699976,405.37981091699976,,,,,,,,yupa_th,240768,2025-07-24_13h37.24.663,MainFlow,2024.1.5,None,2025-07-24 13h37.46.727408 +0700,
1,3,26,word/wordth0263.png,0,89,89,89,406.2851269580001,,,,,,,406.2851269580001,406.2851269580001,407.2689130829999,407.2930758749999,407.2930758749999,407.2930758749999,407.2930758749999,408.0696525829999,x,0.7682735420003155,None,407.2930758749999,407.2930758749999,,,,,,,,yupa_th,240768,2025-07-24_13h37.24.663,MainFlow,2024.1.5,None,2025-07-24 13h37.46.727408 +0700,
1,2,23,word/wordth0232.png,0,90,90,90,408.07682883300004,,,,,,,408.07682883300004,408.07682883300004,409.0568445419999,409.08152637500007,409.08152637500007,409.08152637500007,409.08152637500007,409.8078425829999,x,0.7246054170000207,None,,,,,,,,,,yupa_th,240768,2025-07-24_13h37.24.663,MainFlow,2024.1.5,None,2025-07-24 13h37.46.727408 +0700,
1,2,75,word/wordth0752.png,0,91,91,91,409.818472167,,,,,,,409.818472167,409.818472167,410.8024648329997,410.82633637499976,410.82633637499976,410.82633637499976,410.82633637499976,412.4697652919999,x,1.635062958999697,None,410.82633637499976,410.82633637499976,,,,,,,,yupa_th,240768,2025-07-24_13h37.24.663,MainFlow,2024.1.5,None,2025-07-24 13h37.46.727408 +0700,
1,2,6,word/wordth0062.png,0,92,92,92,412.476847208,,,,,,,412.476847208,412.476847208,413.4562824579998,413.479907208,413.479907208,413.479907208,413.479907208,414.2530110829998,x,0.7652283339998576,None,,,,,,,,,,yupa_th,240768,2025-07-24_13h37.24.663,MainFlow,2024.1.5,None,2025-07-24 13h37.46.727408 +0700,
1,2,93,word/wordth0932.png,0,93,93,93,414.260168542,,,,,,,414.260168542,414.260168542,415.24030074999973,415.2641510829999,415.2641510829999,415.2641510829999,415.2641510829999,415.93616141699977,x,0.6695811660001709,None,,,,,,,,,,yupa_th,240768,2025-07-24_13h37.24.663,MainFlow,2024.1.5,None,2025-07-24 13h37.46.727408 +0700,
1,2,48,word/wordth0482.png,0,94,94,94,415.9438218749997,,,,,,,415.9438218749997,415.9438218749997,416.92306174999976,416.94649437499993,416.94649437499993,416.94649437499993,416.94649437499993,417.686375667,x,0.7314227500000925,None,,,,,,,,,,yupa_th,240768,2025-07-24_13h37.24.663,MainFlow,2024.1.5,None,2025-07-24 13h37.46.727408 +0700,
1,1,70,word/wordth0701.png,0,95,95,95,417.69360925,,,,,,,417.69360925,417.69360925,418.67354479200003,418.69730879200006,418.69730879200006,418.69730879200006,418.69730879200006,424.110162208,z,5.4054856669999936,None,,,,,,,,,,yupa_th,240768,2025-07-24_13h37.24.663,MainFlow,2024.1.5,None,2025-07-24 13h37.46.727408 +0700,
1,2,66,word/wordth0662.png,0,96,96,96,424.11855158299977,,,,,,,424.11855158299977,424.11855158299977,425.1022271249999,425.1264391669997,425.1264391669997,425.1264391669997,425.1264391669997,426.8768091669999,x,1.7436944169999151,None,425.1264391669997,425.1264391669997,,,,,,,,yupa_th,240768,2025-07-24_13h37.24.663,MainFlow,2024.1.5,None,2025-07-24 13h37.46.727408 +0700,
1,1,26,word/wordth0261.png,0,97,97,97,426.8850659999998,,,,,,,426.8850659999998,426.8850659999998,427.86890166700005,427.89256908299967,427.89256908299967,427.89256908299967,427.89256908299967,429.5360725830001,z,1.6317680000001928,None,427.89256908299967,427.89256908299967,,,,,,,,yupa_th,240768,2025-07-24_13h37.24.663,MainFlow,2024.1.5,None,2025-07-24 13h37.46.727408 +0700,
1,3,9,word/wordth0093.png,0,98,98,98,429.5405432499997,,,,,,,429.5405432499997,429.5405432499997,430.52299374999984,430.546983792,430.546983792,430.546983792,430.546983792,431.51961712499997,x,0.9620968749995882,None,,,,,,,,,,yupa_th,240768,2025-07-24_13h37.24.663,MainFlow,2024.1.5,None,2025-07-24 13h37.46.727408 +0700,
1,2,61,word/wordth0612.png,0,99,99,99,431.52705424999976,,,,,,,431.52705424999976,431.52705424999976,432.5066408749999,432.5324272499997,432.5324272499997,432.5324272499997,432.5324272499997,433.13615337500005,x,0.6012704170002507,None,,,,,,,,,,yupa_th,240768,2025-07-24_13h37.24.663,MainFlow,2024.1.5,None,2025-07-24 13h37.46.727408 +0700,
1,3,8,word/wordth0083.png,0,100,100,100,433.1435967499997,,,,,,,433.1435967499997,433.1435967499997,434.12330974999986,434.1473501669998,434.1473501669998,434.1473501669998,434.1473501669998,445.67625637499987,x,11.522091499999988,None,,,,,,,,,,yupa_th,240768,2025-07-24_13h37.24.663,MainFlow,2024.1.5,None,2025-07-24 13h37.46.727408 +0700,
1,1,8,word/wordth0081.png,0,101,101,101,445.68507870799976,,,,,,,445.68507870799976,445.68507870799976,446.6687684999997,446.69523325,446.69523325,446.69523325,446.69523325,452.1361373750001,z,5.438638708000326,None,446.69523325,446.69523325,,,,,,,,yupa_th,240768,2025-07-24_13h37.24.663,MainFlow,2024.1.5,None,2025-07-24 13h37.46.727408 +0700,
1,2,44,word/wordth0442.png,0,102,102,102,452.14313712500007,,,,,,,452.14313712500007,452.14313712500007,453.1229100830001,453.14602187499986,453.14602187499986,453.14602187499986,453.14602187499986,454.53610983299995,x,1.3881063750000067,None,,,,,,,,,,yupa_th,240768,2025-07-24_13h37.24.663,MainFlow,2024.1.5,None,2025-07-24 13h37.46.727408 +0700,
1,3,31,word/wordth0313.png,0,103,103,103,454.54326175000006,,,,,,,454.54326175000006,454.54326175000006,455.52317649999986,455.5478653749997,455.5478653749997,455.5478653749997,455.5478653749997,457.03600366699993,x,1.4816992089999985,None,,,,,,,,,,yupa_th,240768,2025-07-24_13h37.24.663,MainFlow,2024.1.5,None,2025-07-24 13h37.46.727408 +0700,
1,1,89,word/wordth0891.png,0,104,104,104,457.04310237499976,,,,,,,457.04310237499976,457.04310237499976,458.02281774999983,458.04703433299983,458.04703433299983,458.04703433299983,458.04703433299983,462.88612254200007,z,4.830960290999883,None,,,,,,,,,,yupa_th,240768,2025-07-24_13h37.24.663,MainFlow,2024.1.5,None,2025-07-24 13h37.46.727408 +0700,
1,3,70,word/wordth0703.png,0,105,105,105,462.89333050000005,,,,,,,462.89333050000005,462.89333050000005,463.87278079199996,463.8956666670001,463.8956666670001,463.8956666670001,463.8956666670001,465.002717375,x,1.1018862089999857,None,,,,,,,,,,yupa_th,240768,2025-07-24_13h37.24.663,MainFlow,2024.1.5,None,2025-07-24 13h37.46.727408 +0700,
1,3,68,word/wordth0683.png,0,106,106,106,465.0098454169997,,,,,,,465.0098454169997,465.0098454169997,465.9897927080001,466.0132985,466.0132985,466.0132985,466.0132985,466.785837375,x,0.760208541999873,None,,,,,,,,,,yupa_th,240768,2025-07-24_13h37.24.663,MainFlow,2024.1.5,None,2025-07-24 13h37.46.727408 +0700,
1,3,10,word/wordth0103.png,0,107,107,107,466.79023445799976,,,,,,,466.79023445799976,466.79023445799976,467.7731812080001,467.79693120799993,467.79693120799993,467.79693120799993,467.79693120799993,468.39048816700006,x,0.5924255420000009,None,467.79693120799993,467.79693120799993,,,,,,,,yupa_th,240768,2025-07-24_13h37.24.663,MainFlow,2024.1.5,None,2025-07-24 13h37.46.727408 +0700,
1,3,94,word/wordth0943.png,0,108,108,108,468.4015641249998,,,,,,,468.4015641249998,468.4015641249998,469.38543016699987,469.40940304199967,469.40940304199967,469.40940304199967,469.40940304199967,471.685982125,x,2.2691027079999913,None,469.40940304199967,469.40940304199967,,,,,,,,yupa_th,240768,2025-07-24_13h37.24.663,MainFlow,2024.1.5,None,2025-07-24 13h37.46.727408 +0700,
1,1,3,word/wordth0031.png,0,109,109,109,471.69311375000007,,,,,,,471.69311375000007,471.69311375000007,472.672601667,472.6953817499998,472.6953817499998,472.6953817499998,472.6953817499998,477.63589112499994,z,4.934513250000236,None,,,,,,,,,,yupa_th,240768,2025-07-24_13h37.24.663,MainFlow,2024.1.5,None,2025-07-24 13h37.46.727408 +0700,
1,3,63,word/wordth0633.png,0,110,110,110,477.643009292,,,,,,,477.643009292,477.643009292,478.6231526669999,478.6468464579998,478.6468464579998,478.6468464579998,478.6468464579998,479.5859032499998,x,0.9358367089998865,None,,,,,,,,,,yupa_th,240768,2025-07-24_13h37.24.663,MainFlow,2024.1.5,None,2025-07-24 13h37.46.727408 +0700,
1,2,9,word/wordth0092.png,0,111,111,111,479.5929631250001,,,,,,,479.5929631250001,479.5929631250001,480.57273175,480.5959873329998,480.5959873329998,480.5959873329998,480.5959873329998,481.2359329169999,x,0.6337770420000197,None,,,,,,,,,,yupa_th,240768,2025-07-24_13h37.24.663,MainFlow,2024.1.5,None,2025-07-24 13h37.46.727408 +0700,
1,3,7,word/wordth0073.png,0,112,112,112,481.2429722500001,,,,,,,481.2429722500001,481.2429722500001,482.2231462079999,482.2465214169997,482.2465214169997,482.2465214169997,482.2465214169997,482.95243437499994,x,0.6948540830003367,None,,,,,,,,,,yupa_th,240768,2025-07-24_13h37.24.663,MainFlow,2024.1.5,None,2025-07-24 13h37.46.727408 +0700,
1,2,41,word/wordth0412.png,0,113,113,113,482.9568815419998,,,,,,,482.9568815419998,482.9568815419998,483.939752708,483.96493033299976,483.96493033299976,483.96493033299976,483.96493033299976,484.8360614579997,x,0.86353599999984,None,483.96493033299976,483.96493033299976,,,,,,,,yupa_th,240768,2025-07-24_13h37.24.663,MainFlow,2024.1.5,None,2025-07-24 13h37.46.727408 +0700,
1,1,9,word/wordth0091.png,0,114,114,114,484.84313220800004,,,,,,,484.84313220800004,484.84313220800004,485.82308487499995,485.84688095799993,485.84688095799993,485.84688095799993,485.84688095799993,492.7357025000001,z,6.87754437500007,None,,,,,,,,,,yupa_th,240768,2025-07-24_13h37.24.663,MainFlow,2024.1.5,None,2025-07-24 13h37.46.727408 +0700,
1,1,94,word/wordth0941.png,0,115,115,115,492.74022216699996,,,,,,,492.74022216699996,492.74022216699996,493.72263670799975,493.7468766669999,493.7468766669999,493.7468766669999,493.7468766669999,495.58584766700005,z,1.826738041000226,None,,,,,,,,,,yupa_th,240768,2025-07-24_13h37.24.663,MainFlow,2024.1.5,None,2025-07-24 13h37.46.727408 +0700,
1,1,52,word/wordth0521.png,0,116,116,116,495.59032920799973,,,,,,,495.59032920799973,495.59032920799973,496.5731035419999,496.597049042,496.597049042,496.597049042,496.597049042,497.6934652079999,z,1.0880246250003438,None,496.597049042,496.597049042,,,,,,,,yupa_th,240768,2025-07-24_13h37.24.663,MainFlow,2024.1.5,None,2025-07-24 13h37.46.727408 +0700,
1,2,88,word/wordth0882.png,0,117,117,117,497.7014171249998,,,,,,,497.7014171249998,497.7014171249998,498.685278208,498.71027695799967,498.71027695799967,498.71027695799967,498.71027695799967,499.69319074999976,x,0.9751070420002179,None,498.71027695799967,498.71027695799967,,,,,,,,yupa_th,240768,2025-07-24_13h37.24.663,MainFlow,2024.1.5,None,2025-07-24 13h37.46.727408 +0700,
1,1,41,word/wordth0411.png,0,118,118,118,499.7014126250001,,,,,,,499.7014126250001,499.7014126250001,500.68490366700007,500.70830695799987,500.70830695799987,500.70830695799987,500.70830695799987,523.085875875,z,22.369838584000263,None,500.70830695799987,500.70830695799987,,,,,,,,yupa_th,240768,2025-07-24_13h37.24.663,MainFlow,2024.1.5,None,2025-07-24 13h37.46.727408 +0700,
1,3,30,word/wordth0303.png,0,119,119,119,523.0932321669998,,,,,,,523.0932321669998,523.0932321669998,524.0724548329999,524.0955631249999,524.0955631249999,524.0955631249999,524.0955631249999,529.9904119580001,z,5.893262749999849,None,,,,,,,,,,yupa_th,240768,2025-07-24_13h37.24.663,MainFlow,2024.1.5,None,2025-07-24 13h37.46.727408 +0700,
,,,,,,,,,,,,,,,,,,,,,,,,,,,,529.990696583,530.0011582080001,530.0011582080001,557.2609052499997,space,27.251511375000064,None,yupa_th,240768,2025-07-24_13h37.24.663,MainFlow,2024.1.5,None,2025-07-24 13h37.46.727408 +0700,
