lang,stimuli,imageid,worddir,word_length,trials.thisRepN,trials.thisTrialN,trials.thisN,trials.thisIndex,thisRow.t,notes,tutorial.started,tutorial.stopped,key_instruct.keys,key_instruct.rt,key_instruct.duration,instructblank.started,cross1.started,letterselect.started,imageword.started,text_2.started,cross2.started,key_resp.started,letterselect.stopped,key_resp.keys,key_resp.rt,key_resp.duration,instructblank.stopped,cross1.stopped,ending.started,text_3.started,ending_key.started,participant,session,date,expName,psychopyVersion,frameRate,expStart
,,,,,,,,,,,0.004137084,4.814619084,space,4.766521792,None,,,,,,,,,,,,,,,,,yupaen,1,2025-02-27_13h56.56.552,MainFlow,2024.1.5,None,2025-02-27 13h57.05.923581 +0700
2,1,66,word/worden0661.png,6,0,0,0,0,4.853846084,,,,,,,4.853846084,4.853846084,5.799190375,5.837212959,5.837212959,5.837212959,5.837212959,7.399713667,x,1.555736167,None,,,,,,yupaen,1,2025-02-27_13h56.56.552,MainFlow,2024.1.5,None,2025-02-27 13h57.05.923581 +0700
2,1,3,word/worden0031.png,3,0,1,1,1,7.407192792,,,,,,,7.407192792,7.407192792,8.3871935,8.41161075,8.41161075,8.41161075,8.41161075,9.966401292,z,1.549110833,None,,,,,,yupaen,1,2025-02-27_13h56.56.552,MainFlow,2024.1.5,None,2025-02-27 13h57.05.923581 +0700
2,2,71,word/worden0712.png,6,0,2,2,2,9.973317375,,,,,,,9.973317375,9.973317375,10.95322454,10.97780075,10.97780075,10.97780075,10.97780075,12.19983683,x,1.214173334,None,,,,,,yupaen,1,2025-02-27_13h56.56.552,MainFlow,2024.1.5,None,2025-02-27 13h57.05.923581 +0700
2,3,27,word/worden0273.png,4,0,3,3,3,12.20699392,,,,,,,12.20699392,12.20699392,13.18687446,13.21052942,13.21052942,13.21052942,13.21052942,31.69925146,x,18.48655963,None,,,,,,yupaen,1,2025-02-27_13h56.56.552,MainFlow,2024.1.5,None,2025-02-27 13h57.05.923581 +0700
2,3,88,word/worden0883.png,7,0,4,4,4,31.70918988,,,,,,,31.70918988,31.70918988,32.68228496,32.70433258,32.70433258,32.70433258,32.70433258,35.71644629,x,3.009636458,None,,,,,,yupaen,1,2025-02-27_13h56.56.552,MainFlow,2024.1.5,None,2025-02-27 13h57.05.923581 +0700
2,1,28,word/worden0281.png,4,0,5,5,5,35.72398337,,,,,,,35.72398337,35.72398337,36.70327762,36.72598425,36.72598425,36.72598425,36.72598425,40.14976117,z,3.419134125,None,,,,,,yupaen,1,2025-02-27_13h56.56.552,MainFlow,2024.1.5,None,2025-02-27 13h57.05.923581 +0700
2,1,50,word/worden0501.png,5,0,6,6,6,40.1572235,,,,,,,40.1572235,40.1572235,41.13697779,41.16279371,41.16279371,41.16279371,41.16279371,45.233033,x,4.062389375,None,,,,,,yupaen,1,2025-02-27_13h56.56.552,MainFlow,2024.1.5,None,2025-02-27 13h57.05.923581 +0700
2,1,41,word/worden0411.png,5,0,7,7,7,45.24039363,,,,,,,45.24039363,45.24039363,46.21980629,46.24293796,46.24293796,46.24293796,46.24293796,53.89009917,x,7.639680583,None,,,,,,yupaen,1,2025-02-27_13h56.56.552,MainFlow,2024.1.5,None,2025-02-27 13h57.05.923581 +0700
2,2,52,word/worden0522.png,5,0,8,8,8,53.89860342,,,,,,,53.89860342,53.89860342,54.88224854,54.90923175,54.90923175,54.90923175,54.90923175,58.91598679,x,4.004089875,None,54.90923175,54.90923175,,,,yupaen,1,2025-02-27_13h56.56.552,MainFlow,2024.1.5,None,2025-02-27 13h57.05.923581 +0700
2,3,6,word/worden0063.png,3,0,9,9,9,58.922803,,,,,,,58.922803,58.922803,59.90300538,59.92653713,59.92653713,59.92653713,59.92653713,68.94951554,x,9.018810542,None,,,,,,yupaen,1,2025-02-27_13h56.56.552,MainFlow,2024.1.5,None,2025-02-27 13h57.05.923581 +0700
2,3,46,word/worden0463.png,5,0,10,10,10,68.95663654,,,,,,,68.95663654,68.95663654,69.93663154,69.96058963,69.96058963,69.96058963,69.96058963,80.07345446,x,10.10503433,None,,,,,,yupaen,1,2025-02-27_13h56.56.552,MainFlow,2024.1.5,None,2025-02-27 13h57.05.923581 +0700
2,2,30,word/worden0302.png,4,0,11,11,11,80.0818035,,,,,,,80.0818035,80.0818035,81.06550996,81.09035175,81.09035175,81.09035175,81.09035175,87.61618421,x,6.518362292,None,81.09035175,81.09035175,,,,yupaen,1,2025-02-27_13h56.56.552,MainFlow,2024.1.5,None,2025-02-27 13h57.05.923581 +0700
2,2,46,word/worden0462.png,5,0,12,12,12,87.62334254,,,,,,,87.62334254,87.62334254,88.60279829,88.62639033,88.62639033,88.62639033,88.62639033,89.97100188,x,1.343265666,None,,,,,,yupaen,1,2025-02-27_13h56.56.552,MainFlow,2024.1.5,None,2025-02-27 13h57.05.923581 +0700
2,2,70,word/worden0702.png,6,0,13,13,13,89.98162725,,,,,,,89.98162725,89.98162725,90.96558317,90.99037675,90.99037675,90.99037675,90.99037675,105.0897402,z,14.09216388,None,90.99037675,90.99037675,,,,yupaen,1,2025-02-27_13h56.56.552,MainFlow,2024.1.5,None,2025-02-27 13h57.05.923581 +0700
2,1,70,word/worden0701.png,6,0,14,14,14,105.0981395,,,,,,,105.0981395,105.0981395,106.0819377,106.1060228,106.1060228,106.1060228,106.1060228,119.7159515,x,13.59760712,None,106.1060228,106.1060228,,,,yupaen,1,2025-02-27_13h56.56.552,MainFlow,2024.1.5,None,2025-02-27 13h57.05.923581 +0700
2,1,8,word/worden0081.png,3,0,15,15,15,119.7203832,,,,,,,119.7203832,119.7203832,120.7032242,120.7277949,120.7277949,120.7277949,120.7277949,127.7490082,z,7.009399208,None,120.7277949,120.7277949,,,,yupaen,1,2025-02-27_13h56.56.552,MainFlow,2024.1.5,None,2025-02-27 13h57.05.923581 +0700
2,3,61,word/worden0613.png,6,0,16,16,16,127.7533499,,,,,,,127.7533499,127.7533499,128.7363531,128.760267,128.760267,128.760267,128.760267,142.7156858,x,13.94432367,None,128.760267,128.760267,,,,yupaen,1,2025-02-27_13h56.56.552,MainFlow,2024.1.5,None,2025-02-27 13h57.05.923581 +0700
2,3,10,word/worden0103.png,3,0,17,17,17,142.7229268,,,,,,,142.7229268,142.7229268,143.7025397,143.7254809,143.7254809,143.7254809,143.7254809,149.2035975,x,5.474455958,None,,,,,,yupaen,1,2025-02-27_13h56.56.552,MainFlow,2024.1.5,None,2025-02-27 13h57.05.923581 +0700
2,3,75,word/worden0753.png,6,0,18,18,18,149.2145145,,,,,,,149.2145145,149.2145145,150.1984175,150.2221774,150.2221774,150.2221774,150.2221774,155.6987965,x,5.465986667,None,150.2221774,150.2221774,,,,yupaen,1,2025-02-27_13h56.56.552,MainFlow,2024.1.5,None,2025-02-27 13h57.05.923581 +0700
2,2,63,word/worden0632.png,6,0,19,19,19,155.7056568,,,,,,,155.7056568,155.7056568,156.6817734,156.7052985,156.7052985,156.7052985,156.7052985,166.7319625,x,10.024201,None,,,,,,yupaen,1,2025-02-27_13h56.56.552,MainFlow,2024.1.5,None,2025-02-27 13h57.05.923581 +0700
2,3,11,word/worden0113.png,3,0,20,20,20,166.7388534,,,,,,,166.7388534,166.7388534,167.7149429,167.7393975,167.7393975,167.7393975,167.7393975,172.0987622,x,4.349622459,None,,,,,,yupaen,1,2025-02-27_13h56.56.552,MainFlow,2024.1.5,None,2025-02-27 13h57.05.923581 +0700
2,2,89,word/worden0892.png,7,0,21,21,21,172.105971,,,,,,,172.105971,172.105971,173.0857206,173.1085583,173.1085583,173.1085583,173.1085583,182.565558,x,9.453311041,None,,,,,,yupaen,1,2025-02-27_13h56.56.552,MainFlow,2024.1.5,None,2025-02-27 13h57.05.923581 +0700
2,1,9,word/worden0091.png,3,0,22,22,22,182.573325,,,,,,,182.573325,182.573325,183.5527836,183.5768411,183.5768411,183.5768411,183.5768411,187.853461,z,4.27308925,None,,,,,,yupaen,1,2025-02-27_13h56.56.552,MainFlow,2024.1.5,None,2025-02-27 13h57.05.923581 +0700
2,3,28,word/worden0283.png,4,0,23,23,23,187.8644861,,,,,,,187.8644861,187.8644861,188.8479676,188.8716051,188.8716051,188.8716051,188.8716051,200.5654276,x,11.68945812,None,188.8716051,188.8716051,,,,yupaen,1,2025-02-27_13h56.56.552,MainFlow,2024.1.5,None,2025-02-27 13h57.05.923581 +0700
2,1,82,word/worden0821.png,7,0,24,24,24,200.5730097,,,,,,,200.5730097,200.5730097,201.552134,201.5753245,201.5753245,201.5753245,201.5753245,214.3320117,x,12.74542417,None,,,,,,yupaen,1,2025-02-27_13h56.56.552,MainFlow,2024.1.5,None,2025-02-27 13h57.05.923581 +0700
2,2,28,word/worden0282.png,4,0,25,25,25,214.3391428,,,,,,,214.3391428,214.3391428,215.319169,215.3431552,215.3431552,215.3431552,215.3431552,218.6988065,x,3.344185083,None,,,,,,yupaen,1,2025-02-27_13h56.56.552,MainFlow,2024.1.5,None,2025-02-27 13h57.05.923581 +0700
2,1,23,word/worden0231.png,4,0,26,26,26,218.7036293,,,,,,,218.7036293,218.7036293,219.685377,219.7083366,219.7083366,219.7083366,219.7083366,233.7483938,z,14.03708538,None,,,,,,yupaen,1,2025-02-27_13h56.56.552,MainFlow,2024.1.5,None,2025-02-27 13h57.05.923581 +0700
2,2,42,word/worden0422.png,5,0,27,27,27,233.7553801,,,,,,,233.7553801,233.7553801,234.7352663,234.7595572,234.7595572,234.7595572,234.7595572,239.1652427,x,4.401339959,None,,,,,,yupaen,1,2025-02-27_13h56.56.552,MainFlow,2024.1.5,None,2025-02-27 13h57.05.923581 +0700
2,2,93,word/worden0932.png,7,0,28,28,28,239.1725808,,,,,,,239.1725808,239.1725808,240.1520669,240.1751341,240.1751341,240.1751341,240.1751341,243.3318808,x,3.154491958,None,,,,,,yupaen,1,2025-02-27_13h56.56.552,MainFlow,2024.1.5,None,2025-02-27 13h57.05.923581 +0700
2,1,88,word/worden0881.png,7,0,29,29,29,243.3388235,,,,,,,243.3388235,243.3388235,244.3189972,244.341888,244.341888,244.341888,244.341888,247.9697492,x,3.626309958,None,,,,,,yupaen,1,2025-02-27_13h56.56.552,MainFlow,2024.1.5,None,2025-02-27 13h57.05.923581 +0700
2,3,31,word/worden0313.png,4,0,30,30,30,247.9806384,,,,,,,247.9806384,247.9806384,248.9644365,248.9888519,248.9888519,248.9888519,248.9888519,259.5865496,x,10.5956475,None,248.9888519,248.9888519,,,,yupaen,1,2025-02-27_13h56.56.552,MainFlow,2024.1.5,None,2025-02-27 13h57.05.923581 +0700
2,2,75,word/worden0752.png,6,0,31,31,31,259.5972902,,,,,,,259.5972902,259.5972902,260.5811822,260.605777,260.605777,260.605777,260.605777,262.1484618,x,1.538913167,None,260.605777,260.605777,,,,yupaen,1,2025-02-27_13h56.56.552,MainFlow,2024.1.5,None,2025-02-27 13h57.05.923581 +0700
2,2,48,word/worden0482.png,5,0,32,32,32,262.1554138,,,,,,,262.1554138,262.1554138,263.1356739,263.1596576,263.1596576,263.1596576,263.1596576,287.1983629,x,24.03307608,None,,,,,,yupaen,1,2025-02-27_13h56.56.552,MainFlow,2024.1.5,None,2025-02-27 13h57.05.923581 +0700
2,1,26,word/worden0261.png,4,0,33,33,33,287.2056166,,,,,,,287.2056166,287.2056166,288.1848518,288.2079821,288.2079821,288.2079821,288.2079821,304.5481857,z,16.328788,None,,,,,,yupaen,1,2025-02-27_13h56.56.552,MainFlow,2024.1.5,None,2025-02-27 13h57.05.923581 +0700
2,2,41,word/worden0412.png,5,0,34,34,34,304.5528691,,,,,,,304.5528691,304.5528691,305.5352947,305.5581911,305.5581911,305.5581911,305.5581911,307.414682,x,1.850826375,None,,,,,,yupaen,1,2025-02-27_13h56.56.552,MainFlow,2024.1.5,None,2025-02-27 13h57.05.923581 +0700
2,3,66,word/worden0663.png,6,0,35,35,35,307.4218985,,,,,,,307.4218985,307.4218985,308.4016207,308.4247528,308.4247528,308.4247528,308.4247528,309.2647075,x,0.831662292,None,,,,,,yupaen,1,2025-02-27_13h56.56.552,MainFlow,2024.1.5,None,2025-02-27 13h57.05.923581 +0700
2,1,6,word/worden0061.png,3,0,36,36,36,309.2721197,,,,,,,309.2721197,309.2721197,310.2519071,310.2756872,310.2756872,310.2756872,310.2756872,317.6813741,z,7.396968542,None,,,,,,yupaen,1,2025-02-27_13h56.56.552,MainFlow,2024.1.5,None,2025-02-27 13h57.05.923581 +0700
2,1,42,word/worden0421.png,5,0,37,37,37,317.6882885,,,,,,,317.6882885,317.6882885,318.6680096,318.6915592,318.6915592,318.6915592,318.6915592,324.1053784,x,5.40635875,None,,,,,,yupaen,1,2025-02-27_13h56.56.552,MainFlow,2024.1.5,None,2025-02-27 13h57.05.923581 +0700
2,3,41,word/worden0413.png,5,0,38,38,38,324.1135465,,,,,,,324.1135465,324.1135465,325.0974265,325.1220557,325.1220557,325.1220557,325.1220557,328.9859203,x,3.862247625,None,325.1220557,325.1220557,,,,yupaen,1,2025-02-27_13h56.56.552,MainFlow,2024.1.5,None,2025-02-27 13h57.05.923581 +0700
2,2,23,word/worden0232.png,4,0,39,39,39,328.9968315,,,,,,,328.9968315,328.9968315,329.9805508,330.0033427,330.0033427,330.0033427,330.0033427,350.5477001,x,20.5419225,None,330.0033427,330.0033427,,,,yupaen,1,2025-02-27_13h56.56.552,MainFlow,2024.1.5,None,2025-02-27 13h57.05.923581 +0700
2,3,96,word/worden0963.png,7,0,40,40,40,350.5548336,,,,,,,350.5548336,350.5548336,351.5345215,351.5583955,351.5583955,351.5583955,351.5583955,366.8356322,x,15.27416204,None,,,,,,yupaen,1,2025-02-27_13h56.56.552,MainFlow,2024.1.5,None,2025-02-27 13h57.05.923581 +0700
2,1,61,word/worden0611.png,6,0,41,41,41,366.8466226,,,,,,,366.8466226,366.8466226,367.8305618,367.8554168,367.8554168,367.8554168,367.8554168,402.914398,z,35.04850625,None,367.8554168,367.8554168,,,,yupaen,1,2025-02-27_13h56.56.552,MainFlow,2024.1.5,None,2025-02-27 13h57.05.923581 +0700
2,3,9,word/worden0093.png,3,0,42,42,42,402.921714,,,,,,,402.921714,402.921714,403.9010099,403.9243442,403.9243442,403.9243442,403.9243442,409.1976655,x,5.267581959,None,,,,,,yupaen,1,2025-02-27_13h56.56.552,MainFlow,2024.1.5,None,2025-02-27 13h57.05.923581 +0700
2,3,63,word/worden0633.png,6,0,43,43,43,409.2050294,,,,,,,409.2050294,409.2050294,410.1847836,410.2123819,410.2123819,410.2123819,410.2123819,440.8973623,x,30.67585538,None,,,,,,yupaen,1,2025-02-27_13h56.56.552,MainFlow,2024.1.5,None,2025-02-27 13h57.05.923581 +0700
2,3,50,word/worden0503.png,5,0,44,44,44,440.9046367,,,,,,,440.9046367,440.9046367,441.88407,441.9079564,441.9079564,441.9079564,441.9079564,454.4973399,x,12.58025325,None,,,,,,yupaen,1,2025-02-27_13h56.56.552,MainFlow,2024.1.5,None,2025-02-27 13h57.05.923581 +0700
2,2,27,word/worden0272.png,4,0,45,45,45,454.5046835,,,,,,,454.5046835,454.5046835,455.4838086,455.5073653,455.5073653,455.5073653,455.5073653,461.3047748,x,5.789095084,None,,,,,,yupaen,1,2025-02-27_13h56.56.552,MainFlow,2024.1.5,None,2025-02-27 13h57.05.923581 +0700
2,2,61,word/worden0612.png,6,0,46,46,46,461.3128821,,,,,,,461.3128821,461.3128821,462.2965305,462.3191614,462.3191614,462.3191614,462.3191614,473.6636095,x,11.33686471,None,462.3191614,462.3191614,,,,yupaen,1,2025-02-27_13h56.56.552,MainFlow,2024.1.5,None,2025-02-27 13h57.05.923581 +0700
2,3,7,word/worden0073.png,3,0,47,47,47,473.6705624,,,,,,,473.6705624,473.6705624,474.6507921,474.6738054,474.6738054,474.6738054,474.6738054,482.2970255,z,7.614310542,None,,,,,,yupaen,1,2025-02-27_13h56.56.552,MainFlow,2024.1.5,None,2025-02-27 13h57.05.923581 +0700
2,3,23,word/worden0233.png,4,0,48,48,48,482.3045158,,,,,,,482.3045158,482.3045158,483.2842217,483.3077685,483.3077685,483.3077685,483.3077685,500.3469647,x,17.02750575,None,,,,,,yupaen,1,2025-02-27_13h56.56.552,MainFlow,2024.1.5,None,2025-02-27 13h57.05.923581 +0700
2,1,95,word/worden0951.png,7,0,49,49,49,500.3515085,,,,,,,500.3515085,500.3515085,501.3341433,501.3579591,501.3579591,501.3579591,501.3579591,502.9968133,x,1.626744292,None,,,,,,yupaen,1,2025-02-27_13h56.56.552,MainFlow,2024.1.5,None,2025-02-27 13h57.05.923581 +0700
2,3,42,word/worden0423.png,5,0,50,50,50,503.0011114,,,,,,,503.0011114,503.0011114,503.9837402,504.0064772,504.0064772,504.0064772,504.0064772,516.6713508,x,12.65772921,None,,,,,,yupaen,1,2025-02-27_13h56.56.552,MainFlow,2024.1.5,None,2025-02-27 13h57.05.923581 +0700
2,1,30,word/worden0301.png,4,0,51,51,51,516.678423,,,,,,,516.678423,516.678423,517.6629973,517.6866373,517.6866373,517.6866373,517.6866373,534.2514973,z,16.56179437,None,517.6866373,517.6866373,,,,yupaen,1,2025-02-27_13h56.56.552,MainFlow,2024.1.5,None,2025-02-27 13h57.05.923581 +0700
2,3,87,word/worden0873.png,7,0,52,52,52,534.2623827,,,,,,,534.2623827,534.2623827,535.2462147,535.2696149,535.2696149,535.2696149,535.2696149,550.4633869,x,15.18610225,None,535.2696149,535.2696149,,,,yupaen,1,2025-02-27_13h56.56.552,MainFlow,2024.1.5,None,2025-02-27 13h57.05.923581 +0700
2,2,6,word/worden0062.png,3,0,53,53,53,550.4708074,,,,,,,550.4708074,550.4708074,551.4505849,551.4741241,551.4741241,551.4741241,551.4741241,552.9042257,x,1.422040708,None,,,,,,yupaen,1,2025-02-27_13h56.56.552,MainFlow,2024.1.5,None,2025-02-27 13h57.05.923581 +0700
2,2,68,word/worden0682.png,6,0,54,54,54,552.9122867,,,,,,,552.9122867,552.9122867,553.8960057,553.9194523,553.9194523,553.9194523,553.9194523,556.8708065,x,2.944095666,None,553.9194523,553.9194523,,,,yupaen,1,2025-02-27_13h56.56.552,MainFlow,2024.1.5,None,2025-02-27 13h57.05.923581 +0700
2,3,1,word/worden0013.png,3,0,55,55,55,556.8788414,,,,,,,556.8788414,556.8788414,557.8627206,557.8856157,557.8856157,557.8856157,557.8856157,569.6633397,x,11.77023346,None,557.8856157,557.8856157,,,,yupaen,1,2025-02-27_13h56.56.552,MainFlow,2024.1.5,None,2025-02-27 13h57.05.923581 +0700
2,2,94,word/worden0942.png,7,0,56,56,56,569.6708764,,,,,,,569.6708764,569.6708764,570.6500886,570.6741068,570.6741068,570.6741068,570.6741068,608.9131443,x,38.22968579,None,,,,,,yupaen,1,2025-02-27_13h56.56.552,MainFlow,2024.1.5,None,2025-02-27 13h57.05.923581 +0700
2,3,82,word/worden0823.png,7,0,57,57,57,608.9202901,,,,,,,608.9202901,608.9202901,609.8997303,609.922923,609.922923,609.922923,609.922923,629.8510442,x,19.92437604,None,,,,,,yupaen,1,2025-02-27_13h56.56.552,MainFlow,2024.1.5,None,2025-02-27 13h57.05.923581 +0700
2,1,89,word/worden0891.png,7,0,58,58,58,629.8618798,,,,,,,629.8618798,629.8618798,630.8455984,630.8693717,630.8693717,630.8693717,630.8693717,650.8126242,z,19.93817058,None,630.8693717,630.8693717,,,,yupaen,1,2025-02-27_13h56.56.552,MainFlow,2024.1.5,None,2025-02-27 13h57.05.923581 +0700
2,1,31,word/worden0311.png,4,0,59,59,59,650.8185475,,,,,,,650.8185475,650.8185475,651.799651,651.8229141,651.8229141,651.8229141,651.8229141,665.1630014,z,13.33824937,None,,,,,,yupaen,1,2025-02-27_13h56.56.552,MainFlow,2024.1.5,None,2025-02-27 13h57.05.923581 +0700
2,2,51,word/worden0512.png,5,0,60,60,60,665.1704552,,,,,,,665.1704552,665.1704552,666.149505,666.1720992,666.1720992,666.1720992,666.1720992,672.5024376,x,6.324324333,None,,,,,,yupaen,1,2025-02-27_13h56.56.552,MainFlow,2024.1.5,None,2025-02-27 13h57.05.923581 +0700
2,3,44,word/worden0443.png,5,0,61,61,61,672.5116149,,,,,,,672.5116149,672.5116149,673.4954357,673.5200798,673.5200798,673.5200798,673.5200798,694.2124066,x,20.68023825,None,673.5200798,673.5200798,,,,yupaen,1,2025-02-27_13h56.56.552,MainFlow,2024.1.5,None,2025-02-27 13h57.05.923581 +0700
2,1,1,word/worden0011.png,3,0,62,62,62,694.2167219,,,,,,,694.2167219,694.2167219,695.1992443,695.222159,695.222159,695.222159,695.222159,698.4626372,z,3.232804042,None,,,,,,yupaen,1,2025-02-27_13h56.56.552,MainFlow,2024.1.5,None,2025-02-27 13h57.05.923581 +0700
2,1,96,word/worden0961.png,7,0,63,63,63,698.4702033,,,,,,,698.4702033,698.4702033,699.4498078,699.4740069,699.4740069,699.4740069,699.4740069,711.4668961,x,11.98998158,None,,,,,,yupaen,1,2025-02-27_13h56.56.552,MainFlow,2024.1.5,None,2025-02-27 13h57.05.923581 +0700
2,1,11,word/worden0111.png,3,0,64,64,64,711.4782161,,,,,,,711.4782161,711.4782161,712.4618807,712.4869626,712.4869626,712.4869626,712.4869626,717.345833,z,4.848335792,None,712.4869626,712.4869626,,,,yupaen,1,2025-02-27_13h56.56.552,MainFlow,2024.1.5,None,2025-02-27 13h57.05.923581 +0700
2,3,70,word/worden0703.png,6,0,65,65,65,717.3529815,,,,,,,717.3529815,717.3529815,718.3324706,718.3569329,718.3569329,718.3569329,718.3569329,749.8789987,x,31.51525083,None,,,,,,yupaen,1,2025-02-27_13h56.56.552,MainFlow,2024.1.5,None,2025-02-27 13h57.05.923581 +0700
2,3,71,word/worden0713.png,6,0,66,66,66,749.8861316,,,,,,,749.8861316,749.8861316,750.8663765,750.8904054,750.8904054,750.8904054,750.8904054,753.9201287,x,3.021141,None,,,,,,yupaen,1,2025-02-27_13h56.56.552,MainFlow,2024.1.5,None,2025-02-27 13h57.05.923581 +0700
2,1,68,word/worden0681.png,6,0,67,67,67,753.9277888,,,,,,,753.9277888,753.9277888,754.9117223,754.9349588,754.9349588,754.9349588,754.9349588,781.5030789,z,26.56051217,None,754.9349588,754.9349588,,,,yupaen,1,2025-02-27_13h56.56.552,MainFlow,2024.1.5,None,2025-02-27 13h57.05.923581 +0700
2,2,88,word/worden0882.png,7,0,68,68,68,781.5107919,,,,,,,781.5107919,781.5107919,782.4948569,782.5214737,782.5214737,782.5214737,782.5214737,784.5951822,x,2.062671334,None,782.5214737,782.5214737,,,,yupaen,1,2025-02-27_13h56.56.552,MainFlow,2024.1.5,None,2025-02-27 13h57.05.923581 +0700
2,2,50,word/worden0502.png,5,0,69,69,69,784.602,,,,,,,784.602,784.602,785.5826779,785.6068015,785.6068015,785.6068015,785.6068015,786.5951796,x,0.985764666,None,,,,,,yupaen,1,2025-02-27_13h56.56.552,MainFlow,2024.1.5,None,2025-02-27 13h57.05.923581 +0700
2,3,93,word/worden0933.png,7,0,70,70,70,786.6022835,,,,,,,786.6022835,786.6022835,787.5826728,787.606439,787.606439,787.606439,787.606439,832.4666362,z,44.85772858,None,,,,,,yupaen,1,2025-02-27_13h56.56.552,MainFlow,2024.1.5,None,2025-02-27 13h57.05.923581 +0700
2,1,63,word/worden0631.png,6,0,71,71,71,832.4774105,,,,,,,832.4774105,832.4774105,833.4611267,833.485094,833.485094,833.485094,833.485094,858.7521894,z,25.25995242,None,833.485094,833.485094,,,,yupaen,1,2025-02-27_13h56.56.552,MainFlow,2024.1.5,None,2025-02-27 13h57.05.923581 +0700
2,2,7,word/worden0072.png,3,0,72,72,72,858.7605405,,,,,,,858.7605405,858.7605405,859.7442707,859.7684314,859.7684314,859.7684314,859.7684314,867.3781264,x,7.60743475,None,859.7684314,859.7684314,,,,yupaen,1,2025-02-27_13h56.56.552,MainFlow,2024.1.5,None,2025-02-27 13h57.05.923581 +0700
2,2,64,word/worden0642.png,6,0,73,73,73,867.384936,,,,,,,867.384936,867.384936,868.3652804,868.3884177,868.3884177,868.3884177,868.3884177,877.0828975,x,8.691372042,None,,,,,,yupaen,1,2025-02-27_13h56.56.552,MainFlow,2024.1.5,None,2025-02-27 13h57.05.923581 +0700
2,1,24,word/worden0241.png,4,0,74,74,74,877.0937201,,,,,,,877.0937201,877.0937201,878.0774906,878.1018963,878.1018963,878.1018963,878.1018963,891.8779912,z,13.76970825,None,878.1018963,878.1018963,,,,yupaen,1,2025-02-27_13h56.56.552,MainFlow,2024.1.5,None,2025-02-27 13h57.05.923581 +0700
2,2,1,word/worden0012.png,3,0,75,75,75,891.8851679,,,,,,,891.8851679,891.8851679,892.8648534,892.8882502,892.8882502,892.8882502,892.8882502,903.2446443,x,10.35196642,None,,,,,,yupaen,1,2025-02-27_13h56.56.552,MainFlow,2024.1.5,None,2025-02-27 13h57.05.923581 +0700
2,1,46,word/worden0461.png,5,0,76,76,76,903.2517319,,,,,,,903.2517319,903.2517319,904.2320964,904.2550038,904.2550038,904.2550038,904.2550038,914.4495526,x,10.19271279,None,,,,,,yupaen,1,2025-02-27_13h56.56.552,MainFlow,2024.1.5,None,2025-02-27 13h57.05.923581 +0700
2,3,52,word/worden0523.png,5,0,77,77,77,914.4600981,,,,,,,914.4600981,914.4600981,915.4439433,915.4673808,915.4673808,915.4673808,915.4673808,926.2657857,x,10.79528112,None,915.4673808,915.4673808,,,,yupaen,1,2025-02-27_13h56.56.552,MainFlow,2024.1.5,None,2025-02-27 13h57.05.923581 +0700
2,2,31,word/worden0312.png,4,0,78,78,78,926.2766792,,,,,,,926.2766792,926.2766792,927.2606797,927.2843969,927.2843969,927.2843969,927.2843969,931.7778315,x,4.482493042,None,927.2843969,927.2843969,,,,yupaen,1,2025-02-27_13h56.56.552,MainFlow,2024.1.5,None,2025-02-27 13h57.05.923581 +0700
2,2,95,word/worden0952.png,7,0,79,79,79,931.784749,,,,,,,931.784749,931.784749,932.7650467,932.788903,932.788903,932.788903,932.788903,958.3519004,x,25.55500512,None,,,,,,yupaen,1,2025-02-27_13h56.56.552,MainFlow,2024.1.5,None,2025-02-27 13h57.05.923581 +0700
2,1,93,word/worden0931.png,7,0,80,80,80,958.3600214,,,,,,,958.3600214,958.3600214,959.3437459,959.3667647,959.3667647,959.3667647,959.3667647,971.5941886,z,12.22496958,None,959.3667647,959.3667647,,,,yupaen,1,2025-02-27_13h56.56.552,MainFlow,2024.1.5,None,2025-02-27 13h57.05.923581 +0700
2,1,71,word/worden0711.png,6,0,81,81,81,971.6013132,,,,,,,971.6013132,971.6013132,972.5814388,972.6052739,972.6052739,972.6052739,972.6052739,977.9774579,z,5.362261042,None,,,,,,yupaen,1,2025-02-27_13h56.56.552,MainFlow,2024.1.5,None,2025-02-27 13h57.05.923581 +0700
2,1,48,word/worden0481.png,5,0,82,82,82,977.9846388,,,,,,,977.9846388,977.9846388,978.9647666,978.9884148,978.9884148,978.9884148,978.9884148,984.4441658,z,5.450874833,None,,,,,,yupaen,1,2025-02-27_13h56.56.552,MainFlow,2024.1.5,None,2025-02-27 13h57.05.923581 +0700
2,1,94,word/worden0941.png,7,0,83,83,83,984.4516215,,,,,,,984.4516215,984.4516215,985.4308648,985.4535136,985.4535136,985.4535136,985.4535136,992.8487237,z,7.393711542,None,,,,,,yupaen,1,2025-02-27_13h56.56.552,MainFlow,2024.1.5,None,2025-02-27 13h57.05.923581 +0700
2,3,68,word/worden0683.png,6,0,84,84,84,992.8596585,,,,,,,992.8596585,992.8596585,993.8435882,993.8675307,993.8675307,993.8675307,993.8675307,1011.810511,x,17.93200642,None,993.8675307,993.8675307,,,,yupaen,1,2025-02-27_13h56.56.552,MainFlow,2024.1.5,None,2025-02-27 13h57.05.923581 +0700
2,2,66,word/worden0662.png,6,0,85,85,85,1011.814911,,,,,,,1011.814911,1011.814911,1012.793488,1012.818178,1012.818178,1012.818178,1012.818178,1030.01093,x,17.18905317,None,,,,,,yupaen,1,2025-02-27_13h56.56.552,MainFlow,2024.1.5,None,2025-02-27 13h57.05.923581 +0700
2,3,95,word/worden0953.png,7,0,86,86,86,1030.018453,,,,,,,1030.018453,1030.018453,1030.997275,1031.020594,1031.020594,1031.020594,1031.020594,1052.810563,x,21.77828062,None,,,,,,yupaen,1,2025-02-27_13h56.56.552,MainFlow,2024.1.5,None,2025-02-27 13h57.05.923581 +0700
2,3,30,word/worden0303.png,4,0,87,87,87,1052.814917,,,,,,,1052.814917,1052.814917,1053.797927,1053.821913,1053.821913,1053.821913,1053.821913,1077.760189,x,23.9279075,None,1053.821913,1053.821913,,,,yupaen,1,2025-02-27_13h56.56.552,MainFlow,2024.1.5,None,2025-02-27 13h57.05.923581 +0700
2,3,22,word/worden0223.png,4,0,88,88,88,1077.767084,,,,,,,1077.767084,1077.767084,1078.747429,1078.770378,1078.770378,1078.770378,1078.770378,1087.093481,x,8.316750167,None,,,,,,yupaen,1,2025-02-27_13h56.56.552,MainFlow,2024.1.5,None,2025-02-27 13h57.05.923581 +0700
2,1,75,word/worden0751.png,6,0,89,89,89,1087.100728,,,,,,,1087.100728,1087.100728,1088.080719,1088.104985,1088.104985,1088.104985,1088.104985,1122.576838,x,34.46173454,None,,,,,,yupaen,1,2025-02-27_13h56.56.552,MainFlow,2024.1.5,None,2025-02-27 13h57.05.923581 +0700
2,1,64,word/worden0641.png,6,0,90,90,90,1122.584334,,,,,,,1122.584334,1122.584334,1123.563882,1123.588578,1123.588578,1123.588578,1123.588578,1152.243192,z,28.65123858,None,,,,,,yupaen,1,2025-02-27_13h56.56.552,MainFlow,2024.1.5,None,2025-02-27 13h57.05.923581 +0700
2,1,27,word/worden0271.png,4,0,91,91,91,1152.250559,,,,,,,1152.250559,1152.250559,1153.23052,1153.253902,1153.253902,1153.253902,1153.253902,1165.543055,z,12.28125979,None,,,,,,yupaen,1,2025-02-27_13h56.56.552,MainFlow,2024.1.5,None,2025-02-27 13h57.05.923581 +0700
2,2,24,word/worden0242.png,4,0,92,92,92,1165.550264,,,,,,,1165.550264,1165.550264,1166.530175,1166.553545,1166.553545,1166.553545,1166.553545,1190.783582,x,24.2228975,None,,,,,,yupaen,1,2025-02-27_13h56.56.552,MainFlow,2024.1.5,None,2025-02-27 13h57.05.923581 +0700
2,1,87,word/worden0871.png,7,0,93,93,93,1190.792052,,,,,,,1190.792052,1190.792052,1191.775733,1191.799521,1191.799521,1191.799521,1191.799521,1207.892976,z,16.08692671,None,1191.799521,1191.799521,,,,yupaen,1,2025-02-27_13h56.56.552,MainFlow,2024.1.5,None,2025-02-27 13h57.05.923581 +0700
2,1,7,word/worden0071.png,3,0,94,94,94,1207.900391,,,,,,,1207.900391,1207.900391,1208.880086,1208.903755,1208.903755,1208.903755,1208.903755,1212.442905,z,3.535611834,None,,,,,,yupaen,1,2025-02-27_13h56.56.552,MainFlow,2024.1.5,None,2025-02-27 13h57.05.923581 +0700
2,2,9,word/worden0092.png,3,0,95,95,95,1212.449994,,,,,,,1212.449994,1212.449994,1213.430368,1213.453874,1213.453874,1213.453874,1213.453874,1223.826115,x,10.36875508,None,,,,,,yupaen,1,2025-02-27_13h56.56.552,MainFlow,2024.1.5,None,2025-02-27 13h57.05.923581 +0700
2,1,44,word/worden0441.png,5,0,96,96,96,1223.833137,,,,,,,1223.833137,1223.833137,1224.81337,1224.837176,1224.837176,1224.837176,1224.837176,1229.842523,z,5.002606292,None,,,,,,yupaen,1,2025-02-27_13h56.56.552,MainFlow,2024.1.5,None,2025-02-27 13h57.05.923581 +0700
2,2,10,word/worden0102.png,3,0,97,97,97,1229.849301,,,,,,,1229.849301,1229.849301,1230.825467,1230.850335,1230.850335,1230.850335,1230.850335,1236.993059,x,6.132402417,None,,,,,,yupaen,1,2025-02-27_13h56.56.552,MainFlow,2024.1.5,None,2025-02-27 13h57.05.923581 +0700
2,2,82,word/worden0822.png,7,0,98,98,98,1237.000435,,,,,,,1237.000435,1237.000435,1237.979438,1238.002838,1238.002838,1238.002838,1238.002838,1264.409172,x,26.40507075,None,,,,,,yupaen,1,2025-02-27_13h56.56.552,MainFlow,2024.1.5,None,2025-02-27 13h57.05.923581 +0700
2,3,89,word/worden0893.png,7,0,99,99,99,1264.416132,,,,,,,1264.416132,1264.416132,1265.396502,1265.420092,1265.420092,1265.420092,1265.420092,1287.609272,x,22.18731771,None,,,,,,yupaen,1,2025-02-27_13h56.56.552,MainFlow,2024.1.5,None,2025-02-27 13h57.05.923581 +0700
2,2,44,word/worden0442.png,5,0,100,100,100,1287.616535,,,,,,,1287.616535,1287.616535,1288.596004,1288.61912,1288.61912,1288.61912,1288.61912,1293.642357,x,5.019464625,None,,,,,,yupaen,1,2025-02-27_13h56.56.552,MainFlow,2024.1.5,None,2025-02-27 13h57.05.923581 +0700
2,1,52,word/worden0521.png,5,0,101,101,101,1293.650003,,,,,,,1293.650003,1293.650003,1294.629684,1294.653388,1294.653388,1294.653388,1294.653388,1310.258755,z,15.59344804,None,,,,,,yupaen,1,2025-02-27_13h56.56.552,MainFlow,2024.1.5,None,2025-02-27 13h57.05.923581 +0700
2,1,51,word/worden0511.png,5,0,102,102,102,1310.263089,,,,,,,1310.263089,1310.263089,1311.241669,1311.264841,1311.264841,1311.264841,1311.264841,1337.625401,x,26.35791192,None,,,,,,yupaen,1,2025-02-27_13h56.56.552,MainFlow,2024.1.5,None,2025-02-27 13h57.05.923581 +0700
2,3,51,word/worden0513.png,5,0,103,103,103,1337.632867,,,,,,,1337.632867,1337.632867,1338.61275,1338.635272,1338.635272,1338.635272,1338.635272,1359.175444,x,20.53131496,None,,,,,,yupaen,1,2025-02-27_13h56.56.552,MainFlow,2024.1.5,None,2025-02-27 13h57.05.923581 +0700
2,2,8,word/worden0082.png,3,0,104,104,104,1359.182528,,,,,,,1359.182528,1359.182528,1360.161981,1360.185115,1360.185115,1360.185115,1360.185115,1368.296257,x,8.109678458,None,,,,,,yupaen,1,2025-02-27_13h56.56.552,MainFlow,2024.1.5,None,2025-02-27 13h57.05.923581 +0700
2,2,3,word/worden0032.png,3,0,105,105,105,1368.307592,,,,,,,1368.307592,1368.307592,1369.291423,1369.315579,1369.315579,1369.315579,1369.315579,1383.208563,x,13.88320096,None,1369.315579,1369.315579,,,,yupaen,1,2025-02-27_13h56.56.552,MainFlow,2024.1.5,None,2025-02-27 13h57.05.923581 +0700
2,3,3,word/worden0033.png,3,0,106,106,106,1383.215571,,,,,,,1383.215571,1383.215571,1384.195781,1384.219139,1384.219139,1384.219139,1384.219139,1390.366192,x,6.138622,None,,,,,,yupaen,1,2025-02-27_13h56.56.552,MainFlow,2024.1.5,None,2025-02-27 13h57.05.923581 +0700
2,3,64,word/worden0643.png,6,0,107,107,107,1390.373962,,,,,,,1390.373962,1390.373962,1391.358001,1391.381624,1391.381624,1391.381624,1391.381624,1414.874408,x,23.48081921,None,1391.381624,1391.381624,,,,yupaen,1,2025-02-27_13h56.56.552,MainFlow,2024.1.5,None,2025-02-27 13h57.05.923581 +0700
2,3,26,word/worden0263.png,4,0,108,108,108,1414.878876,,,,,,,1414.878876,1414.878876,1415.857587,1415.879854,1415.879854,1415.879854,1415.879854,1422.365459,x,6.479159625,None,,,,,,yupaen,1,2025-02-27_13h56.56.552,MainFlow,2024.1.5,None,2025-02-27 13h57.05.923581 +0700
2,2,96,word/worden0962.png,7,0,109,109,109,1422.373878,,,,,,,1422.373878,1422.373878,1423.357731,1423.380915,1423.380915,1423.380915,1423.380915,1458.9458,x,35.56148504,None,1423.380915,1423.380915,,,,yupaen,1,2025-02-27_13h56.56.552,MainFlow,2024.1.5,None,2025-02-27 13h57.05.923581 +0700
2,1,22,word/worden0221.png,4,0,110,110,110,1458.95711,,,,,,,1458.95711,1458.95711,1459.940846,1459.964558,1459.964558,1459.964558,1459.964558,1463.191422,z,3.217966958,None,1459.964558,1459.964558,,,,yupaen,1,2025-02-27_13h56.56.552,MainFlow,2024.1.5,None,2025-02-27 13h57.05.923581 +0700
2,2,22,word/worden0222.png,4,0,111,111,111,1463.198397,,,,,,,1463.198397,1463.198397,1464.178532,1464.201705,1464.201705,1464.201705,1464.201705,1475.241391,x,11.03713312,None,,,,,,yupaen,1,2025-02-27_13h56.56.552,MainFlow,2024.1.5,None,2025-02-27 13h57.05.923581 +0700
2,2,26,word/worden0262.png,4,0,112,112,112,1475.248581,,,,,,,1475.248581,1475.248581,1476.228031,1476.251631,1476.251631,1476.251631,1476.251631,1482.908087,x,6.650607959,None,,,,,,yupaen,1,2025-02-27_13h56.56.552,MainFlow,2024.1.5,None,2025-02-27 13h57.05.923581 +0700
2,3,48,word/worden0483.png,5,0,113,113,113,1482.915484,,,,,,,1482.915484,1482.915484,1483.895121,1483.918285,1483.918285,1483.918285,1483.918285,1511.691015,x,27.7679145,None,,,,,,yupaen,1,2025-02-27_13h56.56.552,MainFlow,2024.1.5,None,2025-02-27 13h57.05.923581 +0700
2,2,87,word/worden0872.png,7,0,114,114,114,1511.69799,,,,,,,1511.69799,1511.69799,1512.678552,1512.702728,1512.702728,1512.702728,1512.702728,1527.615633,x,14.904249,None,,,,,,yupaen,1,2025-02-27_13h56.56.552,MainFlow,2024.1.5,None,2025-02-27 13h57.05.923581 +0700
2,1,10,word/worden0101.png,3,0,115,115,115,1527.623306,,,,,,,1527.623306,1527.623306,1528.607268,1528.631599,1528.631599,1528.631599,1528.631599,1533.22453,z,4.582553833,None,1528.631599,1528.631599,,,,yupaen,1,2025-02-27_13h56.56.552,MainFlow,2024.1.5,None,2025-02-27 13h57.05.923581 +0700
2,3,8,word/worden0083.png,3,0,116,116,116,1533.231792,,,,,,,1533.231792,1533.231792,1534.211588,1534.234447,1534.234447,1534.234447,1534.234447,1544.324258,x,10.08373379,None,,,,,,yupaen,1,2025-02-27_13h56.56.552,MainFlow,2024.1.5,None,2025-02-27 13h57.05.923581 +0700
2,3,94,word/worden0943.png,7,0,117,117,117,1544.331313,,,,,,,1544.331313,1544.331313,1545.311048,1545.334101,1545.334101,1545.334101,1545.334101,1571.112362,x,25.77686508,None,,,,,,yupaen,1,2025-02-27_13h56.56.552,MainFlow,2024.1.5,None,2025-02-27 13h57.05.923581 +0700
2,2,11,word/worden0112.png,3,0,118,118,118,1571.12321,,,,,,,1571.12321,1571.12321,1572.106897,1572.131827,1572.131827,1572.131827,1572.131827,1580.745434,x,8.610545584,None,1572.131827,1572.131827,,,,yupaen,1,2025-02-27_13h56.56.552,MainFlow,2024.1.5,None,2025-02-27 13h57.05.923581 +0700
2,3,24,word/worden0243.png,4,0,119,119,119,1580.756253,,,,,,,1580.756253,1580.756253,1581.740196,1581.763966,1581.763966,1581.763966,1581.763966,1596.657198,x,14.88161687,None,1581.763966,1581.763966,,,,yupaen,1,2025-02-27_13h56.56.552,MainFlow,2024.1.5,None,2025-02-27 13h57.05.923581 +0700
,,,,,,,,,,,,,,,,,,,,,,,,,,,,,1596.657474,1596.661186,1596.661186,,,,,,,
