lang,stimuli,imageid,word_length,worddir,trials.thisRepN,trials.thisTrialN,trials.thisN,trials.thisIndex,thisRow.t,notes,tutorial.started,tutorial.stopped,key_instruct.keys,key_instruct.rt,key_instruct.duration,instructblank.started,cross1.started,letterselect.started,imageword.started,text_2.started,cross2.started,key_resp.started,letterselect.stopped,key_resp.keys,key_resp.rt,key_resp.duration,instructblank.stopped,cross1.stopped,ending.started,text_3.started,ending_key.started,ending.stopped,ending_key.keys,ending_key.rt,ending_key.duration,participant,session,date,expName,psychopyVersion,frameRate,expStart
,,,,,,,,,,,0.003800875,39.71958133,space,39.667396,None,,,,,,,,,,,,,,,,,,,,,yupath,1,2025-02-27_13h41.11.337,MainFlow,2024.1.5,None,2025-02-27 13h41.23.733326 +0700
1,3,89,7,word/wordth0893.png,0,0,0,0,39.75903667,,,,,,,39.75903667,39.75903667,40.70596383,40.74176021,40.74176021,40.74176021,40.74176021,46.46182358,x,5.718278041,None,,,,,,,,,,yupath,1,2025-02-27_13h41.11.337,MainFlow,2024.1.5,None,2025-02-27 13h41.23.733326 +0700
1,3,28,7,word/wordth0283.png,0,1,1,1,46.4712815,,,,,,,46.4712815,46.4712815,47.45604971,47.48383175,47.48383175,47.48383175,47.48383175,51.82322487,x,4.329100209,None,47.48383175,47.48383175,,,,,,,,yupath,1,2025-02-27_13h41.11.337,MainFlow,2024.1.5,None,2025-02-27 13h41.23.733326 +0700
1,2,87,5,word/wordth0872.png,0,2,2,2,51.83040842,,,,,,,51.83040842,51.83040842,52.81007396,52.83320017,52.83320017,52.83320017,52.83320017,68.47311667,x,15.62782133,None,,,,,,,,,,yupath,1,2025-02-27_13h41.11.337,MainFlow,2024.1.5,None,2025-02-27 13h41.23.733326 +0700
1,2,68,4,word/wordth0682.png,0,3,3,3,68.47745354,,,,,,,68.47745354,68.47745354,69.45988508,69.48330946,69.48330946,69.48330946,69.48330946,70.87312467,x,1.3773255,None,,,,,,,,,,yupath,1,2025-02-27_13h41.11.337,MainFlow,2024.1.5,None,2025-02-27 13h41.23.733326 +0700
1,2,11,6,word/wordth0112.png,0,4,4,4,70.87752371,,,,,,,70.87752371,70.87752371,71.85992337,71.88346883,71.88346883,71.88346883,71.88346883,72.92771054,x,1.041290875,None,,,,,,,,,,yupath,1,2025-02-27_13h41.11.337,MainFlow,2024.1.5,None,2025-02-27 13h41.23.733326 +0700
1,3,11,6,word/wordth0113.png,0,5,5,5,72.93875092,,,,,,,72.93875092,72.93875092,73.92262479,73.94718492,73.94718492,73.94718492,73.94718492,80.12327071,x,6.168496666,None,73.94718492,73.94718492,,,,,,,,yupath,1,2025-02-27_13h41.11.337,MainFlow,2024.1.5,None,2025-02-27 13h41.23.733326 +0700
1,2,71,6,word/wordth0712.png,0,6,6,6,80.13080829,,,,,,,80.13080829,80.13080829,81.11035717,81.13404162,81.13404162,81.13404162,81.13404162,82.87776808,x,1.742280834,None,,,,,,,,,,yupath,1,2025-02-27_13h41.11.337,MainFlow,2024.1.5,None,2025-02-27 13h41.23.733326 +0700
1,3,44,5,word/wordth0443.png,0,7,7,7,82.88868471,,,,,,,82.88868471,82.88868471,83.87255754,83.89642446,83.89642446,83.89642446,83.89642446,96.30631604,x,12.40464675,None,83.89642446,83.89642446,,,,,,,,yupath,1,2025-02-27_13h41.11.337,MainFlow,2024.1.5,None,2025-02-27 13h41.23.733326 +0700
1,2,82,6,word/wordth0822.png,0,8,8,8,96.31316858,,,,,,,96.31316858,96.31316858,97.29295533,97.31580104,97.31580104,97.31580104,97.31580104,99.82293712,x,2.495708333,None,,,,,,,,,,yupath,1,2025-02-27_13h41.11.337,MainFlow,2024.1.5,None,2025-02-27 13h41.23.733326 +0700
1,2,28,7,word/wordth0282.png,0,9,9,9,99.82980958,,,,,,,99.82980958,99.82980958,100.8097316,100.8337653,100.8337653,100.8337653,100.8337653,103.5109517,x,2.673542584,None,,,,,,,,,,yupath,1,2025-02-27_13h41.11.337,MainFlow,2024.1.5,None,2025-02-27 13h41.23.733326 +0700
1,1,23,7,word/wordth0231.png,0,10,10,10,103.522166,,,,,,,103.522166,103.522166,104.5057484,104.5299432,104.5299432,104.5299432,104.5299432,110.197129,z,5.659535334,None,104.5299432,104.5299432,,,,,,,,yupath,1,2025-02-27_13h41.11.337,MainFlow,2024.1.5,None,2025-02-27 13h41.23.733326 +0700
1,2,63,4,word/wordth0632.png,0,11,11,11,110.2052474,,,,,,,110.2052474,110.2052474,111.1890962,111.2137165,111.2137165,111.2137165,111.2137165,114.2226818,x,2.998704333,None,111.2137165,111.2137165,,,,,,,,yupath,1,2025-02-27_13h41.11.337,MainFlow,2024.1.5,None,2025-02-27 13h41.23.733326 +0700
1,3,71,6,word/wordth0713.png,0,12,12,12,114.229525,,,,,,,114.229525,114.229525,115.205664,115.2301214,115.2301214,115.2301214,115.2301214,116.6561389,x,1.414663041,None,,,,,,,,,,yupath,1,2025-02-27_13h41.11.337,MainFlow,2024.1.5,None,2025-02-27 13h41.23.733326 +0700
1,1,1,5,word/wordth0011.png,0,13,13,13,116.6604935,,,,,,,116.6604935,116.6604935,117.6434619,117.6678726,117.6678726,117.6678726,117.6678726,123.5561763,x,5.88071625,None,117.6678726,117.6678726,,,,,,,,yupath,1,2025-02-27_13h41.11.337,MainFlow,2024.1.5,None,2025-02-27 13h41.23.733326 +0700
1,3,41,5,word/wordth0413.png,0,14,14,14,123.5634884,,,,,,,123.5634884,123.5634884,124.5433618,124.567164,124.567164,124.567164,124.567164,125.9469104,x,1.372888333,None,,,,,,,,,,yupath,1,2025-02-27_13h41.11.337,MainFlow,2024.1.5,None,2025-02-27 13h41.23.733326 +0700
1,2,64,3,word/wordth0642.png,0,15,15,15,125.9551622,,,,,,,125.9551622,125.9551622,126.9389367,126.9618945,126.9618945,126.9618945,126.9618945,127.6941572,x,0.730985584,None,126.9618945,126.9618945,,,,,,,,yupath,1,2025-02-27_13h41.11.337,MainFlow,2024.1.5,None,2025-02-27 13h41.23.733326 +0700
1,3,6,5,word/wordth0063.png,0,16,16,16,127.7051997,,,,,,,127.7051997,127.7051997,128.6888815,128.7125734,128.7125734,128.7125734,128.7125734,132.3062252,x,3.587095042,None,128.7125734,128.7125734,,,,,,,,yupath,1,2025-02-27_13h41.11.337,MainFlow,2024.1.5,None,2025-02-27 13h41.23.733326 +0700
1,2,31,7,word/wordth0312.png,0,17,17,17,132.3136037,,,,,,,132.3136037,132.3136037,133.2931257,133.3160596,133.3160596,133.3160596,133.3160596,134.0775558,x,0.759948916,None,,,,,,,,,,yupath,1,2025-02-27_13h41.11.337,MainFlow,2024.1.5,None,2025-02-27 13h41.23.733326 +0700
1,1,46,5,word/wordth0461.png,0,18,18,18,134.0884446,,,,,,,134.0884446,134.0884446,135.0722026,135.0963995,135.0963995,135.0963995,135.0963995,144.7893457,z,9.684535833,None,135.0963995,135.0963995,,,,,,,,yupath,1,2025-02-27_13h41.11.337,MainFlow,2024.1.5,None,2025-02-27 13h41.23.733326 +0700
1,3,51,4,word/wordth0513.png,0,19,19,19,144.7964604,,,,,,,144.7964604,144.7964604,145.7768057,145.8001023,145.8001023,145.8001023,145.8001023,153.946992,x,8.140071292,None,,,,,,,,,,yupath,1,2025-02-27_13h41.11.337,MainFlow,2024.1.5,None,2025-02-27 13h41.23.733326 +0700
1,2,26,5,word/wordth0262.png,0,20,20,20,153.9548995,,,,,,,153.9548995,153.9548995,154.938754,154.9635539,154.9635539,154.9635539,154.9635539,156.2934894,x,1.328013917,None,154.9635539,154.9635539,,,,,,,,yupath,1,2025-02-27_13h41.11.337,MainFlow,2024.1.5,None,2025-02-27 13h41.23.733326 +0700
1,2,96,7,word/wordth0962.png,0,21,21,21,156.3049552,,,,,,,156.3049552,156.3049552,157.288777,157.3140313,157.3140313,157.3140313,157.3140313,158.0893371,x,0.771040083,None,157.3140313,157.3140313,,,,,,,,yupath,1,2025-02-27_13h41.11.337,MainFlow,2024.1.5,None,2025-02-27 13h41.23.733326 +0700
1,1,31,7,word/wordth0311.png,0,22,22,22,158.0961031,,,,,,,158.0961031,158.0961031,159.0761413,159.1002895,159.1002895,159.1002895,159.1002895,162.4225427,z,3.320270125,None,,,,,,,,,,yupath,1,2025-02-27_13h41.11.337,MainFlow,2024.1.5,None,2025-02-27 13h41.23.733326 +0700
1,2,94,5,word/wordth0942.png,0,23,23,23,162.4294092,,,,,,,162.4294092,162.4294092,163.4094314,163.4334588,163.4334588,163.4334588,163.4334588,182.1391712,x,18.69852179,None,,,,,,,,,,yupath,1,2025-02-27_13h41.11.337,MainFlow,2024.1.5,None,2025-02-27 13h41.23.733326 +0700
1,3,48,5,word/wordth0483.png,0,24,24,24,182.1466359,,,,,,,182.1466359,182.1466359,183.1262288,183.1499542,183.1499542,183.1499542,183.1499542,184.6393315,x,1.486091875,None,,,,,,,,,,yupath,1,2025-02-27_13h41.11.337,MainFlow,2024.1.5,None,2025-02-27 13h41.23.733326 +0700
1,3,24,7,word/wordth0243.png,0,25,25,25,184.6463689,,,,,,,184.6463689,184.6463689,185.6262519,185.6510664,185.6510664,185.6510664,185.6510664,186.6771556,x,1.024702166,None,,,,,,,,,,yupath,1,2025-02-27_13h41.11.337,MainFlow,2024.1.5,None,2025-02-27 13h41.23.733326 +0700
1,1,87,5,word/wordth0871.png,0,26,26,26,186.6880627,,,,,,,186.6880627,186.6880627,187.6718496,187.6948016,187.6948016,187.6948016,187.6948016,193.0557287,z,5.3485945,None,187.6948016,187.6948016,,,,,,,,yupath,1,2025-02-27_13h41.11.337,MainFlow,2024.1.5,None,2025-02-27 13h41.23.733326 +0700
1,2,51,4,word/wordth0512.png,0,27,27,27,193.0601961,,,,,,,193.0601961,193.0601961,194.0432241,194.0662879,194.0662879,194.0662879,194.0662879,209.7725469,x,15.69800192,None,194.0662879,194.0662879,,,,,,,,yupath,1,2025-02-27_13h41.11.337,MainFlow,2024.1.5,None,2025-02-27 13h41.23.733326 +0700
1,3,27,3,word/wordth0273.png,0,28,28,28,209.7796273,,,,,,,209.7796273,209.7796273,210.7595805,210.7833878,210.7833878,210.7833878,210.7833878,218.9889497,x,8.196906458,None,,,,,,,,,,yupath,1,2025-02-27_13h41.11.337,MainFlow,2024.1.5,None,2025-02-27 13h41.23.733326 +0700
1,2,22,7,word/wordth0222.png,0,29,29,29,218.9961276,,,,,,,218.9961276,218.9961276,219.9760748,220.0003627,220.0003627,220.0003627,220.0003627,220.8390609,x,0.8368905,None,,,,,,,,,,yupath,1,2025-02-27_13h41.11.337,MainFlow,2024.1.5,None,2025-02-27 13h41.23.733326 +0700
1,3,23,7,word/wordth0233.png,0,30,30,30,220.846108,,,,,,,220.846108,220.846108,221.8260437,221.8492777,221.8492777,221.8492777,221.8492777,222.7462287,x,0.890435333,None,,,,,,,,,,yupath,1,2025-02-27_13h41.11.337,MainFlow,2024.1.5,None,2025-02-27 13h41.23.733326 +0700
1,1,48,5,word/wordth0481.png,0,31,31,31,222.7545899,,,,,,,222.7545899,222.7545899,223.7383488,223.7620317,223.7620317,223.7620317,223.7620317,231.1458476,z,7.377236875,None,223.7620317,223.7620317,,,,,,,,yupath,1,2025-02-27_13h41.11.337,MainFlow,2024.1.5,None,2025-02-27 13h41.23.733326 +0700
1,2,10,7,word/wordth0102.png,0,32,32,32,231.1545807,,,,,,,231.1545807,231.1545807,232.1383037,232.1613951,232.1613951,232.1613951,232.1613951,233.1100625,x,0.94677225,None,232.1613951,232.1613951,,,,,,,,yupath,1,2025-02-27_13h41.11.337,MainFlow,2024.1.5,None,2025-02-27 13h41.23.733326 +0700
1,3,64,3,word/wordth0643.png,0,33,33,33,233.1211291,,,,,,,233.1211291,233.1211291,234.1048227,234.1280953,234.1280953,234.1280953,234.1280953,244.7721495,x,10.63659308,None,234.1280953,234.1280953,,,,,,,,yupath,1,2025-02-27_13h41.11.337,MainFlow,2024.1.5,None,2025-02-27 13h41.23.733326 +0700
1,3,22,7,word/wordth0223.png,0,34,34,34,244.7790812,,,,,,,244.7790812,244.7790812,245.758962,245.7826064,245.7826064,245.7826064,245.7826064,246.5388258,x,0.748491542,None,,,,,,,,,,yupath,1,2025-02-27_13h41.11.337,MainFlow,2024.1.5,None,2025-02-27 13h41.23.733326 +0700
1,1,42,3,word/wordth0421.png,0,35,35,35,246.5457891,,,,,,,246.5457891,246.5457891,247.5255282,247.5499487,247.5499487,247.5499487,247.5499487,253.8219873,z,6.261864,None,,,,,,,,,,yupath,1,2025-02-27_13h41.11.337,MainFlow,2024.1.5,None,2025-02-27 13h41.23.733326 +0700
1,2,1,5,word/wordth0012.png,0,36,36,36,253.8289688,,,,,,,253.8289688,253.8289688,254.8089451,254.8317744,254.8317744,254.8317744,254.8317744,260.9888035,x,6.147970083,None,,,,,,,,,,yupath,1,2025-02-27_13h41.11.337,MainFlow,2024.1.5,None,2025-02-27 13h41.23.733326 +0700
1,1,82,6,word/wordth0821.png,0,37,37,37,260.996099,,,,,,,260.996099,260.996099,261.9761314,262.0006989,262.0006989,262.0006989,262.0006989,276.629459,z,14.62126596,None,,,,,,,,,,yupath,1,2025-02-27_13h41.11.337,MainFlow,2024.1.5,None,2025-02-27 13h41.23.733326 +0700
1,2,3,3,word/wordth0032.png,0,38,38,38,276.6375356,,,,,,,276.6375356,276.6375356,277.6214435,277.6455905,277.6455905,277.6455905,277.6455905,279.3054552,x,1.654258958,None,277.6455905,277.6455905,,,,,,,,yupath,1,2025-02-27_13h41.11.337,MainFlow,2024.1.5,None,2025-02-27 13h41.23.733326 +0700
1,1,68,4,word/wordth0681.png,0,39,39,39,279.3124826,,,,,,,279.3124826,279.3124826,280.2918752,280.3146127,280.3146127,280.3146127,280.3146127,288.255228,z,7.929896334,None,,,,,,,,,,yupath,1,2025-02-27_13h41.11.337,MainFlow,2024.1.5,None,2025-02-27 13h41.23.733326 +0700
1,1,66,5,word/wordth0661.png,0,40,40,40,288.2621797,,,,,,,288.2621797,288.2621797,289.2424447,289.2669107,289.2669107,289.2669107,289.2669107,290.9266889,z,1.657116709,None,,,,,,,,,,yupath,1,2025-02-27_13h41.11.337,MainFlow,2024.1.5,None,2025-02-27 13h41.23.733326 +0700
1,2,42,3,word/wordth0422.png,0,41,41,41,290.9374633,,,,,,,290.9374633,290.9374633,291.9211732,291.9447409,291.9447409,291.9447409,291.9447409,293.2934366,x,1.346744833,None,291.9447409,291.9447409,,,,,,,,yupath,1,2025-02-27_13h41.11.337,MainFlow,2024.1.5,None,2025-02-27 13h41.23.733326 +0700
1,3,93,4,word/wordth0933.png,0,42,42,42,293.3040787,,,,,,,293.3040787,293.3040787,294.2880462,294.3126545,294.3126545,294.3126545,294.3126545,298.455086,x,4.130685584,None,294.3126545,294.3126545,,,,,,,,yupath,1,2025-02-27_13h41.11.337,MainFlow,2024.1.5,None,2025-02-27 13h41.23.733326 +0700
1,1,71,6,word/wordth0711.png,0,43,43,43,298.45942,,,,,,,298.45942,298.45942,299.441921,299.4652273,299.4652273,299.4652273,299.4652273,313.693378,z,14.22668408,None,,,,,,,,,,yupath,1,2025-02-27_13h41.11.337,MainFlow,2024.1.5,None,2025-02-27 13h41.23.733326 +0700
1,1,64,3,word/wordth0641.png,0,44,44,44,313.7040452,,,,,,,313.7040452,313.7040452,314.6877692,314.7123354,314.7123354,314.7123354,314.7123354,319.2215241,z,4.4991365,None,314.7123354,314.7123354,,,,,,,,yupath,1,2025-02-27_13h41.11.337,MainFlow,2024.1.5,None,2025-02-27 13h41.23.733326 +0700
1,1,88,6,word/wordth0881.png,0,45,45,45,319.2282129,,,,,,,319.2282129,319.2282129,320.204509,320.229656,320.229656,320.229656,320.229656,322.7264408,z,2.494431667,None,,,,,,,,,,yupath,1,2025-02-27_13h41.11.337,MainFlow,2024.1.5,None,2025-02-27 13h41.23.733326 +0700
1,3,87,5,word/wordth0873.png,0,46,46,46,322.73727,,,,,,,322.73727,322.73727,323.7212424,323.7450177,323.7450177,323.7450177,323.7450177,324.8716448,x,1.114650333,None,323.7450177,323.7450177,,,,,,,,yupath,1,2025-02-27_13h41.11.337,MainFlow,2024.1.5,None,2025-02-27 13h41.23.733326 +0700
1,3,3,3,word/wordth0033.png,0,47,47,47,324.8760781,,,,,,,324.8760781,324.8760781,325.8588472,325.8826462,325.8826462,325.8826462,325.8826462,335.3622043,z,9.472042833,None,325.8826462,325.8826462,,,,,,,,yupath,1,2025-02-27_13h41.11.337,MainFlow,2024.1.5,None,2025-02-27 13h41.23.733326 +0700
1,2,95,6,word/wordth0952.png,0,48,48,48,335.3704842,,,,,,,335.3704842,335.3704842,336.354469,336.3793455,336.3793455,336.3793455,336.3793455,337.8050418,x,1.416209625,None,336.3793455,336.3793455,,,,,,,,yupath,1,2025-02-27_13h41.11.337,MainFlow,2024.1.5,None,2025-02-27 13h41.23.733326 +0700
1,1,11,6,word/wordth0111.png,0,49,49,49,337.8121744,,,,,,,337.8121744,337.8121744,338.7916865,338.8143177,338.8143177,338.8143177,338.8143177,362.8544447,x,24.03701554,None,,,,,,,,,,yupath,1,2025-02-27_13h41.11.337,MainFlow,2024.1.5,None,2025-02-27 13h41.23.733326 +0700
1,1,10,7,word/wordth0101.png,0,50,50,50,362.8612822,,,,,,,362.8612822,362.8612822,363.8376445,363.8618275,363.8618275,363.8618275,363.8618275,367.0548244,z,3.181766334,None,,,,,,,,,,yupath,1,2025-02-27_13h41.11.337,MainFlow,2024.1.5,None,2025-02-27 13h41.23.733326 +0700
1,1,44,5,word/wordth0441.png,0,51,51,51,367.0621773,,,,,,,367.0621773,367.0621773,368.0419276,368.0657414,368.0657414,368.0657414,368.0657414,373.0931035,z,5.025603292,None,,,,,,,,,,yupath,1,2025-02-27_13h41.11.337,MainFlow,2024.1.5,None,2025-02-27 13h41.23.733326 +0700
1,1,96,7,word/wordth0961.png,0,52,52,52,373.1034819,,,,,,,373.1034819,373.1034819,374.0874796,374.112089,374.112089,374.112089,374.112089,375.2285238,x,1.10876525,None,374.112089,374.112089,,,,,,,,yupath,1,2025-02-27_13h41.11.337,MainFlow,2024.1.5,None,2025-02-27 13h41.23.733326 +0700
1,2,27,3,word/wordth0272.png,0,53,53,53,375.2370916,,,,,,,375.2370916,375.2370916,376.2208405,376.2443126,376.2443126,376.2443126,376.2443126,377.254849,x,1.00829825,None,376.2443126,376.2443126,,,,,,,,yupath,1,2025-02-27_13h41.11.337,MainFlow,2024.1.5,None,2025-02-27 13h41.23.733326 +0700
1,1,63,4,word/wordth0631.png,0,54,54,54,377.26196,,,,,,,377.26196,377.26196,378.2416422,378.2645689,378.2645689,378.2645689,378.2645689,388.838049,z,10.56200229,None,,,,,,,,,,yupath,1,2025-02-27_13h41.11.337,MainFlow,2024.1.5,None,2025-02-27 13h41.23.733326 +0700
1,3,66,5,word/wordth0663.png,0,55,55,55,388.8426489,,,,,,,388.8426489,388.8426489,389.8251984,389.8495762,389.8495762,389.8495762,389.8495762,407.525911,x,17.67370304,None,,,,,,,,,,yupath,1,2025-02-27_13h41.11.337,MainFlow,2024.1.5,None,2025-02-27 13h41.23.733326 +0700
1,3,88,7,word/wordth0883.png,0,56,56,56,407.536788,,,,,,,407.536788,407.536788,408.5206831,408.5453967,408.5453967,408.5453967,408.5453967,409.9545374,x,1.402626292,None,408.5453967,408.5453967,,,,,,,,yupath,1,2025-02-27_13h41.11.337,MainFlow,2024.1.5,None,2025-02-27 13h41.23.733326 +0700
1,3,96,7,word/wordth0963.png,0,57,57,57,409.9616151,,,,,,,409.9616151,409.9616151,410.9415673,410.9649581,410.9649581,410.9649581,410.9649581,411.7592726,x,0.790581792,None,,,,,,,,,,yupath,1,2025-02-27_13h41.11.337,MainFlow,2024.1.5,None,2025-02-27 13h41.23.733326 +0700
1,2,52,5,word/wordth0522.png,0,58,58,58,411.7703744,,,,,,,411.7703744,411.7703744,412.7538908,412.777669,412.777669,412.777669,412.777669,414.3092178,x,1.529991291,None,412.777669,412.777669,,,,,,,,yupath,1,2025-02-27_13h41.11.337,MainFlow,2024.1.5,None,2025-02-27 13h41.23.733326 +0700
1,3,50,6,word/wordth0503.png,0,59,59,59,414.3202782,,,,,,,414.3202782,414.3202782,415.3038661,415.3272726,415.3272726,415.3272726,415.3272726,432.9710403,x,17.63699854,None,415.3272726,415.3272726,,,,,,,,yupath,1,2025-02-27_13h41.11.337,MainFlow,2024.1.5,None,2025-02-27 13h41.23.733326 +0700
1,3,61,7,word/wordth0613.png,0,60,60,60,432.9784328,,,,,,,432.9784328,432.9784328,433.957647,433.9812374,433.9812374,433.9812374,433.9812374,435.737909,x,1.749800583,None,,,,,,,,,,yupath,1,2025-02-27_13h41.11.337,MainFlow,2024.1.5,None,2025-02-27 13h41.23.733326 +0700
1,2,46,5,word/wordth0462.png,0,61,61,61,435.745098,,,,,,,435.745098,435.745098,436.7250008,436.7486312,436.7486312,436.7486312,436.7486312,437.4110582,x,0.656175917,None,,,,,,,,,,yupath,1,2025-02-27_13h41.11.337,MainFlow,2024.1.5,None,2025-02-27 13h41.23.733326 +0700
1,1,61,7,word/wordth0611.png,0,62,62,62,437.4200683,,,,,,,437.4200683,437.4200683,438.4038958,438.4286809,438.4286809,438.4286809,438.4286809,445.6114667,z,7.175842209,None,438.4286809,438.4286809,,,,,,,,yupath,1,2025-02-27_13h41.11.337,MainFlow,2024.1.5,None,2025-02-27 13h41.23.733326 +0700
1,1,24,7,word/wordth0241.png,0,63,63,63,445.620086,,,,,,,445.620086,445.620086,446.603769,446.6296771,446.6296771,446.6296771,446.6296771,460.228094,z,13.59132796,None,446.6296771,446.6296771,,,,,,,,yupath,1,2025-02-27_13h41.11.337,MainFlow,2024.1.5,None,2025-02-27 13h41.23.733326 +0700
1,2,89,7,word/wordth0892.png,0,64,64,64,460.2365702,,,,,,,460.2365702,460.2365702,461.2203089,461.2439842,461.2439842,461.2439842,461.2439842,462.3542324,x,1.103361875,None,461.2439842,461.2439842,,,,,,,,yupath,1,2025-02-27_13h41.11.337,MainFlow,2024.1.5,None,2025-02-27 13h41.23.733326 +0700
1,1,30,4,word/wordth0301.png,0,65,65,65,462.3610886,,,,,,,462.3610886,462.3610886,463.341671,463.3653647,463.3653647,463.3653647,463.3653647,464.5948567,z,1.222050167,None,,,,,,,,,,yupath,1,2025-02-27_13h41.11.337,MainFlow,2024.1.5,None,2025-02-27 13h41.23.733326 +0700
1,1,93,4,word/wordth0931.png,0,66,66,66,464.6028745,,,,,,,464.6028745,464.6028745,465.586819,465.6108417,465.6108417,465.6108417,465.6108417,467.720781,z,2.104768041,None,465.6108417,465.6108417,,,,,,,,yupath,1,2025-02-27_13h41.11.337,MainFlow,2024.1.5,None,2025-02-27 13h41.23.733326 +0700
1,1,50,6,word/wordth0501.png,0,67,67,67,467.7282775,,,,,,,467.7282775,467.7282775,468.7080297,468.7323547,468.7323547,468.7323547,468.7323547,470.0277444,z,1.288566083,None,,,,,,,,,,yupath,1,2025-02-27_13h41.11.337,MainFlow,2024.1.5,None,2025-02-27 13h41.23.733326 +0700
1,3,82,6,word/wordth0823.png,0,68,68,68,470.0365003,,,,,,,470.0365003,470.0365003,471.0201862,471.0425589,471.0425589,471.0425589,471.0425589,491.2280057,x,20.17810396,None,471.0425589,471.0425589,,,,,,,,yupath,1,2025-02-27_13h41.11.337,MainFlow,2024.1.5,None,2025-02-27 13h41.23.733326 +0700
1,1,27,3,word/wordth0271.png,0,69,69,69,491.2363556,,,,,,,491.2363556,491.2363556,492.2201371,492.2443445,492.2443445,492.2443445,492.2443445,495.1541181,z,2.902219667,None,492.2443445,492.2443445,,,,,,,,yupath,1,2025-02-27_13h41.11.337,MainFlow,2024.1.5,None,2025-02-27 13h41.23.733326 +0700
1,3,52,5,word/wordth0523.png,0,70,70,70,495.1613634,,,,,,,495.1613634,495.1613634,496.1413676,496.1651205,496.1651205,496.1651205,496.1651205,497.375068,x,1.206729125,None,,,,,,,,,,yupath,1,2025-02-27_13h41.11.337,MainFlow,2024.1.5,None,2025-02-27 13h41.23.733326 +0700
1,1,22,7,word/wordth0221.png,0,71,71,71,497.3863132,,,,,,,497.3863132,497.3863132,498.3701111,498.394737,498.394737,498.394737,498.394737,500.9585257,z,2.560104833,None,498.394737,498.394737,,,,,,,,yupath,1,2025-02-27_13h41.11.337,MainFlow,2024.1.5,None,2025-02-27 13h41.23.733326 +0700
1,1,6,5,word/wordth0061.png,0,72,72,72,500.9697531,,,,,,,500.9697531,500.9697531,501.953426,501.9778667,501.9778667,501.9778667,501.9778667,510.3583243,z,8.37681425,None,501.9778667,501.9778667,,,,,,,,yupath,1,2025-02-27_13h41.11.337,MainFlow,2024.1.5,None,2025-02-27 13h41.23.733326 +0700
1,2,30,4,word/wordth0302.png,0,73,73,73,510.3694914,,,,,,,510.3694914,510.3694914,511.3533587,511.3785829,511.3785829,511.3785829,511.3785829,512.8113253,x,1.424987541,None,511.3785829,511.3785829,,,,,,,,yupath,1,2025-02-27_13h41.11.337,MainFlow,2024.1.5,None,2025-02-27 13h41.23.733326 +0700
1,1,51,4,word/wordth0511.png,0,74,74,74,512.8195873,,,,,,,512.8195873,512.8195873,513.8032771,513.8263565,513.8263565,513.8263565,513.8263565,520.2374111,z,6.400772292,None,513.8263565,513.8263565,,,,,,,,yupath,1,2025-02-27_13h41.11.337,MainFlow,2024.1.5,None,2025-02-27 13h41.23.733326 +0700
1,2,50,6,word/wordth0502.png,0,75,75,75,520.2448155,,,,,,,520.2448155,520.2448155,521.2243366,521.2477134,521.2477134,521.2477134,521.2477134,523.3253607,x,2.075570667,None,,,,,,,,,,yupath,1,2025-02-27_13h41.11.337,MainFlow,2024.1.5,None,2025-02-27 13h41.23.733326 +0700
1,3,95,6,word/wordth0953.png,0,76,76,76,523.3362262,,,,,,,523.3362262,523.3362262,524.3198285,524.3435784,524.3435784,524.3435784,524.3435784,526.7371468,x,2.387309792,None,524.3435784,524.3435784,,,,,,,,yupath,1,2025-02-27_13h41.11.337,MainFlow,2024.1.5,None,2025-02-27 13h41.23.733326 +0700
1,1,75,4,word/wordth0751.png,0,77,77,77,526.7442952,,,,,,,526.7442952,526.7442952,527.7246946,527.748694,527.748694,527.748694,527.748694,533.3538022,z,5.598552458,None,,,,,,,,,,yupath,1,2025-02-27_13h41.11.337,MainFlow,2024.1.5,None,2025-02-27 13h41.23.733326 +0700
1,1,95,6,word/wordth0951.png,0,78,78,78,533.3612165,,,,,,,533.3612165,533.3612165,534.3412718,534.3649342,534.3649342,534.3649342,534.3649342,539.7205206,z,5.34302325,None,,,,,,,,,,yupath,1,2025-02-27_13h41.11.337,MainFlow,2024.1.5,None,2025-02-27 13h41.23.733326 +0700
1,2,8,6,word/wordth0082.png,0,79,79,79,539.7251567,,,,,,,539.7251567,539.7251567,540.7077525,540.7319508,540.7319508,540.7319508,540.7319508,542.0536987,x,1.319774292,None,,,,,,,,,,yupath,1,2025-02-27_13h41.11.337,MainFlow,2024.1.5,None,2025-02-27 13h41.23.733326 +0700
1,3,75,4,word/wordth0753.png,0,80,80,80,542.0608171,,,,,,,542.0608171,542.0608171,543.0407895,543.0642091,543.0642091,543.0642091,543.0642091,544.853597,x,1.778003125,None,,,,,,,,,,yupath,1,2025-02-27_13h41.11.337,MainFlow,2024.1.5,None,2025-02-27 13h41.23.733326 +0700
1,1,28,7,word/wordth0281.png,0,81,81,81,544.857989,,,,,,,544.857989,544.857989,545.8412502,545.8653554,545.8653554,545.8653554,545.8653554,554.12538,z,8.257992334,None,545.8653554,545.8653554,,,,,,,,yupath,1,2025-02-27_13h41.11.337,MainFlow,2024.1.5,None,2025-02-27 13h41.23.733326 +0700
1,3,42,3,word/wordth0423.png,0,82,82,82,554.1357869,,,,,,,554.1357869,554.1357869,555.1198024,555.1459047,555.1459047,555.1459047,555.1459047,556.9202985,z,1.769702208,None,555.1459047,555.1459047,,,,,,,,yupath,1,2025-02-27_13h41.11.337,MainFlow,2024.1.5,None,2025-02-27 13h41.23.733326 +0700
1,3,46,5,word/wordth0463.png,0,83,83,83,556.9270608,,,,,,,556.9270608,556.9270608,557.9073867,557.931216,557.931216,557.931216,557.931216,566.6869645,x,8.752867459,None,,,,,,,,,,yupath,1,2025-02-27_13h41.11.337,MainFlow,2024.1.5,None,2025-02-27 13h41.23.733326 +0700
1,3,1,5,word/wordth0013.png,0,84,84,84,566.6942032,,,,,,,566.6942032,566.6942032,567.6741219,567.6974412,567.6974412,567.6974412,567.6974412,568.5249386,x,0.826065333,None,,,,,,,,,,yupath,1,2025-02-27_13h41.11.337,MainFlow,2024.1.5,None,2025-02-27 13h41.23.733326 +0700
1,2,70,6,word/wordth0702.png,0,85,85,85,568.5358719,,,,,,,568.5358719,568.5358719,569.5196055,569.5427711,569.5427711,569.5427711,569.5427711,570.2272469,x,0.677355,None,569.5427711,569.5427711,,,,,,,,yupath,1,2025-02-27_13h41.11.337,MainFlow,2024.1.5,None,2025-02-27 13h41.23.733326 +0700
1,1,7,4,word/wordth0071.png,0,86,86,86,570.2359153,,,,,,,570.2359153,570.2359153,571.2196812,571.2430323,571.2430323,571.2430323,571.2430323,577.9535618,z,6.704020417,None,571.2430323,571.2430323,,,,,,,,yupath,1,2025-02-27_13h41.11.337,MainFlow,2024.1.5,None,2025-02-27 13h41.23.733326 +0700
1,2,7,4,word/wordth0072.png,0,87,87,87,577.9606821,,,,,,,577.9606821,577.9606821,578.9406965,578.9637154,578.9637154,578.9637154,578.9637154,584.4537102,x,5.479734584,None,,,,,,,,,,yupath,1,2025-02-27_13h41.11.337,MainFlow,2024.1.5,None,2025-02-27 13h41.23.733326 +0700
1,2,24,7,word/wordth0242.png,0,88,88,88,584.4607837,,,,,,,584.4607837,584.4607837,585.4408595,585.4650438,585.4650438,585.4650438,585.4650438,586.3251271,x,0.858096625,None,,,,,,,,,,yupath,1,2025-02-27_13h41.11.337,MainFlow,2024.1.5,None,2025-02-27 13h41.23.733326 +0700
1,3,26,5,word/wordth0263.png,0,89,89,89,586.3357793,,,,,,,586.3357793,586.3357793,587.319541,587.3448712,587.3448712,587.3448712,587.3448712,588.3413332,x,0.994418166,None,587.3448712,587.3448712,,,,,,,,yupath,1,2025-02-27_13h41.11.337,MainFlow,2024.1.5,None,2025-02-27 13h41.23.733326 +0700
1,2,23,7,word/wordth0232.png,0,90,90,90,588.3525615,,,,,,,588.3525615,588.3525615,589.3360955,589.3593911,589.3593911,589.3593911,589.3593911,590.0533545,x,0.691667208,None,589.3593911,589.3593911,,,,,,,,yupath,1,2025-02-27_13h41.11.337,MainFlow,2024.1.5,None,2025-02-27 13h41.23.733326 +0700
1,2,75,4,word/wordth0752.png,0,91,91,91,590.0601101,,,,,,,590.0601101,590.0601101,591.0407437,591.0653885,591.0653885,591.0653885,591.0653885,591.6865555,x,0.609393542,None,,,,,,,,,,yupath,1,2025-02-27_13h41.11.337,MainFlow,2024.1.5,None,2025-02-27 13h41.23.733326 +0700
1,2,6,5,word/wordth0062.png,0,92,92,92,591.6909057,,,,,,,591.6909057,591.6909057,592.6697073,592.697224,592.697224,592.697224,592.697224,593.4106709,x,0.706514833,None,,,,,,,,,,yupath,1,2025-02-27_13h41.11.337,MainFlow,2024.1.5,None,2025-02-27 13h41.23.733326 +0700
1,2,93,4,word/wordth0932.png,0,93,93,93,593.4190425,,,,,,,593.4190425,593.4190425,594.4029232,594.4274836,594.4274836,594.4274836,594.4274836,595.1702906,x,0.736295833,None,594.4274836,594.4274836,,,,,,,,yupath,1,2025-02-27_13h41.11.337,MainFlow,2024.1.5,None,2025-02-27 13h41.23.733326 +0700
1,2,48,5,word/wordth0482.png,0,94,94,94,595.1773407,,,,,,,595.1773407,595.1773407,596.1567852,596.1801718,596.1801718,596.1801718,596.1801718,596.9034103,x,0.719627292,None,,,,,,,,,,yupath,1,2025-02-27_13h41.11.337,MainFlow,2024.1.5,None,2025-02-27 13h41.23.733326 +0700
1,1,70,6,word/wordth0701.png,0,95,95,95,596.910564,,,,,,,596.910564,596.910564,597.8904725,597.9140567,597.9140567,597.9140567,597.9140567,608.9867209,z,11.06497533,None,,,,,,,,,,yupath,1,2025-02-27_13h41.11.337,MainFlow,2024.1.5,None,2025-02-27 13h41.23.733326 +0700
1,2,66,5,word/wordth0662.png,0,96,96,96,608.993825,,,,,,,608.993825,608.993825,609.9734948,609.9968443,609.9968443,609.9968443,609.9968443,613.1867259,x,3.182766958,None,,,,,,,,,,yupath,1,2025-02-27_13h41.11.337,MainFlow,2024.1.5,None,2025-02-27 13h41.23.733326 +0700
1,1,26,5,word/wordth0261.png,0,97,97,97,613.1937669,,,,,,,613.1937669,613.1937669,614.1740017,614.1978106,614.1978106,614.1978106,614.1978106,616.086608,z,1.886147042,None,,,,,,,,,,yupath,1,2025-02-27_13h41.11.337,MainFlow,2024.1.5,None,2025-02-27 13h41.23.733326 +0700
1,3,9,6,word/wordth0093.png,0,98,98,98,616.0938138,,,,,,,616.0938138,616.0938138,617.0739193,617.0993117,617.0993117,617.0993117,617.0993117,618.2534854,x,1.143535208,None,,,,,,,,,,yupath,1,2025-02-27_13h41.11.337,MainFlow,2024.1.5,None,2025-02-27 13h41.23.733326 +0700
1,2,61,7,word/wordth0612.png,0,99,99,99,618.2602946,,,,,,,618.2602946,618.2602946,619.2400785,619.2641173,619.2641173,619.2641173,619.2641173,620.02005,x,0.747289916,None,,,,,,,,,,yupath,1,2025-02-27_13h41.11.337,MainFlow,2024.1.5,None,2025-02-27 13h41.23.733326 +0700
1,3,8,6,word/wordth0083.png,0,100,100,100,620.0272848,,,,,,,620.0272848,620.0272848,621.0072871,621.0308005,621.0308005,621.0308005,621.0308005,633.2605224,z,12.22185521,None,,,,,,,,,,yupath,1,2025-02-27_13h41.11.337,MainFlow,2024.1.5,None,2025-02-27 13h41.23.733326 +0700
1,1,8,6,word/wordth0081.png,0,101,101,101,633.2689495,,,,,,,633.2689495,633.2689495,634.2526297,634.2768623,634.2768623,634.2768623,634.2768623,638.0364271,z,3.751157209,None,634.2768623,634.2768623,,,,,,,,yupath,1,2025-02-27_13h41.11.337,MainFlow,2024.1.5,None,2025-02-27 13h41.23.733326 +0700
1,2,44,5,word/wordth0442.png,0,102,102,102,638.0432977,,,,,,,638.0432977,638.0432977,639.0232552,639.046212,639.046212,639.046212,639.046212,641.4033456,x,2.348283,None,,,,,,,,,,yupath,1,2025-02-27_13h41.11.337,MainFlow,2024.1.5,None,2025-02-27 13h41.23.733326 +0700
1,3,31,7,word/wordth0313.png,0,103,103,103,641.4107419,,,,,,,641.4107419,641.4107419,642.3904051,642.4160117,642.4160117,642.4160117,642.4160117,643.203422,x,0.779120708,None,,,,,,,,,,yupath,1,2025-02-27_13h41.11.337,MainFlow,2024.1.5,None,2025-02-27 13h41.23.733326 +0700
1,1,89,7,word/wordth0891.png,0,104,104,104,643.2106707,,,,,,,643.2106707,643.2106707,644.1898592,644.2142016,644.2142016,644.2142016,644.2142016,666.5698988,z,22.34943462,None,,,,,,,,,,yupath,1,2025-02-27_13h41.11.337,MainFlow,2024.1.5,None,2025-02-27 13h41.23.733326 +0700
1,3,70,7,word/wordth0703.png,0,105,105,105,666.5771658,,,,,,,666.5771658,666.5771658,667.5568265,667.5802744,667.5802744,667.5802744,667.5802744,670.3029777,x,2.718814208,None,,,,,,,,,,yupath,1,2025-02-27_13h41.11.337,MainFlow,2024.1.5,None,2025-02-27 13h41.23.733326 +0700
1,3,68,4,word/wordth0683.png,0,106,106,106,670.3099926,,,,,,,670.3099926,670.3099926,671.2896739,671.3133671,671.3133671,671.3133671,671.3133671,672.1410779,x,0.825830834,None,,,,,,,,,,yupath,1,2025-02-27_13h41.11.337,MainFlow,2024.1.5,None,2025-02-27 13h41.23.733326 +0700
1,3,10,7,word/wordth0103.png,0,107,107,107,672.1519481,,,,,,,672.1519481,672.1519481,673.1357724,673.160324,673.160324,673.160324,673.160324,673.8529535,x,0.682826917,None,673.160324,673.160324,,,,,,,,yupath,1,2025-02-27_13h41.11.337,MainFlow,2024.1.5,None,2025-02-27 13h41.23.733326 +0700
1,3,94,5,word/wordth0943.png,0,108,108,108,673.8600837,,,,,,,673.8600837,673.8600837,674.8397996,674.8624973,674.8624973,674.8624973,674.8624973,676.6194944,x,1.749391459,None,,,,,,,,,,yupath,1,2025-02-27_13h41.11.337,MainFlow,2024.1.5,None,2025-02-27 13h41.23.733326 +0700
1,1,3,3,word/wordth0031.png,0,109,109,109,676.6266935,,,,,,,676.6266935,676.6266935,677.6064997,677.6300289,677.6300289,677.6300289,677.6300289,680.2363087,z,2.59711675,None,,,,,,,,,,yupath,1,2025-02-27_13h41.11.337,MainFlow,2024.1.5,None,2025-02-27 13h41.23.733326 +0700
1,3,63,4,word/wordth0633.png,0,110,110,110,680.2433397,,,,,,,680.2433397,680.2433397,681.2234425,681.2467988,681.2467988,681.2467988,681.2467988,682.0433301,x,0.789137708,None,,,,,,,,,,yupath,1,2025-02-27_13h41.11.337,MainFlow,2024.1.5,None,2025-02-27 13h41.23.733326 +0700
1,2,9,6,word/wordth0092.png,0,111,111,111,682.0518912,,,,,,,682.0518912,682.0518912,683.0350027,683.0491893,683.0491893,683.0491893,683.0491893,683.8364435,x,0.7780815,None,683.0491893,683.0491893,,,,,,,,yupath,1,2025-02-27_13h41.11.337,MainFlow,2024.1.5,None,2025-02-27 13h41.23.733326 +0700
1,3,7,4,word/wordth0073.png,0,112,112,112,683.8438727,,,,,,,683.8438727,683.8438727,684.8233418,684.8469782,684.8469782,684.8469782,684.8469782,685.4863005,x,0.63700575,None,,,,,,,,,,yupath,1,2025-02-27_13h41.11.337,MainFlow,2024.1.5,None,2025-02-27 13h41.23.733326 +0700
1,2,41,5,word/wordth0412.png,0,113,113,113,685.4932656,,,,,,,685.4932656,685.4932656,686.4734586,686.4974284,686.4974284,686.4974284,686.4974284,687.4696402,x,0.969964875,None,,,,,,,,,,yupath,1,2025-02-27_13h41.11.337,MainFlow,2024.1.5,None,2025-02-27 13h41.23.733326 +0700
1,1,9,6,word/wordth0091.png,0,114,114,114,687.4765354,,,,,,,687.4765354,687.4765354,688.4567981,688.4814819,688.4814819,688.4814819,688.4814819,696.8266357,z,8.337576042,None,,,,,,,,,,yupath,1,2025-02-27_13h41.11.337,MainFlow,2024.1.5,None,2025-02-27 13h41.23.733326 +0700
1,1,94,5,word/wordth0941.png,0,115,115,115,696.8352281,,,,,,,696.8352281,696.8352281,697.8191273,697.8458004,697.8458004,697.8458004,697.8458004,699.7356282,z,1.877719042,None,697.8458004,697.8458004,,,,,,,,yupath,1,2025-02-27_13h41.11.337,MainFlow,2024.1.5,None,2025-02-27 13h41.23.733326 +0700
1,1,52,5,word/wordth0521.png,0,116,116,116,699.7400375,,,,,,,699.7400375,699.7400375,700.7188449,700.742675,700.742675,700.742675,700.742675,702.1026093,z,1.34905775,None,,,,,,,,,,yupath,1,2025-02-27_13h41.11.337,MainFlow,2024.1.5,None,2025-02-27 13h41.23.733326 +0700
1,2,88,6,word/wordth0882.png,0,117,117,117,702.1070035,,,,,,,702.1070035,702.1070035,703.0894379,703.1128505,703.1128505,703.1128505,703.1128505,705.3862218,x,2.265691666,None,,,,,,,,,,yupath,1,2025-02-27_13h41.11.337,MainFlow,2024.1.5,None,2025-02-27 13h41.23.733326 +0700
1,1,41,5,word/wordth0411.png,0,118,118,118,705.3936302,,,,,,,705.3936302,705.3936302,706.3733866,706.3969065,706.3969065,706.3969065,706.3969065,708.5574259,z,2.158637667,None,,,,,,,,,,yupath,1,2025-02-27_13h41.11.337,MainFlow,2024.1.5,None,2025-02-27 13h41.23.733326 +0700
1,3,30,4,word/wordth0303.png,0,119,119,119,708.5685241,,,,,,,708.5685241,708.5685241,709.5522457,709.5766178,709.5766178,709.5766178,709.5766178,710.635834,z,1.050302041,None,709.5766178,709.5766178,,,,,,,,yupath,1,2025-02-27_13h41.11.337,MainFlow,2024.1.5,None,2025-02-27 13h41.23.733326 +0700
,,,,,,,,,,,,,,,,,,,,,,,,,,,,,710.6361605,710.6424856,710.6424856,715.7407104,space,5.096579292,None,yupath,1,2025-02-27_13h41.11.337,MainFlow,2024.1.5,None,2025-02-27 13h41.23.733326 +0700
