lang,stimuli,imageid,worddir,trials.thisRepN,trials.thisTrialN,trials.thisN,trials.thisIndex,thisRow.t,notes,tutorial.started,tutorial.stopped,key_instruct.keys,key_instruct.rt,key_instruct.duration,instructblank.started,cross1.started,letterselect.started,imageword.started,text_2.started,cross2.started,key_resp.started,letterselect.stopped,key_resp.keys,key_resp.rt,key_resp.duration,instructblank.stopped,cross1.stopped,ending.started,text_3.started,ending_key.started,participant,session,date,expName,psychopyVersion,frameRate,expStart,
,,,,,,,,,,0.004137083999921742,4.814619083999787,space,4.766521792000276,None,,,,,,,,,,,,,,,,,yupaen,001,2025-02-27_13h56.56.552,MainFlow,2024.1.5,None,2025-02-27 13h57.05.923581 +0700,
2,1,66,word/worden0661.png,0,0,0,0,4.853846083999997,,,,,,,4.853846083999997,4.853846083999997,5.799190374999853,5.837212958999771,5.837212958999771,5.837212958999771,5.837212958999771,7.399713667000469,x,1.55573616699985,None,,,,,,yupaen,001,2025-02-27_13h56.56.552,MainFlow,2024.1.5,None,2025-02-27 13h57.05.923581 +0700,
2,1,3,word/worden0031.png,0,1,1,1,7.407192792000387,,,,,,,7.407192792000387,7.407192792000387,8.38719349999974,8.411610750000364,8.411610750000364,8.411610750000364,8.411610750000364,9.966401292000228,z,1.5491108329997587,None,,,,,,yupaen,001,2025-02-27_13h56.56.552,MainFlow,2024.1.5,None,2025-02-27 13h57.05.923581 +0700,
2,2,71,word/worden0712.png,0,2,2,2,9.973317375000079,,,,,,,9.973317375000079,9.973317375000079,10.953224542000498,10.977800749999915,10.977800749999915,10.977800749999915,10.977800749999915,12.199836834000052,x,1.2141733339994971,None,,,,,,yupaen,001,2025-02-27_13h56.56.552,MainFlow,2024.1.5,None,2025-02-27 13h57.05.923581 +0700,
2,3,27,word/worden0273.png,0,3,3,3,12.206993916999636,,,,,,,12.206993916999636,12.206993916999636,13.186874459000137,13.210529416999634,13.210529416999634,13.210529416999634,13.210529416999634,31.699251459000152,x,18.486559625000154,None,,,,,,yupaen,001,2025-02-27_13h56.56.552,MainFlow,2024.1.5,None,2025-02-27 13h57.05.923581 +0700,
2,3,88,word/worden0883.png,0,4,4,4,31.709189875000448,,,,,,,31.709189875000448,31.709189875000448,32.682284958999844,32.70433258400044,32.70433258400044,32.70433258400044,32.70433258400044,35.716446292,x,3.0096364580003865,None,,,,,,yupaen,001,2025-02-27_13h56.56.552,MainFlow,2024.1.5,None,2025-02-27 13h57.05.923581 +0700,
2,1,28,word/worden0281.png,0,5,5,5,35.72398337499999,,,,,,,35.72398337499999,35.72398337499999,36.70327762499983,36.72598424999978,36.72598424999978,36.72598424999978,36.72598424999978,40.14976116700018,z,3.4191341249998004,None,,,,,,yupaen,001,2025-02-27_13h56.56.552,MainFlow,2024.1.5,None,2025-02-27 13h57.05.923581 +0700,
2,1,50,word/worden0501.png,0,6,6,6,40.15722350000033,,,,,,,40.15722350000033,40.15722350000033,41.136977791999925,41.16279370899974,41.16279370899974,41.16279370899974,41.16279370899974,45.23303300000043,x,4.062389374999839,None,,,,,,yupaen,001,2025-02-27_13h56.56.552,MainFlow,2024.1.5,None,2025-02-27 13h57.05.923581 +0700,
2,1,41,word/worden0411.png,0,7,7,7,45.24039362500025,,,,,,,45.24039362500025,45.24039362500025,46.2198062919997,46.2429379590003,46.2429379590003,46.2429379590003,46.2429379590003,53.89009916699979,x,7.639680582999972,None,,,,,,yupaen,001,2025-02-27_13h56.56.552,MainFlow,2024.1.5,None,2025-02-27 13h57.05.923581 +0700,
2,2,52,word/worden0522.png,0,8,8,8,53.89860341700023,,,,,,,53.89860341700023,53.89860341700023,54.882248541999616,54.90923174999989,54.90923174999989,54.90923174999989,54.90923174999989,58.915986791999785,x,4.004089875000318,None,54.90923174999989,54.90923174999989,,,,yupaen,001,2025-02-27_13h56.56.552,MainFlow,2024.1.5,None,2025-02-27 13h57.05.923581 +0700,
2,3,6,word/worden0063.png,0,9,9,9,58.922803000000386,,,,,,,58.922803000000386,58.922803000000386,59.90300537500025,59.92653712500032,59.92653712500032,59.92653712500032,59.92653712500032,68.94951554199997,x,9.0188105419993,None,,,,,,yupaen,001,2025-02-27_13h56.56.552,MainFlow,2024.1.5,None,2025-02-27 13h57.05.923581 +0700,
2,3,46,word/worden0463.png,0,10,10,10,68.95663654199961,,,,,,,68.95663654199961,68.95663654199961,69.93663154200021,69.96058962500047,69.96058962500047,69.96058962500047,69.96058962500047,80.07345445900046,x,10.105034332999821,None,,,,,,yupaen,001,2025-02-27_13h56.56.552,MainFlow,2024.1.5,None,2025-02-27 13h57.05.923581 +0700,
2,2,30,word/worden0302.png,0,11,11,11,80.0818035000002,,,,,,,80.0818035000002,80.0818035000002,81.06550995900034,81.09035175000008,81.09035175000008,81.09035175000008,81.09035175000008,87.6161842090005,x,6.518362292000347,None,81.09035175000008,81.09035175000008,,,,yupaen,001,2025-02-27_13h56.56.552,MainFlow,2024.1.5,None,2025-02-27 13h57.05.923581 +0700,
2,2,46,word/worden0462.png,0,12,12,12,87.6233425420005,,,,,,,87.6233425420005,87.6233425420005,88.60279829200044,88.62639033400046,88.62639033400046,88.62639033400046,88.62639033400046,89.97100187500018,x,1.3432656660006614,None,,,,,,yupaen,001,2025-02-27_13h56.56.552,MainFlow,2024.1.5,None,2025-02-27 13h57.05.923581 +0700,
2,2,70,word/worden0702.png,0,13,13,13,89.9816272500002,,,,,,,89.9816272500002,89.9816272500002,90.96558316699975,90.99037675,90.99037675,90.99037675,90.99037675,105.08974016699995,z,14.092163875000551,None,90.99037675,90.99037675,,,,yupaen,001,2025-02-27_13h56.56.552,MainFlow,2024.1.5,None,2025-02-27 13h57.05.923581 +0700,
2,1,70,word/worden0701.png,0,14,14,14,105.09813949999989,,,,,,,105.09813949999989,105.09813949999989,106.08193766699969,106.1060227500002,106.1060227500002,106.1060227500002,106.1060227500002,119.7159515000003,x,13.59760712499974,None,106.1060227500002,106.1060227500002,,,,yupaen,001,2025-02-27_13h56.56.552,MainFlow,2024.1.5,None,2025-02-27 13h57.05.923581 +0700,
2,1,8,word/worden0081.png,0,15,15,15,119.72038324999994,,,,,,,119.72038324999994,119.72038324999994,120.70322424999995,120.72779487499974,120.72779487499974,120.72779487499974,120.72779487499974,127.74900820899984,z,7.009399208000104,None,120.72779487499974,120.72779487499974,,,,yupaen,001,2025-02-27_13h56.56.552,MainFlow,2024.1.5,None,2025-02-27 13h57.05.923581 +0700,
2,3,61,word/worden0613.png,0,16,16,16,127.75334991700038,,,,,,,127.75334991700038,127.75334991700038,128.73635312500028,128.76026695899964,128.76026695899964,128.76026695899964,128.76026695899964,142.71568579199993,x,13.944323665999946,None,128.76026695899964,128.76026695899964,,,,yupaen,001,2025-02-27_13h56.56.552,MainFlow,2024.1.5,None,2025-02-27 13h57.05.923581 +0700,
2,3,10,word/worden0103.png,0,17,17,17,142.72292679200018,,,,,,,142.72292679200018,142.72292679200018,143.70253970900012,143.72548087500036,143.72548087500036,143.72548087500036,143.72548087500036,149.2035974999999,x,5.474455957999453,None,,,,,,yupaen,001,2025-02-27_13h56.56.552,MainFlow,2024.1.5,None,2025-02-27 13h57.05.923581 +0700,
2,3,75,word/worden0753.png,0,18,18,18,149.2145145000004,,,,,,,149.2145145000004,149.2145145000004,150.19841754200024,150.22217741700024,150.22217741700024,150.22217741700024,150.22217741700024,155.6987965420003,x,5.465986666999925,None,150.22217741700024,150.22217741700024,,,,yupaen,001,2025-02-27_13h56.56.552,MainFlow,2024.1.5,None,2025-02-27 13h57.05.923581 +0700,
2,2,63,word/worden0632.png,0,19,19,19,155.70565683400037,,,,,,,155.70565683400037,155.70565683400037,156.68177337500038,156.705298459,156.705298459,156.705298459,156.705298459,166.731962459,x,10.024201000000176,None,,,,,,yupaen,001,2025-02-27_13h56.56.552,MainFlow,2024.1.5,None,2025-02-27 13h57.05.923581 +0700,
2,3,11,word/worden0113.png,0,20,20,20,166.73885337499996,,,,,,,166.73885337499996,166.73885337499996,167.71494291700037,167.739397542,167.739397542,167.739397542,167.739397542,172.0987622089997,x,4.349622458999875,None,,,,,,yupaen,001,2025-02-27_13h56.56.552,MainFlow,2024.1.5,None,2025-02-27 13h57.05.923581 +0700,
2,2,89,word/worden0892.png,0,21,21,21,172.10597099999995,,,,,,,172.10597099999995,172.10597099999995,173.08572062500025,173.10855829200045,173.10855829200045,173.10855829200045,173.10855829200045,182.56555800000024,x,9.453311041000234,None,,,,,,yupaen,001,2025-02-27_13h56.56.552,MainFlow,2024.1.5,None,2025-02-27 13h57.05.923581 +0700,
2,1,9,word/worden0091.png,0,22,22,22,182.5733250000003,,,,,,,182.5733250000003,182.5733250000003,183.55278358400028,183.5768411250001,183.5768411250001,183.5768411250001,183.5768411250001,187.8534609999997,z,4.27308924999943,None,,,,,,yupaen,001,2025-02-27_13h56.56.552,MainFlow,2024.1.5,None,2025-02-27 13h57.05.923581 +0700,
2,3,28,word/worden0283.png,0,23,23,23,187.86448612500044,,,,,,,187.86448612500044,187.86448612500044,188.8479676249999,188.87160512500031,188.87160512500031,188.87160512500031,188.87160512500031,200.56542762499976,x,11.689458124999874,None,188.87160512500031,188.87160512500031,,,,yupaen,001,2025-02-27_13h56.56.552,MainFlow,2024.1.5,None,2025-02-27 13h57.05.923581 +0700,
2,1,82,word/worden0821.png,0,24,24,24,200.5730096670004,,,,,,,200.5730096670004,200.5730096670004,201.55213395900046,201.5753244590005,201.5753244590005,201.5753244590005,201.5753244590005,214.33201170899974,x,12.745424167000238,None,,,,,,yupaen,001,2025-02-27_13h56.56.552,MainFlow,2024.1.5,None,2025-02-27 13h57.05.923581 +0700,
2,2,28,word/worden0282.png,0,25,25,25,214.33914275000006,,,,,,,214.33914275000006,214.33914275000006,215.31916904199988,215.34315516700008,215.34315516700008,215.34315516700008,215.34315516700008,218.69880645900048,x,3.3441850830004114,None,,,,,,yupaen,001,2025-02-27_13h56.56.552,MainFlow,2024.1.5,None,2025-02-27 13h57.05.923581 +0700,
2,1,23,word/worden0231.png,0,26,26,26,218.70362933399974,,,,,,,218.70362933399974,218.70362933399974,219.68537695899977,219.70833658399988,219.70833658399988,219.70833658399988,219.70833658399988,233.74839383400013,z,14.03708537500006,None,,,,,,yupaen,001,2025-02-27_13h56.56.552,MainFlow,2024.1.5,None,2025-02-27 13h57.05.923581 +0700,
2,2,42,word/worden0422.png,0,27,27,27,233.75538012499965,,,,,,,233.75538012499965,233.75538012499965,234.73526629200023,234.7595571669999,234.7595571669999,234.7595571669999,234.7595571669999,239.16524270900027,x,4.401339958999415,None,,,,,,yupaen,001,2025-02-27_13h56.56.552,MainFlow,2024.1.5,None,2025-02-27 13h57.05.923581 +0700,
2,2,93,word/worden0932.png,0,28,28,28,239.17258083399975,,,,,,,239.17258083399975,239.17258083399975,240.1520669170004,240.1751341250001,240.1751341250001,240.1751341250001,240.1751341250001,243.331880834,x,3.1544919579991983,None,,,,,,yupaen,001,2025-02-27_13h56.56.552,MainFlow,2024.1.5,None,2025-02-27 13h57.05.923581 +0700,
2,1,88,word/worden0881.png,0,29,29,29,243.33882350000022,,,,,,,243.33882350000022,243.33882350000022,244.31899720900037,244.3418880420004,244.3418880420004,244.3418880420004,244.3418880420004,247.96974920899993,x,3.6263099580000926,None,,,,,,yupaen,001,2025-02-27_13h56.56.552,MainFlow,2024.1.5,None,2025-02-27 13h57.05.923581 +0700,
2,3,31,word/worden0313.png,0,30,30,30,247.98063841699968,,,,,,,247.98063841699968,247.98063841699968,248.96443645900035,248.98885187500036,248.98885187500036,248.98885187500036,248.98885187500036,259.58654962499986,x,10.595647500000268,None,248.98885187500036,248.98885187500036,,,,yupaen,001,2025-02-27_13h56.56.552,MainFlow,2024.1.5,None,2025-02-27 13h57.05.923581 +0700,
2,2,75,word/worden0752.png,0,31,31,31,259.5972902499998,,,,,,,259.5972902499998,259.5972902499998,260.58118220899996,260.60577695899974,260.60577695899974,260.60577695899974,260.60577695899974,262.14846175,x,1.5389131669999188,None,260.60577695899974,260.60577695899974,,,,yupaen,001,2025-02-27_13h56.56.552,MainFlow,2024.1.5,None,2025-02-27 13h57.05.923581 +0700,
2,2,48,word/worden0482.png,0,32,32,32,262.1554137920002,,,,,,,262.1554137920002,262.1554137920002,263.13567387500007,263.15965758400034,263.15965758400034,263.15965758400034,263.15965758400034,287.1983628750004,x,24.033076082999287,None,,,,,,yupaen,001,2025-02-27_13h56.56.552,MainFlow,2024.1.5,None,2025-02-27 13h57.05.923581 +0700,
2,1,26,word/worden0261.png,0,33,33,33,287.2056165840004,,,,,,,287.2056165840004,287.2056165840004,288.1848517919998,288.20798212499994,288.20798212499994,288.20798212499994,288.20798212499994,304.5481857499999,z,16.328787999999804,None,,,,,,yupaen,001,2025-02-27_13h56.56.552,MainFlow,2024.1.5,None,2025-02-27 13h57.05.923581 +0700,
2,2,41,word/worden0412.png,0,34,34,34,304.55286912500014,,,,,,,304.55286912500014,304.55286912500014,305.5352947090005,305.5581911250001,305.5581911250001,305.5581911250001,305.5581911250001,307.4146819589996,x,1.850826374999997,None,,,,,,yupaen,001,2025-02-27_13h56.56.552,MainFlow,2024.1.5,None,2025-02-27 13h57.05.923581 +0700,
2,3,66,word/worden0663.png,0,35,35,35,307.42189849999977,,,,,,,307.42189849999977,307.42189849999977,308.4016206670003,308.42475275000015,308.42475275000015,308.42475275000015,308.42475275000015,309.26470750000044,x,0.8316622920001464,None,,,,,,yupaen,001,2025-02-27_13h56.56.552,MainFlow,2024.1.5,None,2025-02-27 13h57.05.923581 +0700,
2,1,6,word/worden0061.png,0,36,36,36,309.27211966699997,,,,,,,309.27211966699997,309.27211966699997,310.25190708399987,310.27568720900035,310.27568720900035,310.27568720900035,310.27568720900035,317.6813740839998,z,7.39696854200065,None,,,,,,yupaen,001,2025-02-27_13h56.56.552,MainFlow,2024.1.5,None,2025-02-27 13h57.05.923581 +0700,
2,1,42,word/worden0421.png,0,37,37,37,317.688288542,,,,,,,317.688288542,317.688288542,318.6680095840002,318.6915591670004,318.6915591670004,318.6915591670004,318.6915591670004,324.1053784169999,x,5.4063587499995265,None,,,,,,yupaen,001,2025-02-27_13h56.56.552,MainFlow,2024.1.5,None,2025-02-27 13h57.05.923581 +0700,
2,3,41,word/worden0413.png,0,38,38,38,324.11354645899974,,,,,,,324.11354645899974,324.11354645899974,325.09742650000044,325.12205570900005,325.12205570900005,325.12205570900005,325.12205570900005,328.9859202919997,x,3.862247624999327,None,325.12205570900005,325.12205570900005,,,,yupaen,001,2025-02-27_13h56.56.552,MainFlow,2024.1.5,None,2025-02-27 13h57.05.923581 +0700,
2,2,23,word/worden0232.png,0,39,39,39,328.99683149999964,,,,,,,328.99683149999964,328.99683149999964,329.9805507500005,330.00334266699974,330.00334266699974,330.00334266699974,330.00334266699974,350.5477000840001,x,20.54192250000051,None,330.00334266699974,330.00334266699974,,,,yupaen,001,2025-02-27_13h56.56.552,MainFlow,2024.1.5,None,2025-02-27 13h57.05.923581 +0700,
2,3,96,word/worden0963.png,0,40,40,40,350.55483358400033,,,,,,,350.55483358400033,350.55483358400033,351.53452145899973,351.55839545900017,351.55839545900017,351.55839545900017,351.55839545900017,366.8356322090003,x,15.274162042000171,None,,,,,,yupaen,001,2025-02-27_13h56.56.552,MainFlow,2024.1.5,None,2025-02-27 13h57.05.923581 +0700,
2,1,61,word/worden0611.png,0,41,41,41,366.84662262500024,,,,,,,366.84662262500024,366.84662262500024,367.83056175,367.85541679200014,367.85541679200014,367.85541679200014,367.85541679200014,402.91439795899987,z,35.04850625000017,None,367.85541679200014,367.85541679200014,,,,yupaen,001,2025-02-27_13h56.56.552,MainFlow,2024.1.5,None,2025-02-27 13h57.05.923581 +0700,
2,3,9,word/worden0093.png,0,42,42,42,402.92171395900004,,,,,,,402.92171395900004,402.92171395900004,403.90100987500045,403.9243442090001,403.9243442090001,403.9243442090001,403.9243442090001,409.19766545899984,x,5.267581959000381,None,,,,,,yupaen,001,2025-02-27_13h56.56.552,MainFlow,2024.1.5,None,2025-02-27 13h57.05.923581 +0700,
2,3,63,word/worden0633.png,0,43,43,43,409.20502937499987,,,,,,,409.20502937499987,409.20502937499987,410.1847835839999,410.21238191700013,410.21238191700013,410.21238191700013,410.21238191700013,440.8973623339998,x,30.675855375000538,None,,,,,,yupaen,001,2025-02-27_13h56.56.552,MainFlow,2024.1.5,None,2025-02-27 13h57.05.923581 +0700,
2,3,50,word/worden0503.png,0,44,44,44,440.904636667,,,,,,,440.904636667,440.904636667,441.88407000000007,441.9079564169997,441.9079564169997,441.9079564169997,441.9079564169997,454.4973399170003,x,12.58025324999926,None,,,,,,yupaen,001,2025-02-27_13h56.56.552,MainFlow,2024.1.5,None,2025-02-27 13h57.05.923581 +0700,
2,2,27,word/worden0272.png,0,45,45,45,454.5046835000003,,,,,,,454.5046835000003,454.5046835000003,455.48380862500017,455.5073652500005,455.5073652500005,455.5073652500005,455.5073652500005,461.30477483400045,x,5.78909508400011,None,,,,,,yupaen,001,2025-02-27_13h56.56.552,MainFlow,2024.1.5,None,2025-02-27 13h57.05.923581 +0700,
2,2,61,word/worden0612.png,0,46,46,46,461.3128821250002,,,,,,,461.3128821250002,461.3128821250002,462.29653045899977,462.31916141700003,462.31916141700003,462.31916141700003,462.31916141700003,473.6636095419999,x,11.336864707999666,None,462.31916141700003,462.31916141700003,,,,yupaen,001,2025-02-27_13h56.56.552,MainFlow,2024.1.5,None,2025-02-27 13h57.05.923581 +0700,
2,3,7,word/worden0073.png,0,47,47,47,473.6705624169999,,,,,,,473.6705624169999,473.6705624169999,474.6507920840004,474.67380541700004,474.67380541700004,474.67380541700004,474.67380541700004,482.2970255,z,7.614310541999657,None,,,,,,yupaen,001,2025-02-27_13h56.56.552,MainFlow,2024.1.5,None,2025-02-27 13h57.05.923581 +0700,
2,3,23,word/worden0233.png,0,48,48,48,482.3045157919996,,,,,,,482.3045157919996,482.3045157919996,483.28422166699966,483.30776849999984,483.30776849999984,483.30776849999984,483.30776849999984,500.34696466700007,x,17.027505750000273,None,,,,,,yupaen,001,2025-02-27_13h56.56.552,MainFlow,2024.1.5,None,2025-02-27 13h57.05.923581 +0700,
2,1,95,word/worden0951.png,0,49,49,49,500.3515084589999,,,,,,,500.3515084589999,500.3515084589999,501.3341432500001,501.35795908399996,501.35795908399996,501.35795908399996,501.35795908399996,502.99681333399985,x,1.6267442919997848,None,,,,,,yupaen,001,2025-02-27_13h56.56.552,MainFlow,2024.1.5,None,2025-02-27 13h57.05.923581 +0700,
2,3,42,word/worden0423.png,0,50,50,50,503.0011113749997,,,,,,,503.0011113749997,503.0011113749997,503.98374020899973,504.0064771670004,504.0064771670004,504.0064771670004,504.0064771670004,516.6713508339999,x,12.657729208999626,None,,,,,,yupaen,001,2025-02-27_13h56.56.552,MainFlow,2024.1.5,None,2025-02-27 13h57.05.923581 +0700,
2,1,30,word/worden0301.png,0,51,51,51,516.6784230419998,,,,,,,516.6784230419998,516.6784230419998,517.6629973340005,517.6866373339999,517.6866373339999,517.6866373339999,517.6866373339999,534.2514972500003,z,16.56179437499941,None,517.6866373339999,517.6866373339999,,,,yupaen,001,2025-02-27_13h56.56.552,MainFlow,2024.1.5,None,2025-02-27 13h57.05.923581 +0700,
2,3,87,word/worden0873.png,0,52,52,52,534.2623826669997,,,,,,,534.2623826669997,534.2623826669997,535.246214709,535.2696149169997,535.2696149169997,535.2696149169997,535.2696149169997,550.4633868749997,x,15.186102249999749,None,535.2696149169997,535.2696149169997,,,,yupaen,001,2025-02-27_13h56.56.552,MainFlow,2024.1.5,None,2025-02-27 13h57.05.923581 +0700,
2,2,6,word/worden0062.png,0,53,53,53,550.4708073749998,,,,,,,550.4708073749998,550.4708073749998,551.4505848750005,551.4741241250003,551.4741241250003,551.4741241250003,551.4741241250003,552.9042257090005,x,1.4220407080001678,None,,,,,,yupaen,001,2025-02-27_13h56.56.552,MainFlow,2024.1.5,None,2025-02-27 13h57.05.923581 +0700,
2,2,68,word/worden0682.png,0,54,54,54,552.912286709,,,,,,,552.912286709,552.912286709,553.8960056670003,553.9194522500002,553.9194522500002,553.9194522500002,553.9194522500002,556.8708065419996,x,2.9440956660000666,None,553.9194522500002,553.9194522500002,,,,yupaen,001,2025-02-27_13h56.56.552,MainFlow,2024.1.5,None,2025-02-27 13h57.05.923581 +0700,
2,3,1,word/worden0013.png,0,55,55,55,556.8788414170003,,,,,,,556.8788414170003,556.8788414170003,557.8627206250003,557.8856156669999,557.8856156669999,557.8856156669999,557.8856156669999,569.663339709,x,11.770233459000337,None,557.8856156669999,557.8856156669999,,,,yupaen,001,2025-02-27_13h56.56.552,MainFlow,2024.1.5,None,2025-02-27 13h57.05.923581 +0700,
2,2,94,word/worden0942.png,0,56,56,56,569.6708763750003,,,,,,,569.6708763750003,569.6708763750003,570.6500885840005,570.6741067920002,570.6741067920002,570.6741067920002,570.6741067920002,608.9131442919997,x,38.229685792000055,None,,,,,,yupaen,001,2025-02-27_13h56.56.552,MainFlow,2024.1.5,None,2025-02-27 13h57.05.923581 +0700,
2,3,82,word/worden0823.png,0,57,57,57,608.9202901250001,,,,,,,608.9202901250001,608.9202901250001,609.8997302919997,609.9229230419996,609.9229230419996,609.9229230419996,609.9229230419996,629.8510441670005,x,19.924376041999494,None,,,,,,yupaen,001,2025-02-27_13h56.56.552,MainFlow,2024.1.5,None,2025-02-27 13h57.05.923581 +0700,
2,1,89,word/worden0891.png,0,58,58,58,629.8618798340003,,,,,,,629.8618798340003,629.8618798340003,630.8455984170005,630.8693716670005,630.8693716670005,630.8693716670005,630.8693716670005,650.8126241669997,z,19.938170583999636,None,630.8693716670005,630.8693716670005,,,,yupaen,001,2025-02-27_13h56.56.552,MainFlow,2024.1.5,None,2025-02-27 13h57.05.923581 +0700,
2,1,31,word/worden0311.png,0,59,59,59,650.818547459,,,,,,,650.818547459,650.818547459,651.7996509590002,651.8229141250004,651.8229141250004,651.8229141250004,651.8229141250004,665.1630014170005,z,13.338249374999577,None,,,,,,yupaen,001,2025-02-27_13h56.56.552,MainFlow,2024.1.5,None,2025-02-27 13h57.05.923581 +0700,
2,2,51,word/worden0512.png,0,60,60,60,665.170455167,,,,,,,665.170455167,665.170455167,666.1495050000003,666.1720992090004,666.1720992090004,666.1720992090004,666.1720992090004,672.5024375840003,x,6.324324332999822,None,,,,,,yupaen,001,2025-02-27_13h56.56.552,MainFlow,2024.1.5,None,2025-02-27 13h57.05.923581 +0700,
2,3,44,word/worden0443.png,0,61,61,61,672.5116148750003,,,,,,,672.5116148750003,672.5116148750003,673.4954356670005,673.5200798340002,673.5200798340002,673.5200798340002,673.5200798340002,694.2124066249999,x,20.680238250000002,None,673.5200798340002,673.5200798340002,,,,yupaen,001,2025-02-27_13h56.56.552,MainFlow,2024.1.5,None,2025-02-27 13h57.05.923581 +0700,
2,1,1,word/worden0011.png,0,62,62,62,694.2167219169996,,,,,,,694.2167219169996,694.2167219169996,695.1992442500004,695.2221589999999,695.2221589999999,695.2221589999999,695.2221589999999,698.4626372089997,z,3.2328040419997706,None,,,,,,yupaen,001,2025-02-27_13h56.56.552,MainFlow,2024.1.5,None,2025-02-27 13h57.05.923581 +0700,
2,1,96,word/worden0961.png,0,63,63,63,698.4702032920004,,,,,,,698.4702032920004,698.4702032920004,699.4498078340002,699.4740069170002,699.4740069170002,699.4740069170002,699.4740069170002,711.466896125,x,11.989981583999906,None,,,,,,yupaen,001,2025-02-27_13h56.56.552,MainFlow,2024.1.5,None,2025-02-27 13h57.05.923581 +0700,
2,1,11,word/worden0111.png,0,64,64,64,711.4782161250005,,,,,,,711.4782161250005,711.4782161250005,712.4618807090001,712.4869626250002,712.4869626250002,712.4869626250002,712.4869626250002,717.3458330419999,z,4.848335792000398,None,712.4869626250002,712.4869626250002,,,,yupaen,001,2025-02-27_13h56.56.552,MainFlow,2024.1.5,None,2025-02-27 13h57.05.923581 +0700,
2,3,70,word/worden0703.png,0,65,65,65,717.3529815419997,,,,,,,717.3529815419997,717.3529815419997,718.3324706250005,718.356932875,718.356932875,718.356932875,718.356932875,749.8789987090004,x,31.51525083300021,None,,,,,,yupaen,001,2025-02-27_13h56.56.552,MainFlow,2024.1.5,None,2025-02-27 13h57.05.923581 +0700,
2,3,71,word/worden0713.png,0,66,66,66,749.8861316250004,,,,,,,749.8861316250004,749.8861316250004,750.8663765419997,750.8904054169998,750.8904054169998,750.8904054169998,750.8904054169998,753.9201286670004,x,3.0211410000001706,None,,,,,,yupaen,001,2025-02-27_13h56.56.552,MainFlow,2024.1.5,None,2025-02-27 13h57.05.923581 +0700,
2,1,68,word/worden0681.png,0,67,67,67,753.9277887500002,,,,,,,753.9277887500002,753.9277887500002,754.9117223339999,754.9349588340001,754.9349588340001,754.9349588340001,754.9349588340001,781.5030789170005,z,26.560512167000525,None,754.9349588340001,754.9349588340001,,,,yupaen,001,2025-02-27_13h56.56.552,MainFlow,2024.1.5,None,2025-02-27 13h57.05.923581 +0700,
2,2,88,word/worden0882.png,0,68,68,68,781.510791875,,,,,,,781.510791875,781.510791875,782.4948568749996,782.5214736670005,782.5214736670005,782.5214736670005,782.5214736670005,784.5951821669996,x,2.0626713339997877,None,782.5214736670005,782.5214736670005,,,,yupaen,001,2025-02-27_13h56.56.552,MainFlow,2024.1.5,None,2025-02-27 13h57.05.923581 +0700,
2,2,50,word/worden0502.png,0,69,69,69,784.6020000420003,,,,,,,784.6020000420003,784.6020000420003,785.5826778749997,785.6068015419996,785.6068015419996,785.6068015419996,785.6068015419996,786.5951796250001,x,0.9857646660002501,None,,,,,,yupaen,001,2025-02-27_13h56.56.552,MainFlow,2024.1.5,None,2025-02-27 13h57.05.923581 +0700,
2,3,93,word/worden0933.png,0,70,70,70,786.6022835419999,,,,,,,786.6022835419999,786.6022835419999,787.5826728339998,787.6064390000001,787.6064390000001,787.6064390000001,787.6064390000001,832.4666362090002,z,44.85772858400014,None,,,,,,yupaen,001,2025-02-27_13h56.56.552,MainFlow,2024.1.5,None,2025-02-27 13h57.05.923581 +0700,
2,1,63,word/worden0631.png,0,71,71,71,832.4774104999997,,,,,,,832.4774104999997,832.4774104999997,833.4611266669999,833.4850939589996,833.4850939589996,833.4850939589996,833.4850939589996,858.7521894170004,z,25.259952415999578,None,833.4850939589996,833.4850939589996,,,,yupaen,001,2025-02-27_13h56.56.552,MainFlow,2024.1.5,None,2025-02-27 13h57.05.923581 +0700,
2,2,7,word/worden0072.png,0,72,72,72,858.7605404590004,,,,,,,858.7605404590004,858.7605404590004,859.7442707090004,859.7684313749996,859.7684313749996,859.7684313749996,859.7684313749996,867.3781264170002,x,7.607434749999811,None,859.7684313749996,859.7684313749996,,,,yupaen,001,2025-02-27_13h56.56.552,MainFlow,2024.1.5,None,2025-02-27 13h57.05.923581 +0700,
2,2,64,word/worden0642.png,0,73,73,73,867.3849360419999,,,,,,,867.3849360419999,867.3849360419999,868.3652804169997,868.3884177090004,868.3884177090004,868.3884177090004,868.3884177090004,877.0828974590004,x,8.691372042000694,None,,,,,,yupaen,001,2025-02-27_13h56.56.552,MainFlow,2024.1.5,None,2025-02-27 13h57.05.923581 +0700,
2,1,24,word/worden0241.png,0,74,74,74,877.0937201249999,,,,,,,877.0937201249999,877.0937201249999,878.0774906249999,878.1018963340002,878.1018963340002,878.1018963340002,878.1018963340002,891.8779912090004,z,13.769708249999894,None,878.1018963340002,878.1018963340002,,,,yupaen,001,2025-02-27_13h56.56.552,MainFlow,2024.1.5,None,2025-02-27 13h57.05.923581 +0700,
2,2,1,word/worden0012.png,0,75,75,75,891.8851678749998,,,,,,,891.8851678749998,891.8851678749998,892.8648533750002,892.8882501670005,892.8882501670005,892.8882501670005,892.8882501670005,903.2446442500004,x,10.351966416000323,None,,,,,,yupaen,001,2025-02-27_13h56.56.552,MainFlow,2024.1.5,None,2025-02-27 13h57.05.923581 +0700,
2,1,46,word/worden0461.png,0,76,76,76,903.2517319170001,,,,,,,903.2517319170001,903.2517319170001,904.2320964170003,904.255003792,904.255003792,904.255003792,904.255003792,914.4495525840002,x,10.192712791000304,None,,,,,,yupaen,001,2025-02-27_13h56.56.552,MainFlow,2024.1.5,None,2025-02-27 13h57.05.923581 +0700,
2,3,52,word/worden0523.png,0,77,77,77,914.4600981250005,,,,,,,914.4600981250005,914.4600981250005,915.4439432919999,915.4673807919999,915.4673807919999,915.4673807919999,915.4673807919999,926.2657857499998,x,10.795281124999747,None,915.4673807919999,915.4673807919999,,,,yupaen,001,2025-02-27_13h56.56.552,MainFlow,2024.1.5,None,2025-02-27 13h57.05.923581 +0700,
2,2,31,word/worden0312.png,0,78,78,78,926.2766792499997,,,,,,,926.2766792499997,926.2766792499997,927.2606796669997,927.2843969169999,927.2843969169999,927.2843969169999,927.2843969169999,931.7778314590005,x,4.482493041999987,None,927.2843969169999,927.2843969169999,,,,yupaen,001,2025-02-27_13h56.56.552,MainFlow,2024.1.5,None,2025-02-27 13h57.05.923581 +0700,
2,2,95,word/worden0952.png,0,79,79,79,931.7847489590004,,,,,,,931.7847489590004,931.7847489590004,932.7650467089998,932.7889029589996,932.7889029589996,932.7889029589996,932.7889029589996,958.3519003749998,x,25.555005124999298,None,,,,,,yupaen,001,2025-02-27_13h56.56.552,MainFlow,2024.1.5,None,2025-02-27 13h57.05.923581 +0700,
2,1,93,word/worden0931.png,0,80,80,80,958.3600213749996,,,,,,,958.3600213749996,958.3600213749996,959.3437458750004,959.3667647499997,959.3667647499997,959.3667647499997,959.3667647499997,971.5941885840002,z,12.22496958300053,None,959.3667647499997,959.3667647499997,,,,yupaen,001,2025-02-27_13h56.56.552,MainFlow,2024.1.5,None,2025-02-27 13h57.05.923581 +0700,
2,1,71,word/worden0711.png,0,81,81,81,971.6013131669997,,,,,,,971.6013131669997,971.6013131669997,972.5814387500004,972.6052738750004,972.6052738750004,972.6052738750004,972.6052738750004,977.9774578750003,z,5.362261041999773,None,,,,,,yupaen,001,2025-02-27_13h56.56.552,MainFlow,2024.1.5,None,2025-02-27 13h57.05.923581 +0700,
2,1,48,word/worden0481.png,0,82,82,82,977.9846387919997,,,,,,,977.9846387919997,977.9846387919997,978.9647666250003,978.9884148339997,978.9884148339997,978.9884148339997,978.9884148339997,984.4441657500001,z,5.4508748329999435,None,,,,,,yupaen,001,2025-02-27_13h56.56.552,MainFlow,2024.1.5,None,2025-02-27 13h57.05.923581 +0700,
2,1,94,word/worden0941.png,0,83,83,83,984.4516215419999,,,,,,,984.4516215419999,984.4516215419999,985.4308648340002,985.4535136249997,985.4535136249997,985.4535136249997,985.4535136249997,992.8487237090003,z,7.393711541999437,None,,,,,,yupaen,001,2025-02-27_13h56.56.552,MainFlow,2024.1.5,None,2025-02-27 13h57.05.923581 +0700,
2,3,68,word/worden0683.png,0,84,84,84,992.8596584590005,,,,,,,992.8596584590005,992.8596584590005,993.8435882089998,993.8675307089998,993.8675307089998,993.8675307089998,993.8675307089998,1011.810510542,x,17.932006416999684,None,993.8675307089998,993.8675307089998,,,,yupaen,001,2025-02-27_13h56.56.552,MainFlow,2024.1.5,None,2025-02-27 13h57.05.923581 +0700,
2,2,66,word/worden0662.png,0,85,85,85,1011.814911292,,,,,,,1011.814911292,1011.814911292,1012.7934876250001,1012.8181784589997,1012.8181784589997,1012.8181784589997,1012.8181784589997,1030.0109301250004,x,17.18905316600012,None,,,,,,yupaen,001,2025-02-27_13h56.56.552,MainFlow,2024.1.5,None,2025-02-27 13h57.05.923581 +0700,
2,3,95,word/worden0953.png,0,86,86,86,1030.0184526250005,,,,,,,1030.0184526250005,1030.0184526250005,1030.9972752089998,1031.020593667,1031.020593667,1031.020593667,1031.020593667,1052.810563125,x,21.778280624999752,None,,,,,,yupaen,001,2025-02-27_13h56.56.552,MainFlow,2024.1.5,None,2025-02-27 13h57.05.923581 +0700,
2,3,30,word/worden0303.png,0,87,87,87,1052.8149171249997,,,,,,,1052.8149171249997,1052.8149171249997,1053.7979274170002,1053.8219126249996,1053.8219126249996,1053.8219126249996,1053.8219126249996,1077.7601892089997,x,23.9279075000004,None,1053.8219126249996,1053.8219126249996,,,,yupaen,001,2025-02-27_13h56.56.552,MainFlow,2024.1.5,None,2025-02-27 13h57.05.923581 +0700,
2,3,22,word/worden0223.png,0,88,88,88,1077.767084084,,,,,,,1077.767084084,1077.767084084,1078.747428959,1078.770377709,1078.770377709,1078.770377709,1078.770377709,1087.0934807089998,x,8.316750167000464,None,,,,,,yupaen,001,2025-02-27_13h56.56.552,MainFlow,2024.1.5,None,2025-02-27 13h57.05.923581 +0700,
2,1,75,word/worden0751.png,0,89,89,89,1087.1007280840004,,,,,,,1087.1007280840004,1087.1007280840004,1088.0807186250004,1088.1049846249998,1088.1049846249998,1088.1049846249998,1088.1049846249998,1122.576838334,x,34.46173454199925,None,,,,,,yupaen,001,2025-02-27_13h56.56.552,MainFlow,2024.1.5,None,2025-02-27 13h57.05.923581 +0700,
2,1,64,word/worden0641.png,0,90,90,90,1122.5843343340002,,,,,,,1122.5843343340002,1122.5843343340002,1123.5638823340005,1123.5885777089998,1123.5885777089998,1123.5885777089998,1123.5885777089998,1152.2431921670004,z,28.651238583000122,None,,,,,,yupaen,001,2025-02-27_13h56.56.552,MainFlow,2024.1.5,None,2025-02-27 13h57.05.923581 +0700,
2,1,27,word/worden0271.png,0,91,91,91,1152.2505587920004,,,,,,,1152.2505587920004,1152.2505587920004,1153.2305202919997,1153.2539018750003,1153.2539018750003,1153.2539018750003,1153.2539018750003,1165.543054625,z,12.281259790999684,None,,,,,,yupaen,001,2025-02-27_13h56.56.552,MainFlow,2024.1.5,None,2025-02-27 13h57.05.923581 +0700,
2,2,24,word/worden0242.png,0,92,92,92,1165.5502636250003,,,,,,,1165.5502636250003,1165.5502636250003,1166.53017525,1166.5535446249996,1166.5535446249996,1166.5535446249996,1166.5535446249996,1190.783581709,x,24.222897499999817,None,,,,,,yupaen,001,2025-02-27_13h56.56.552,MainFlow,2024.1.5,None,2025-02-27 13h57.05.923581 +0700,
2,1,87,word/worden0871.png,0,93,93,93,1190.7920522499999,,,,,,,1190.7920522499999,1190.7920522499999,1191.7757328750004,1191.7995208749999,1191.7995208749999,1191.7995208749999,1191.7995208749999,1207.8929761669997,z,16.08692670900018,None,1191.7995208749999,1191.7995208749999,,,,yupaen,001,2025-02-27_13h56.56.552,MainFlow,2024.1.5,None,2025-02-27 13h57.05.923581 +0700,
2,1,7,word/worden0071.png,0,94,94,94,1207.9003914169998,,,,,,,1207.9003914169998,1207.9003914169998,1208.8800863340002,1208.9037554590004,1208.9037554590004,1208.9037554590004,1208.9037554590004,1212.442905209,z,3.53561183399961,None,,,,,,yupaen,001,2025-02-27_13h56.56.552,MainFlow,2024.1.5,None,2025-02-27 13h57.05.923581 +0700,
2,2,9,word/worden0092.png,0,95,95,95,1212.4499942920002,,,,,,,1212.4499942920002,1212.4499942920002,1213.430368292,1213.45387425,1213.45387425,1213.45387425,1213.45387425,1223.8261150839999,x,10.36875508400044,None,,,,,,yupaen,001,2025-02-27_13h56.56.552,MainFlow,2024.1.5,None,2025-02-27 13h57.05.923581 +0700,
2,1,44,word/worden0441.png,0,96,96,96,1223.8331368340005,,,,,,,1223.8331368340005,1223.8331368340005,1224.813370375,1224.8371755420003,1224.8371755420003,1224.8371755420003,1224.8371755420003,1229.842523417,z,5.002606292000564,None,,,,,,yupaen,001,2025-02-27_13h56.56.552,MainFlow,2024.1.5,None,2025-02-27 13h57.05.923581 +0700,
2,2,10,word/worden0102.png,0,97,97,97,1229.8493014590003,,,,,,,1229.8493014590003,1229.8493014590003,1230.8254672089997,1230.850335,1230.850335,1230.850335,1230.850335,1236.993059042,x,6.132402417000776,None,,,,,,yupaen,001,2025-02-27_13h56.56.552,MainFlow,2024.1.5,None,2025-02-27 13h57.05.923581 +0700,
2,2,82,word/worden0822.png,0,98,98,98,1237.000435375,,,,,,,1237.000435375,1237.000435375,1237.9794376250002,1238.0028376250002,1238.0028376250002,1238.0028376250002,1238.0028376250002,1264.4091716250005,x,26.40507075000005,None,,,,,,yupaen,001,2025-02-27_13h56.56.552,MainFlow,2024.1.5,None,2025-02-27 13h57.05.923581 +0700,
2,3,89,word/worden0893.png,0,99,99,99,1264.416132167,,,,,,,1264.416132167,1264.416132167,1265.3965018750005,1265.4200917919998,1265.4200917919998,1265.4200917919998,1265.4200917919998,1287.6092721249997,x,22.187317709000126,None,,,,,,yupaen,001,2025-02-27_13h56.56.552,MainFlow,2024.1.5,None,2025-02-27 13h57.05.923581 +0700,
2,2,44,word/worden0442.png,0,100,100,100,1287.616534584,,,,,,,1287.616534584,1287.616534584,1288.596004209,1288.6191202500004,1288.6191202500004,1288.6191202500004,1288.6191202500004,1293.6423569170001,x,5.019464624999273,None,,,,,,yupaen,001,2025-02-27_13h56.56.552,MainFlow,2024.1.5,None,2025-02-27 13h57.05.923581 +0700,
2,1,52,word/worden0521.png,0,101,101,101,1293.6500029170002,,,,,,,1293.6500029170002,1293.6500029170002,1294.6296838340004,1294.6533875000005,1294.6533875000005,1294.6533875000005,1294.6533875000005,1310.2587549999998,z,15.593448042000091,None,,,,,,yupaen,001,2025-02-27_13h56.56.552,MainFlow,2024.1.5,None,2025-02-27 13h57.05.923581 +0700,
2,1,51,word/worden0511.png,0,102,102,102,1310.2630886670004,,,,,,,1310.2630886670004,1310.2630886670004,1311.2416691670005,1311.2648412500002,1311.2648412500002,1311.2648412500002,1311.2648412500002,1337.625400625,x,26.357911916000376,None,,,,,,yupaen,001,2025-02-27_13h56.56.552,MainFlow,2024.1.5,None,2025-02-27 13h57.05.923581 +0700,
2,3,51,word/worden0513.png,0,103,103,103,1337.6328673340004,,,,,,,1337.6328673340004,1337.6328673340004,1338.6127502500003,1338.6352717500004,1338.6352717500004,1338.6352717500004,1338.6352717500004,1359.175444167,x,20.53131495800062,None,,,,,,yupaen,001,2025-02-27_13h56.56.552,MainFlow,2024.1.5,None,2025-02-27 13h57.05.923581 +0700,
2,2,8,word/worden0082.png,0,104,104,104,1359.1825275,,,,,,,1359.1825275,1359.1825275,1360.1619812500003,1360.1851151250003,1360.1851151250003,1360.1851151250003,1360.1851151250003,1368.2962566249998,x,8.109678458000417,None,,,,,,yupaen,001,2025-02-27_13h56.56.552,MainFlow,2024.1.5,None,2025-02-27 13h57.05.923581 +0700,
2,2,3,word/worden0032.png,0,105,105,105,1368.307591584,,,,,,,1368.307591584,1368.307591584,1369.2914225840004,1369.31557875,1369.31557875,1369.31557875,1369.31557875,1383.2085631669997,x,13.883200958999623,None,1369.31557875,1369.31557875,,,,yupaen,001,2025-02-27_13h56.56.552,MainFlow,2024.1.5,None,2025-02-27 13h57.05.923581 +0700,
2,3,3,word/worden0033.png,0,106,106,106,1383.2155709589997,,,,,,,1383.2155709589997,1383.2155709589997,1384.1957807919998,1384.2191390420003,1384.2191390420003,1384.2191390420003,1384.2191390420003,1390.3661923749996,x,6.138622000000396,None,,,,,,yupaen,001,2025-02-27_13h56.56.552,MainFlow,2024.1.5,None,2025-02-27 13h57.05.923581 +0700,
2,3,64,word/worden0643.png,0,107,107,107,1390.3739624589998,,,,,,,1390.3739624589998,1390.3739624589998,1391.358001167,1391.3816235840004,1391.3816235840004,1391.3816235840004,1391.3816235840004,1414.8744084999998,x,23.480819207999957,None,1391.3816235840004,1391.3816235840004,,,,yupaen,001,2025-02-27_13h56.56.552,MainFlow,2024.1.5,None,2025-02-27 13h57.05.923581 +0700,
2,3,26,word/worden0263.png,0,108,108,108,1414.8788763339999,,,,,,,1414.8788763339999,1414.8788763339999,1415.8575869590004,1415.8798537920002,1415.8798537920002,1415.8798537920002,1415.8798537920002,1422.3654594589998,x,6.479159624999738,None,,,,,,yupaen,001,2025-02-27_13h56.56.552,MainFlow,2024.1.5,None,2025-02-27 13h57.05.923581 +0700,
2,2,96,word/worden0962.png,0,109,109,109,1422.3738779590003,,,,,,,1422.3738779590003,1422.3738779590003,1423.3577312919997,1423.380914667,1423.380914667,1423.380914667,1423.380914667,1458.9458001250005,x,35.56148504200064,None,1423.380914667,1423.380914667,,,,yupaen,001,2025-02-27_13h56.56.552,MainFlow,2024.1.5,None,2025-02-27 13h57.05.923581 +0700,
2,1,22,word/worden0221.png,0,110,110,110,1458.9571095000001,,,,,,,1458.9571095000001,1458.9571095000001,1459.9408458750004,1459.9645580839997,1459.9645580839997,1459.9645580839997,1459.9645580839997,1463.1914215420002,z,3.2179669580000336,None,1459.9645580839997,1459.9645580839997,,,,yupaen,001,2025-02-27_13h56.56.552,MainFlow,2024.1.5,None,2025-02-27 13h57.05.923581 +0700,
2,2,22,word/worden0222.png,0,111,111,111,1463.198396709,,,,,,,1463.198396709,1463.198396709,1464.178532375,1464.2017051250004,1464.2017051250004,1464.2017051250004,1464.2017051250004,1475.2413914589997,x,11.037133124999855,None,,,,,,yupaen,001,2025-02-27_13h56.56.552,MainFlow,2024.1.5,None,2025-02-27 13h57.05.923581 +0700,
2,2,26,word/worden0262.png,0,112,112,112,1475.248581375,,,,,,,1475.248581375,1475.248581375,1476.2280305000004,1476.2516313340002,1476.2516313340002,1476.2516313340002,1476.2516313340002,1482.9080871249998,x,6.6506079590008085,None,,,,,,yupaen,001,2025-02-27_13h56.56.552,MainFlow,2024.1.5,None,2025-02-27 13h57.05.923581 +0700,
2,3,48,word/worden0483.png,0,113,113,113,1482.9154839169996,,,,,,,1482.9154839169996,1482.9154839169996,1483.8951207090004,1483.9182853749999,1483.9182853749999,1483.9182853749999,1483.9182853749999,1511.6910146669998,x,27.76791449999928,None,,,,,,yupaen,001,2025-02-27_13h56.56.552,MainFlow,2024.1.5,None,2025-02-27 13h57.05.923581 +0700,
2,2,87,word/worden0872.png,0,114,114,114,1511.6979903749998,,,,,,,1511.6979903749998,1511.6979903749998,1512.6785521250004,1512.702727584,1512.702727584,1512.702727584,1512.702727584,1527.6156333750005,x,14.904249000000164,None,,,,,,yupaen,001,2025-02-27_13h56.56.552,MainFlow,2024.1.5,None,2025-02-27 13h57.05.923581 +0700,
2,1,10,word/worden0101.png,0,115,115,115,1527.6233060000004,,,,,,,1527.6233060000004,1527.6233060000004,1528.6072680420002,1528.6315990840003,1528.6315990840003,1528.6315990840003,1528.6315990840003,1533.224530167,z,4.58255383300002,None,1528.6315990840003,1528.6315990840003,,,,yupaen,001,2025-02-27_13h56.56.552,MainFlow,2024.1.5,None,2025-02-27 13h57.05.923581 +0700,
2,3,8,word/worden0083.png,0,116,116,116,1533.231791792,,,,,,,1533.231791792,1533.231791792,1534.211587709,1534.234447334,1534.234447334,1534.234447334,1534.234447334,1544.3242583749998,x,10.083733792000203,None,,,,,,yupaen,001,2025-02-27_13h56.56.552,MainFlow,2024.1.5,None,2025-02-27 13h57.05.923581 +0700,
2,3,94,word/worden0943.png,0,117,117,117,1544.3313133339998,,,,,,,1544.3313133339998,1544.3313133339998,1545.3110480840005,1545.3341007919998,1545.3341007919998,1545.3341007919998,1545.3341007919998,1571.1123619170003,x,25.776865083999837,None,,,,,,yupaen,001,2025-02-27_13h56.56.552,MainFlow,2024.1.5,None,2025-02-27 13h57.05.923581 +0700,
2,2,11,word/worden0112.png,0,118,118,118,1571.1232103749999,,,,,,,1571.1232103749999,1571.1232103749999,1572.1068974999998,1572.1318268750001,1572.1318268750001,1572.1318268750001,1572.1318268750001,1580.745434042,x,8.610545583999738,None,1572.1318268750001,1572.1318268750001,,,,yupaen,001,2025-02-27_13h56.56.552,MainFlow,2024.1.5,None,2025-02-27 13h57.05.923581 +0700,
2,3,24,word/worden0243.png,0,119,119,119,1580.756252917,,,,,,,1580.756252917,1580.756252917,1581.7401957089996,1581.7639655840003,1581.7639655840003,1581.7639655840003,1581.7639655840003,1596.657198209,x,14.881616874999963,None,1581.7639655840003,1581.7639655840003,,,,yupaen,001,2025-02-27_13h56.56.552,MainFlow,2024.1.5,None,2025-02-27 13h57.05.923581 +0700,
,,,,,,,,,,,,,,,,,,,,,,,,,,,,1596.6574735000004,1596.6611857090002,1596.6611857090002,,,,,,,,
