lang,stimuli,imageid,word_length,worddir,trials.thisRepN,trials.thisTrialN,trials.thisN,trials.thisIndex,thisRow.t,notes,tutorial.started,tutorial.stopped,key_instruct.keys,key_instruct.rt,key_instruct.duration,instructblank.started,cross1.started,letterselect.started,imageword.started,text_2.started,cross2.started,key_resp.started,letterselect.stopped,key_resp.keys,key_resp.rt,key_resp.duration,instructblank.stopped,cross1.stopped,ending.started,text_3.started,ending_key.started,ending.stopped,ending_key.keys,ending_key.rt,ending_key.duration,participant,session,date,expName,psychopyVersion,frameRate,expStart,
,,,,,,,,,,,0.006888875039294362,20.065205709077418,space,20.006526707904413,None,,,,,,,,,,,,,,,,,,,,,YP,001,2025-04-03_13h21.54.152,MainFlow,2023.2.3,None,2025-04-03 13h22.04.304673 +0700,
1,2,3,3,word/wordth0032.png,0,0,0,0,20.13337766705081,,,,,,,20.13337766705081,20.13337766705081,21.05210579209961,21.09470070898533,21.09470070898533,21.09470070898533,21.09470070898533,26.41864166711457,x,5.320154916960746,None,,,,,,,,,,YP,001,2025-04-03_13h21.54.152,MainFlow,2023.2.3,None,2025-04-03 13h22.04.304673 +0700,
1,3,52,5,word/wordth0523.png,0,1,1,1,26.429543334059417,,,,,,,26.429543334059417,26.429543334059417,27.413946584099904,27.43837675009854,27.43837675009854,27.43837675009854,27.43837675009854,28.213966791983694,x,0.7660643749404699,None,27.43837675009854,27.43837675009854,,,,,,,,YP,001,2025-04-03_13h21.54.152,MainFlow,2023.2.3,None,2025-04-03 13h22.04.304673 +0700,
1,3,44,5,word/wordth0443.png,0,2,2,2,28.23280862509273,,,,,,,28.23280862509273,28.23280862509273,29.20171537506394,29.225241666892543,29.225241666892543,29.225241666892543,29.225241666892543,34.58059108396992,z,5.3466264579910785,None,,,,,,,,,,YP,001,2025-04-03_13h21.54.152,MainFlow,2023.2.3,None,2025-04-03 13h22.04.304673 +0700,
1,3,c2,3,word/wordthc203.png,0,3,3,3,34.58812979189679,,,,,,,34.58812979189679,34.58812979189679,35.563808042090386,35.58603712497279,35.58603712497279,35.58603712497279,35.58603712497279,36.402252374915406,x,0.8120059999637306,None,,,,,,,,,,YP,001,2025-04-03_13h21.54.152,MainFlow,2023.2.3,None,2025-04-03 13h22.04.304673 +0700,
1,1,71a,6,word/wordth71a1.png,0,4,4,4,36.413218416972086,,,,,,,36.413218416972086,36.413218416972086,37.38565716706216,37.40921250008978,37.40921250008978,37.40921250008978,37.40921250008978,38.70256958389655,z,1.2906369999982417,None,,,,,,,,,,YP,001,2025-04-03_13h21.54.152,MainFlow,2023.2.3,None,2025-04-03 13h22.04.304673 +0700,
1,2,26,5,word/wordth0262.png,0,5,5,5,38.713225584011525,,,,,,,38.713225584011525,38.713225584011525,39.6967626248952,39.71928729210049,39.71928729210049,39.71928729210049,39.71928729210049,40.40521233389154,x,0.6782674579881132,None,39.71928729210049,39.71928729210049,,,,,,,,YP,001,2025-04-03_13h21.54.152,MainFlow,2023.2.3,None,2025-04-03 13h22.04.304673 +0700,
1,1,75a,4,word/wordth75a1.png,0,6,6,6,40.41289829206653,,,,,,,40.41289829206653,40.41289829206653,41.397286667022854,41.42064912500791,41.42064912500791,41.42064912500791,41.42064912500791,42.99755125003867,z,1.5678297919221222,None,41.42064912500791,41.42064912500791,,,,,,,,YP,001,2025-04-03_13h21.54.152,MainFlow,2023.2.3,None,2025-04-03 13h22.04.304673 +0700,
1,3,10,7,word/wordth0103.png,0,7,7,7,43.005349166924134,,,,,,,43.005349166924134,43.005349166924134,43.98503412492573,44.00757016707212,44.00757016707212,44.00757016707212,44.00757016707212,44.66917712497525,x,0.6605410000775009,None,,,,,,,,,,YP,001,2025-04-03_13h21.54.152,MainFlow,2023.2.3,None,2025-04-03 13h22.04.304673 +0700,
1,2,11,6,word/wordth0112.png,0,8,8,8,44.67975362506695,,,,,,,44.67975362506695,44.67975362506695,45.66402729204856,45.68880829191767,45.68880829191767,45.68880829191767,45.68880829191767,46.464041583938524,x,0.7729240420740098,None,45.68880829191767,45.68880829191767,,,,,,,,YP,001,2025-04-03_13h21.54.152,MainFlow,2023.2.3,None,2025-04-03 13h22.04.304673 +0700,
1,3,68,4,word/wordth0683.png,0,9,9,9,46.47174650011584,,,,,,,46.47174650011584,46.47174650011584,47.4473241250962,47.47098745894618,47.47098745894618,47.47098745894618,47.47098745894618,48.46403850009665,x,0.9905724579002708,None,,,,,,,,,,YP,001,2025-04-03_13h21.54.152,MainFlow,2023.2.3,None,2025-04-03 13h22.04.304673 +0700,
1,3,50,6,word/wordth0503.png,0,10,10,10,48.471840250073,,,,,,,48.471840250073,48.471840250073,49.45180841698311,49.47543049999513,49.47543049999513,49.47543049999513,49.47543049999513,50.064198958920315,x,0.5855821250006557,None,,,,,,,,,,YP,001,2025-04-03_13h21.54.152,MainFlow,2023.2.3,None,2025-04-03 13h22.04.304673 +0700,
1,3,30,4,word/wordth0303.png,0,11,11,11,50.07186025008559,,,,,,,50.07186025008559,50.07186025008559,51.04738754197024,51.0733442499768,51.0733442499768,51.0733442499768,51.0733442499768,51.847554750042036,z,0.7636488331481814,None,,,,,,,,,,YP,001,2025-04-03_13h21.54.152,MainFlow,2023.2.3,None,2025-04-03 13h22.04.304673 +0700,
1,1,61,7,word/wordth0611.png,0,12,12,12,51.855430542025715,,,,,,,51.855430542025715,51.855430542025715,52.83488825010136,52.8581824589055,52.8581824589055,52.8581824589055,52.8581824589055,55.864016874926165,z,2.994802957866341,None,,,,,,,,,,YP,001,2025-04-03_13h21.54.152,MainFlow,2023.2.3,None,2025-04-03 13h22.04.304673 +0700,
1,2,51,4,word/wordth0512.png,0,13,13,13,55.86881429189816,,,,,,,55.86881429189816,55.86881429189816,56.84731624997221,56.87149600009434,56.87149600009434,56.87149600009434,56.87149600009434,58.352985334116966,z,1.4768540000077337,None,,,,,,,,,,YP,001,2025-04-03_13h21.54.152,MainFlow,2023.2.3,None,2025-04-03 13h22.04.304673 +0700,
1,3,c3,3,word/wordthc303.png,0,14,14,14,58.36318395892158,,,,,,,58.36318395892158,58.36318395892158,59.34768137498759,59.370991999981925,59.370991999981925,59.370991999981925,59.370991999981925,60.00244270893745,x,0.6269981251098216,None,59.370991999981925,59.370991999981925,,,,,,,,YP,001,2025-04-03_13h21.54.152,MainFlow,2023.2.3,None,2025-04-03 13h22.04.304673 +0700,
1,1,95,6,word/wordth0951.png,0,15,15,15,60.01343062496744,,,,,,,60.01343062496744,60.01343062496744,60.98565350007266,61.00917400000617,61.00917400000617,61.00917400000617,61.00917400000617,62.2644435421098,z,1.2435094169341028,None,,,,,,,,,,YP,001,2025-04-03_13h21.54.152,MainFlow,2023.2.3,None,2025-04-03 13h22.04.304673 +0700,
1,3,7,4,word/wordth0073.png,0,16,16,16,62.27192566706799,,,,,,,62.27192566706799,62.27192566706799,63.25211779191159,63.27434570901096,63.27434570901096,63.27434570901096,63.27434570901096,63.9694479170721,x,0.6905387078877538,None,,,,,,,,,,YP,001,2025-04-03_13h21.54.152,MainFlow,2023.2.3,None,2025-04-03 13h22.04.304673 +0700,
1,3,22,7,word/wordth0223.png,0,17,17,17,63.98018499999307,,,,,,,63.98018499999307,63.98018499999307,64.96425858396105,64.9878442499321,64.9878442499321,64.9878442499321,64.9878442499321,65.98640287504531,x,0.9937673748936504,None,64.9878442499321,64.9878442499321,,,,,,,,YP,001,2025-04-03_13h21.54.152,MainFlow,2023.2.3,None,2025-04-03 13h22.04.304673 +0700,
1,2,44,5,word/wordth0442.png,0,18,18,18,65.99662620900199,,,,,,,65.99662620900199,65.99662620900199,66.98102858406492,67.00429000006989,67.00429000006989,67.00429000006989,67.00429000006989,67.79770633392036,z,0.7840225000400096,None,67.00429000006989,67.00429000006989,,,,,,,,YP,001,2025-04-03_13h21.54.152,MainFlow,2023.2.3,None,2025-04-03 13h22.04.304673 +0700,
1,1,26,5,word/wordth0261.png,0,19,19,19,67.80534829199314,,,,,,,67.80534829199314,67.80534829199314,68.78530004201457,68.80683829193003,68.80683829193003,68.80683829193003,68.80683829193003,69.83125845901668,z,1.0141004158649594,None,,,,,,,,,,YP,001,2025-04-03_13h21.54.152,MainFlow,2023.2.3,None,2025-04-03 13h22.04.304673 +0700,
1,2,10,7,word/wordth0102.png,0,20,20,20,69.83894837507978,,,,,,,69.83894837507978,69.83894837507978,70.81923300004564,70.84107691701502,70.84107691701502,70.84107691701502,70.84107691701502,71.5365536250174,x,0.691627583000809,None,,,,,,,,,,YP,001,2025-04-03_13h21.54.152,MainFlow,2023.2.3,None,2025-04-03 13h22.04.304673 +0700,
1,2,95,6,word/wordth0952.png,0,21,21,21,71.54634787491523,,,,,,,71.54634787491523,71.54634787491523,72.5308207089547,72.55395158403553,72.55395158403553,72.55395158403553,72.55395158403553,73.20261158398353,x,0.6451068338938057,None,72.55395158403553,72.55395158403553,,,,,,,,YP,001,2025-04-03_13h21.54.152,MainFlow,2023.2.3,None,2025-04-03 13h22.04.304673 +0700,
1,3,23a,7,word/wordth23a3.png,0,22,22,22,73.2133474170696,,,,,,,73.2133474170696,73.2133474170696,74.18562866700813,74.20810633408837,74.20810633408837,74.20810633408837,74.20810633408837,74.73651683400385,x,0.5250574999954551,None,,,,,,,,,,YP,001,2025-04-03_13h21.54.152,MainFlow,2023.2.3,None,2025-04-03 13h22.04.304673 +0700,
1,2,c1,3,word/wordthc102.png,0,23,23,23,74.74672254198231,,,,,,,74.74672254198231,74.74672254198231,75.73093120893463,75.75368237495422,75.75368237495422,75.75368237495422,75.75368237495422,76.41975475009531,x,0.6611337498761714,None,75.75368237495422,75.75368237495422,,,,,,,,YP,001,2025-04-03_13h21.54.152,MainFlow,2023.2.3,None,2025-04-03 13h22.04.304673 +0700,
1,3,42,3,word/wordth0423.png,0,24,24,24,76.42974058398977,,,,,,,76.42974058398977,76.42974058398977,77.41426266706549,77.43835412501357,77.43835412501357,77.43835412501357,77.43835412501357,80.46469733398408,z,3.0226813750341535,None,77.43835412501357,77.43835412501357,,,,,,,,YP,001,2025-04-03_13h21.54.152,MainFlow,2023.2.3,None,2025-04-03 13h22.04.304673 +0700,
1,2,50,6,word/wordth0502.png,0,25,25,25,80.47299516689964,,,,,,,80.47299516689964,80.47299516689964,81.45261958404444,81.47576762503013,81.47576762503013,81.47576762503013,81.47576762503013,81.95312870899215,x,0.47282470809295774,None,,,,,,,,,,YP,001,2025-04-03_13h21.54.152,MainFlow,2023.2.3,None,2025-04-03 13h22.04.304673 +0700,
1,1,27,3,word/wordth0271.png,0,26,26,26,81.96344304201193,,,,,,,81.96344304201193,81.96344304201193,82.94768516696058,82.97020100010559,82.97020100010559,82.97020100010559,82.97020100010559,83.8861775000114,z,0.9147530000191182,None,82.97020100010559,82.97020100010559,,,,,,,,YP,001,2025-04-03_13h21.54.152,MainFlow,2023.2.3,None,2025-04-03 13h22.04.304673 +0700,
1,1,23a,7,word/wordth23a1.png,0,27,27,27,83.89680579211563,,,,,,,83.89680579211563,83.89680579211563,84.88104062504135,84.90418862504885,84.90418862504885,84.90418862504885,84.90418862504885,85.91989808389917,z,1.013846250018105,None,84.90418862504885,84.90418862504885,,,,,,,,YP,001,2025-04-03_13h21.54.152,MainFlow,2023.2.3,None,2025-04-03 13h22.04.304673 +0700,
1,1,66,5,word/wordth0661.png,0,28,28,28,85.92999295890331,,,,,,,85.92999295890331,85.92999295890331,86.91450687497854,86.93726295907982,86.93726295907982,86.93726295907982,86.93726295907982,88.19798141694628,z,1.2515255420003086,None,86.93726295907982,86.93726295907982,,,,,,,,YP,001,2025-04-03_13h21.54.152,MainFlow,2023.2.3,None,2025-04-03 13h22.04.304673 +0700,
1,1,7,4,word/wordth0071.png,0,29,29,29,88.20572620909661,,,,,,,88.20572620909661,88.20572620909661,89.18121966696344,89.20413233409636,89.20413233409636,89.20413233409636,89.20413233409636,90.681396542117,z,1.4666608332190663,None,,,,,,,,,,YP,001,2025-04-03_13h21.54.152,MainFlow,2023.2.3,None,2025-04-03 13h22.04.304673 +0700,
1,1,41,5,word/wordth0411.png,0,30,30,30,90.68968362500891,,,,,,,90.68968362500891,90.68968362500891,91.66724679199979,91.68223333405331,91.68223333405331,91.68223333405331,91.68223333405331,108.0035698749125,z,16.317150583025068,None,,,,,,,,,,YP,001,2025-04-03_13h21.54.152,MainFlow,2023.2.3,None,2025-04-03 13h22.04.304673 +0700,
1,2,c4,3,word/wordthc402.png,0,31,31,31,108.01351779210381,,,,,,,108.01351779210381,108.01351779210381,108.99792358395644,109.02180099999532,109.02180099999532,109.02180099999532,109.02180099999532,115.0318550420925,x,5.999094041995704,None,109.02180099999532,109.02180099999532,,,,,,,,YP,001,2025-04-03_13h21.54.152,MainFlow,2023.2.3,None,2025-04-03 13h22.04.304673 +0700,
1,1,31,7,word/wordth0311.png,0,32,32,32,115.03964316705242,,,,,,,115.03964316705242,115.03964316705242,116.01958612492308,116.04341554199345,116.04341554199345,116.04341554199345,116.04341554199345,117.39815120911226,z,1.3467076669912785,None,,,,,,,,,,YP,001,2025-04-03_13h21.54.152,MainFlow,2023.2.3,None,2025-04-03 13h22.04.304673 +0700,
1,1,6,5,word/wordth0061.png,0,33,33,33,117.40587666700594,,,,,,,117.40587666700594,117.40587666700594,118.38149075000547,118.40368758398108,118.40368758398108,118.40368758398108,118.40368758398108,119.63646995904855,z,1.2278130410704762,None,,,,,,,,,,YP,001,2025-04-03_13h21.54.152,MainFlow,2023.2.3,None,2025-04-03 13h22.04.304673 +0700,
1,3,51,4,word/wordth0513.png,0,34,34,34,119.64749462506734,,,,,,,119.64749462506734,119.64749462506734,120.61959824990481,120.64229645906016,120.64229645906016,120.64229645906016,120.64229645906016,122.14857654203661,x,1.500038166064769,None,,,,,,,,,,YP,001,2025-04-03_13h21.54.152,MainFlow,2023.2.3,None,2025-04-03 13h22.04.304673 +0700,
1,1,d1,4,word/wordthd101.png,0,35,35,35,122.1567512920592,,,,,,,122.1567512920592,122.1567512920592,123.13637500000186,123.158242209116,123.158242209116,123.158242209116,123.158242209116,124.18193341698498,z,1.016664625145495,None,,,,,,,,,,YP,001,2025-04-03_13h21.54.152,MainFlow,2023.2.3,None,2025-04-03 13h22.04.304673 +0700,
1,3,70,6,word/wordth0703.png,0,36,36,36,124.1894221669063,,,,,,,124.1894221669063,124.1894221669063,125.16960508399643,125.19258170900866,125.19258170900866,125.19258170900866,125.19258170900866,125.93670570896938,x,0.741652041207999,None,,,,,,,,,,YP,001,2025-04-03_13h21.54.152,MainFlow,2023.2.3,None,2025-04-03 13h22.04.304673 +0700,
1,1,c4,3,word/wordthc401.png,0,37,37,37,125.94754870911129,,,,,,,125.94754870911129,125.94754870911129,126.9311537090689,126.95376949990168,126.95376949990168,126.95376949990168,126.95376949990168,128.21508470899425,z,1.25207266677171,None,126.95376949990168,126.95376949990168,,,,,,,,YP,001,2025-04-03_13h21.54.152,MainFlow,2023.2.3,None,2025-04-03 13h22.04.304673 +0700,
1,2,63,4,word/wordth0632.png,0,38,38,38,128.22278445889242,,,,,,,128.22278445889242,128.22278445889242,129.20288970903493,129.22506441711448,129.22506441711448,129.22506441711448,129.22506441711448,130.28750395891257,x,1.0613856669515371,None,,,,,,,,,,YP,001,2025-04-03_13h21.54.152,MainFlow,2023.2.3,None,2025-04-03 13h22.04.304673 +0700,
1,2,42,3,word/wordth0422.png,0,39,39,39,130.29713095910847,,,,,,,130.29713095910847,130.29713095910847,131.28177383402362,131.30597391701303,131.30597391701303,131.30597391701303,131.30597391701303,132.18196204211563,x,0.8685911658685654,None,131.30597391701303,131.30597391701303,,,,,,,,YP,001,2025-04-03_13h21.54.152,MainFlow,2023.2.3,None,2025-04-03 13h22.04.304673 +0700,
1,3,87,5,word/wordth0873.png,0,40,40,40,132.18987962510437,,,,,,,132.18987962510437,132.18987962510437,133.1700246669352,133.19257949991152,133.19257949991152,133.19257949991152,133.19257949991152,134.053576458944,x,0.8564952500164509,None,,,,,,,,,,YP,001,2025-04-03_13h21.54.152,MainFlow,2023.2.3,None,2025-04-03 13h22.04.304673 +0700,
1,3,82,6,word/wordth0823.png,0,41,41,41,134.06433225004002,,,,,,,134.06433225004002,134.06433225004002,135.04842004203238,135.07144499989226,135.07144499989226,135.07144499989226,135.07144499989226,135.63695470895618,x,0.5611151249613613,None,135.07144499989226,135.07144499989226,,,,,,,,YP,001,2025-04-03_13h21.54.152,MainFlow,2023.2.3,None,2025-04-03 13h22.04.304673 +0700,
1,3,28,7,word/wordth0283.png,0,42,42,42,135.647660916904,,,,,,,135.647660916904,135.647660916904,136.6316784590017,136.65461087506264,136.65461087506264,136.65461087506264,136.65461087506264,138.1319075000938,x,1.4713112500030547,None,136.65461087506264,136.65461087506264,,,,,,,,YP,001,2025-04-03_13h21.54.152,MainFlow,2023.2.3,None,2025-04-03 13h22.04.304673 +0700,
1,3,75a,4,word/wordth75a3.png,0,43,43,43,138.13990245899186,,,,,,,138.13990245899186,138.13990245899186,139.1192711670883,139.14235595893115,139.14235595893115,139.14235595893115,139.14235595893115,140.0538139170967,x,0.9071398749947548,None,,,,,,,,,,YP,001,2025-04-03_13h21.54.152,MainFlow,2023.2.3,None,2025-04-03 13h22.04.304673 +0700,
1,3,66,5,word/wordth0663.png,0,44,44,44,140.06382195907645,,,,,,,140.06382195907645,140.06382195907645,141.04838462499902,141.0725395840127,141.0725395840127,141.0725395840127,141.0725395840127,144.4651222920511,x,3.3904620830435306,None,141.0725395840127,141.0725395840127,,,,,,,,YP,001,2025-04-03_13h21.54.152,MainFlow,2023.2.3,None,2025-04-03 13h22.04.304673 +0700,
1,3,27,3,word/wordth0273.png,0,45,45,45,144.47282449994236,,,,,,,144.47282449994236,144.47282449994236,145.4485137918964,145.4717510000337,145.4717510000337,145.4717510000337,145.4717510000337,153.69879320892505,x,8.223884957842529,None,,,,,,,,,,YP,001,2025-04-03_13h21.54.152,MainFlow,2023.2.3,None,2025-04-03 13h22.04.304673 +0700,
1,1,c2,3,word/wordthc201.png,0,46,46,46,153.70672070910223,,,,,,,153.70672070910223,153.70672070910223,154.68603137508035,154.70811162493192,154.70811162493192,154.70811162493192,154.70811162493192,155.92058625002392,z,1.2108154168818146,None,,,,,,,,,,YP,001,2025-04-03_13h21.54.152,MainFlow,2023.2.3,None,2025-04-03 13h22.04.304673 +0700,
1,3,c1,3,word/wordthc103.png,0,47,47,47,155.93081754189916,,,,,,,155.93081754189916,155.93081754189916,156.91536408406682,156.93681445904076,156.93681445904076,156.93681445904076,156.93681445904076,163.39869762491435,x,6.454597166972235,None,156.93681445904076,156.93681445904076,,,,,,,,YP,001,2025-04-03_13h21.54.152,MainFlow,2023.2.3,None,2025-04-03 13h22.04.304673 +0700,
1,3,89,7,word/wordth0893.png,0,48,48,48,163.40594158391468,,,,,,,163.40594158391468,163.40594158391468,164.38196287490427,164.40620687510818,164.40620687510818,164.40620687510818,164.40620687510818,165.23986599990167,x,0.8259539999999106,None,,,,,,,,,,YP,001,2025-04-03_13h21.54.152,MainFlow,2023.2.3,None,2025-04-03 13h22.04.304673 +0700,
1,1,c3,3,word/wordthc301.png,0,49,49,49,165.2477841670625,,,,,,,165.2477841670625,165.2477841670625,166.23182404204272,166.25474249990657,166.25474249990657,166.25474249990657,166.25474249990657,167.11553041706793,z,0.8488188330084085,None,166.25474249990657,166.25474249990657,,,,,,,,YP,001,2025-04-03_13h21.54.152,MainFlow,2023.2.3,None,2025-04-03 13h22.04.304673 +0700,
1,3,3,3,word/wordth0033.png,0,50,50,50,167.1234853749629,,,,,,,167.1234853749629,167.1234853749629,168.10320104192942,168.1251632089261,168.1251632089261,168.1251632089261,168.1251632089261,169.865558834048,z,1.7298055840656161,None,,,,,,,,,,YP,001,2025-04-03_13h21.54.152,MainFlow,2023.2.3,None,2025-04-03 13h22.04.304673 +0700,
1,1,22,7,word/wordth0221.png,0,51,51,51,169.87347562494688,,,,,,,169.87347562494688,169.87347562494688,170.84876987501048,170.8725674590096,170.8725674590096,170.8725674590096,170.8725674590096,172.2821452920325,z,1.398499707924202,None,,,,,,,,,,YP,001,2025-04-03_13h21.54.152,MainFlow,2023.2.3,None,2025-04-03 13h22.04.304673 +0700,
1,1,82,6,word/wordth0821.png,0,52,52,52,172.28962633409537,,,,,,,172.28962633409537,172.28962633409537,173.2700807088986,173.29282416705973,173.29282416705973,173.29282416705973,173.29282416705973,174.699141375022,z,1.3951033749617636,None,,,,,,,,,,YP,001,2025-04-03_13h21.54.152,MainFlow,2023.2.3,None,2025-04-03 13h22.04.304673 +0700,
1,3,95,6,word/wordth0953.png,0,53,53,53,174.70426341705024,,,,,,,174.70426341705024,174.70426341705024,175.68228491698392,175.70663083391264,175.70663083391264,175.70663083391264,175.70663083391264,186.2325289589353,x,10.516055208165199,None,,,,,,,,,,YP,001,2025-04-03_13h21.54.152,MainFlow,2023.2.3,None,2025-04-03 13h22.04.304673 +0700,
1,1,63,4,word/wordth0631.png,0,54,54,54,186.2407509170007,,,,,,,186.2407509170007,186.2407509170007,187.22025849996135,187.24351274990477,187.24351274990477,187.24351274990477,187.24351274990477,189.25437558395788,z,2.00652225012891,None,,,,,,,,,,YP,001,2025-04-03_13h21.54.152,MainFlow,2023.2.3,None,2025-04-03 13h22.04.304673 +0700,
1,1,42,3,word/wordth0421.png,0,55,55,55,189.26477766712196,,,,,,,189.26477766712196,189.26477766712196,190.2490502500441,190.2728256250266,190.2728256250266,190.2728256250266,190.2728256250266,191.5541578340344,z,1.279547082958743,None,190.2728256250266,190.2728256250266,,,,,,,,YP,001,2025-04-03_13h21.54.152,MainFlow,2023.2.3,None,2025-04-03 13h22.04.304673 +0700,
1,1,87,5,word/wordth0871.png,0,56,56,56,191.56503174989484,,,,,,,191.56503174989484,191.56503174989484,192.54900899995118,192.5731655000709,192.5731655000709,192.5731655000709,192.5731655000709,193.83242312492803,z,1.2500788329634815,None,192.5731655000709,192.5731655000709,,,,,,,,YP,001,2025-04-03_13h21.54.152,MainFlow,2023.2.3,None,2025-04-03 13h22.04.304673 +0700,
1,2,75a,4,word/wordth75a2.png,0,57,57,57,193.84018108411692,,,,,,,193.84018108411692,193.84018108411692,194.8157375000883,194.8393385000527,194.8393385000527,194.8393385000527,194.8393385000527,195.63795912498608,x,0.7931233330164105,None,,,,,,,,,,YP,001,2025-04-03_13h21.54.152,MainFlow,2023.2.3,None,2025-04-03 13h22.04.304673 +0700,
1,2,24,7,word/wordth0242.png,0,58,58,58,195.6479298339691,,,,,,,195.6479298339691,195.6479298339691,196.63270379207097,196.65557562489994,196.65557562489994,196.65557562489994,196.65557562489994,197.55394120910205,x,0.8965482080820948,None,196.65557562489994,196.65557562489994,,,,,,,,YP,001,2025-04-03_13h21.54.152,MainFlow,2023.2.3,None,2025-04-03 13h22.04.304673 +0700,
1,3,93,4,word/wordth0933.png,0,59,59,59,197.56512720906176,,,,,,,197.56512720906176,197.56512720906176,198.53731595911086,198.56019558408298,198.56019558408298,198.56019558408298,198.56019558408298,199.55464670900255,x,0.9920117498841137,None,,,,,,,,,,YP,001,2025-04-03_13h21.54.152,MainFlow,2023.2.3,None,2025-04-03 13h22.04.304673 +0700,
1,2,64,3,word/wordth0642.png,0,60,60,60,199.56455437489785,,,,,,,199.56455437489785,199.56455437489785,200.54892041697167,200.5717988340184,200.5717988340184,200.5717988340184,200.5717988340184,201.98787233396433,x,1.4117322079837322,None,200.5717988340184,200.5717988340184,,,,,,,,YP,001,2025-04-03_13h21.54.152,MainFlow,2023.2.3,None,2025-04-03 13h22.04.304673 +0700,
1,3,24,7,word/wordth0243.png,0,61,61,61,201.9982072089333,,,,,,,201.9982072089333,201.9982072089333,202.98259941698052,203.0072932089679,203.0072932089679,203.0072932089679,203.0072932089679,203.58785870904103,x,0.5770844591315836,None,203.0072932089679,203.0072932089679,,,,,,,,YP,001,2025-04-03_13h21.54.152,MainFlow,2023.2.3,None,2025-04-03 13h22.04.304673 +0700,
1,1,52,5,word/wordth0521.png,0,62,62,62,203.59814874990843,,,,,,,203.59814874990843,203.59814874990843,204.58256245893426,204.60528945899568,204.60528945899568,204.60528945899568,204.60528945899568,205.84947958402336,z,1.2343283749651164,None,204.60528945899568,204.60528945899568,,,,,,,,YP,001,2025-04-03_13h21.54.152,MainFlow,2023.2.3,None,2025-04-03 13h22.04.304673 +0700,
1,2,8,6,word/wordth0082.png,0,63,63,63,205.85727629205212,,,,,,,205.85727629205212,205.85727629205212,206.8326092089992,206.85668866708875,206.85668866708875,206.85668866708875,206.85668866708875,207.60457162489183,x,0.7438807091675699,None,,,,,,,,,,YP,001,2025-04-03_13h21.54.152,MainFlow,2023.2.3,None,2025-04-03 13h22.04.304673 +0700,
1,1,3,3,word/wordth0031.png,0,64,64,64,207.61525370902382,,,,,,,207.61525370902382,207.61525370902382,208.5993111669086,208.62165945908055,208.62165945908055,208.62165945908055,208.62165945908055,209.62380995904095,z,0.9943307910580188,None,208.62165945908055,208.62165945908055,,,,,,,,YP,001,2025-04-03_13h21.54.152,MainFlow,2023.2.3,None,2025-04-03 13h22.04.304673 +0700,
1,2,61,7,word/wordth0612.png,0,65,65,65,209.6318688339088,,,,,,,209.6318688339088,209.6318688339088,210.61583245894872,210.64027887489647,210.64027887489647,210.64027887489647,210.64027887489647,211.41609849990346,x,0.768455166136846,None,210.64027887489647,210.64027887489647,,,,,,,,YP,001,2025-04-03_13h21.54.152,MainFlow,2023.2.3,None,2025-04-03 13h22.04.304673 +0700,
1,2,27,3,word/wordth0272.png,0,66,66,66,211.42375204199925,,,,,,,211.42375204199925,211.42375204199925,212.39925854210742,212.4215978749562,212.4215978749562,212.4215978749562,212.4215978749562,213.0995196250733,x,0.6668844579253346,None,,,,,,,,,,YP,001,2025-04-03_13h21.54.152,MainFlow,2023.2.3,None,2025-04-03 13h22.04.304673 +0700,
1,2,23a,7,word/wordth23a2.png,0,67,67,67,213.10743433400057,,,,,,,213.10743433400057,213.10743433400057,214.08714866708033,214.11004591709934,214.11004591709934,214.11004591709934,214.11004591709934,214.87449104199186,x,0.7558167909737676,None,,,,,,,,,,YP,001,2025-04-03_13h21.54.152,MainFlow,2023.2.3,None,2025-04-03 13h22.04.304673 +0700,
1,1,68,4,word/wordth0681.png,0,68,68,68,214.8812862089835,,,,,,,214.8812862089835,214.8812862089835,215.8660367920529,215.88850783393718,215.88850783393718,215.88850783393718,215.88850783393718,216.75461583398283,z,0.8633752500172704,None,215.88850783393718,215.88850783393718,,,,,,,,YP,001,2025-04-03_13h21.54.152,MainFlow,2023.2.3,None,2025-04-03 13h22.04.304673 +0700,
1,2,6,5,word/wordth0062.png,0,69,69,69,216.76532520889305,,,,,,,216.76532520889305,216.76532520889305,217.74949899991043,217.77150858403184,217.77150858403184,217.77150858403184,217.77150858403184,218.4548524590209,x,0.6786115830764174,None,217.77150858403184,217.77150858403184,,,,,,,,YP,001,2025-04-03_13h21.54.152,MainFlow,2023.2.3,None,2025-04-03 13h22.04.304673 +0700,
1,2,88,6,word/wordth0882.png,0,70,70,70,218.46480274992064,,,,,,,218.46480274992064,218.46480274992064,219.4494864169974,219.47356004198082,219.47356004198082,219.47356004198082,219.47356004198082,220.40448316698894,x,0.9265921670012176,None,219.47356004198082,219.47356004198082,,,,,,,,YP,001,2025-04-03_13h21.54.152,MainFlow,2023.2.3,None,2025-04-03 13h22.04.304673 +0700,
1,3,8,6,word/wordth0083.png,0,71,71,71,220.4153781249188,,,,,,,220.4153781249188,220.4153781249188,221.3876670000609,221.41196920908988,221.41196920908988,221.41196920908988,221.41196920908988,227.71633158391342,x,6.3007668340578675,None,,,,,,,,,,YP,001,2025-04-03_13h21.54.152,MainFlow,2023.2.3,None,2025-04-03 13h22.04.304673 +0700,
1,2,66,5,word/wordth0662.png,0,72,72,72,227.7243691671174,,,,,,,227.7243691671174,227.7243691671174,228.69958762498572,228.72240166692063,228.72240166692063,228.72240166692063,228.72240166692063,229.86631254199892,x,1.1331600840203464,None,,,,,,,,,,YP,001,2025-04-03_13h21.54.152,MainFlow,2023.2.3,None,2025-04-03 13h22.04.304673 +0700,
1,1,93,4,word/wordth0931.png,0,73,73,73,229.87394908396527,,,,,,,229.87394908396527,229.87394908396527,230.85415587504394,230.87718220893294,230.87718220893294,230.87718220893294,230.87718220893294,233.23791162506677,z,2.3566452499944717,None,,,,,,,,,,YP,001,2025-04-03_13h21.54.152,MainFlow,2023.2.3,None,2025-04-03 13h22.04.304673 +0700,
1,1,44,5,word/wordth0441.png,0,74,74,74,233.24874104210176,,,,,,,233.24874104210176,233.24874104210176,234.2326428340748,234.2588258339092,234.2588258339092,234.2588258339092,234.2588258339092,237.5717258339282,z,3.3094973328989,None,234.2588258339092,234.2588258339092,,,,,,,,YP,001,2025-04-03_13h21.54.152,MainFlow,2023.2.3,None,2025-04-03 13h22.04.304673 +0700,
1,1,10,7,word/wordth0101.png,0,75,75,75,237.58163212495856,,,,,,,237.58163212495856,237.58163212495856,238.56631541694514,238.58870520908386,238.58870520908386,238.58870520908386,238.58870520908386,241.38303391705267,z,2.7884902090299875,None,238.58870520908386,238.58870520908386,,,,,,,,YP,001,2025-04-03_13h21.54.152,MainFlow,2023.2.3,None,2025-04-03 13h22.04.304673 +0700,
1,2,30,4,word/wordth0302.png,0,76,76,76,241.39086741697975,,,,,,,241.39086741697975,241.39086741697975,242.3664317498915,242.39154070895165,242.39154070895165,242.39154070895165,242.39154070895165,243.1880497499369,x,0.7931923749856651,None,,,,,,,,,,YP,001,2025-04-03_13h21.54.152,MainFlow,2023.2.3,None,2025-04-03 13h22.04.304673 +0700,
1,3,64,3,word/wordth0643.png,0,77,77,77,243.1987248340156,,,,,,,243.1987248340156,243.1987248340156,244.17142074997537,244.19444854208268,244.19444854208268,244.19444854208268,244.19444854208268,255.81681966711767,x,11.614951582858339,None,,,,,,,,,,YP,001,2025-04-03_13h21.54.152,MainFlow,2023.2.3,None,2025-04-03 13h22.04.304673 +0700,
1,1,28,7,word/wordth0281.png,0,78,78,78,255.8249866249971,,,,,,,255.8249866249971,255.8249866249971,256.8047514169011,256.82769870897755,256.82769870897755,256.82769870897755,256.82769870897755,271.80029108398594,z,14.966530915815383,None,,,,,,,,,,YP,001,2025-04-03_13h21.54.152,MainFlow,2023.2.3,None,2025-04-03 13h22.04.304673 +0700,
1,2,93,4,word/wordth0932.png,0,79,79,79,271.80854987492785,,,,,,,271.80854987492785,271.80854987492785,272.7835278750863,272.80666125006974,272.80666125006974,272.80666125006974,272.80666125006974,273.6048254999332,x,0.7947852909564972,None,,,,,,,,,,YP,001,2025-04-03_13h21.54.152,MainFlow,2023.2.3,None,2025-04-03 13h22.04.304673 +0700,
1,2,48,5,word/wordth0482.png,0,80,80,80,273.6159920420032,,,,,,,273.6159920420032,273.6159920420032,274.5878504170105,274.6109227919951,274.6109227919951,274.6109227919951,274.6109227919951,275.3168557919562,x,0.7021495418157429,None,,,,,,,,,,YP,001,2025-04-03_13h21.54.152,MainFlow,2023.2.3,None,2025-04-03 13h22.04.304673 +0700,
1,1,24,7,word/wordth0241.png,0,81,81,81,275.32445020903833,,,,,,,275.32445020903833,275.32445020903833,276.30009354208596,276.3222767089028,276.3222767089028,276.3222767089028,276.3222767089028,278.2334806250874,z,1.9030743329785764,None,,,,,,,,,,YP,001,2025-04-03_13h21.54.152,MainFlow,2023.2.3,None,2025-04-03 13h22.04.304673 +0700,
1,2,31,7,word/wordth0312.png,0,82,82,82,278.2409349170048,,,,,,,278.2409349170048,278.2409349170048,279.2168696250301,279.2405337090604,279.2405337090604,279.2405337090604,279.2405337090604,280.38882308406755,x,1.1442797081544995,None,,,,,,,,,,YP,001,2025-04-03_13h21.54.152,MainFlow,2023.2.3,None,2025-04-03 13h22.04.304673 +0700,
1,1,48,5,word/wordth0481.png,0,83,83,83,280.399108374957,,,,,,,280.399108374957,280.399108374957,281.38342483411543,281.4060905419756,281.4060905419756,281.4060905419756,281.4060905419756,282.53352924995124,z,1.1233741668984294,None,281.4060905419756,281.4060905419756,,,,,,,,YP,001,2025-04-03_13h21.54.152,MainFlow,2023.2.3,None,2025-04-03 13h22.04.304673 +0700,
1,1,11,6,word/wordth0111.png,0,84,84,84,282.54173758393154,,,,,,,282.54173758393154,282.54173758393154,283.51690679206513,283.5409592499491,283.5409592499491,283.5409592499491,283.5409592499491,297.2888863340486,x,13.743064624955878,None,,,,,,,,,,YP,001,2025-04-03_13h21.54.152,MainFlow,2023.2.3,None,2025-04-03 13h22.04.304673 +0700,
1,2,c2,3,word/wordthc202.png,0,85,85,85,297.29914429201744,,,,,,,297.29914429201744,297.29914429201744,298.2836674170103,298.3077562090475,298.3077562090475,298.3077562090475,298.3077562090475,299.01706991693936,x,0.7023270840290934,None,298.3077562090475,298.3077562090475,,,,,,,,YP,001,2025-04-03_13h21.54.152,MainFlow,2023.2.3,None,2025-04-03 13h22.04.304673 +0700,
1,2,22,7,word/wordth0222.png,0,86,86,86,299.0244848339353,,,,,,,299.0244848339353,299.0244848339353,300.0002633340191,300.02333183400333,300.02333183400333,300.02333183400333,300.02333183400333,300.8058601669036,x,0.7783434160519391,None,,,,,,,,,,YP,001,2025-04-03_13h21.54.152,MainFlow,2023.2.3,None,2025-04-03 13h22.04.304673 +0700,
1,3,61,7,word/wordth0613.png,0,87,87,87,300.81600250001065,,,,,,,300.81600250001065,300.81600250001065,301.80024133389816,301.8248349169735,301.8248349169735,301.8248349169735,301.8248349169735,302.4557327919174,x,0.6262630000710487,None,301.8248349169735,301.8248349169735,,,,,,,,YP,001,2025-04-03_13h21.54.152,MainFlow,2023.2.3,None,2025-04-03 13h22.04.304673 +0700,
1,2,c3,3,word/wordthc302.png,0,88,88,88,302.4660543340724,,,,,,,302.4660543340724,302.4660543340724,303.4502523750998,303.4733909589704,303.4733909589704,303.4733909589704,303.4733909589704,307.83393191709183,x,4.353214249946177,None,303.4733909589704,303.4733909589704,,,,,,,,YP,001,2025-04-03_13h21.54.152,MainFlow,2023.2.3,None,2025-04-03 13h22.04.304673 +0700,
1,1,c1,3,word/wordthc101.png,0,89,89,89,307.8416097089648,,,,,,,307.8416097089648,307.8416097089648,308.8170458339155,308.8391240420751,308.8391240420751,308.8391240420751,308.8391240420751,310.1338119590655,z,1.2917720840778202,None,,,,,,,,,,YP,001,2025-04-03_13h21.54.152,MainFlow,2023.2.3,None,2025-04-03 13h22.04.304673 +0700,
1,3,41,5,word/wordth0413.png,0,90,90,90,310.1417004589457,,,,,,,310.1417004589457,310.1417004589457,311.1170434590895,311.14124683407135,311.14124683407135,311.14124683407135,311.14124683407135,311.9556005420163,x,0.8131104579661041,None,,,,,,,,,,YP,001,2025-04-03_13h21.54.152,MainFlow,2023.2.3,None,2025-04-03 13h22.04.304673 +0700,
1,3,71a,6,word/wordth71a3.png,0,91,91,91,311.96639816695824,,,,,,,311.96639816695824,311.96639816695824,312.9500678749755,312.9731817089487,312.9731817089487,312.9731817089487,312.9731817089487,314.2508723339997,x,1.2695432920008898,None,312.9731817089487,312.9731817089487,,,,,,,,YP,001,2025-04-03_13h21.54.152,MainFlow,2023.2.3,None,2025-04-03 13h22.04.304673 +0700,
1,1,64,3,word/wordth0641.png,0,92,92,92,314.25882808398455,,,,,,,314.25882808398455,314.25882808398455,315.23812275007367,315.2602741669398,315.2602741669398,315.2602741669398,315.2602741669398,317.0674604589585,z,1.7987645829562098,None,,,,,,,,,,YP,001,2025-04-03_13h21.54.152,MainFlow,2023.2.3,None,2025-04-03 13h22.04.304673 +0700,
1,3,63,4,word/wordth0633.png,0,93,93,93,317.07560775009915,,,,,,,317.07560775009915,317.07560775009915,318.0553455839399,318.07776049990207,318.07776049990207,318.07776049990207,318.07776049990207,319.31750024994835,x,1.2380068749189377,None,,,,,,,,,,YP,001,2025-04-03_13h21.54.152,MainFlow,2023.2.3,None,2025-04-03 13h22.04.304673 +0700,
1,2,87,5,word/wordth0872.png,0,94,94,94,319.3255227920599,,,,,,,319.3255227920599,319.3255227920599,320.30528108403087,320.3280495419167,320.3280495419167,320.3280495419167,320.3280495419167,328.58422966697253,x,8.250084124971181,None,,,,,,,,,,YP,001,2025-04-03_13h21.54.152,MainFlow,2023.2.3,None,2025-04-03 13h22.04.304673 +0700,
1,1,51,4,word/wordth0511.png,0,95,95,95,328.5920931249857,,,,,,,328.5920931249857,328.5920931249857,329.57225695904344,329.59460525005125,329.59460525005125,329.59460525005125,329.59460525005125,339.6063103750348,z,10.00726216705516,None,,,,,,,,,,YP,001,2025-04-03_13h21.54.152,MainFlow,2023.2.3,None,2025-04-03 13h22.04.304673 +0700,
1,3,48,5,word/wordth0483.png,0,96,96,96,339.61631070892327,,,,,,,339.61631070892327,339.61631070892327,340.60082620894536,340.62353208404966,340.62353208404966,340.62353208404966,340.62353208404966,341.45102137490176,x,0.8195454159285873,None,340.62353208404966,340.62353208404966,,,,,,,,YP,001,2025-04-03_13h21.54.152,MainFlow,2023.2.3,None,2025-04-03 13h22.04.304673 +0700,
1,2,52,5,word/wordth0522.png,0,97,97,97,341.4588394591119,,,,,,,341.4588394591119,341.4588394591119,342.4386988750193,342.46106024994515,342.46106024994515,342.46106024994515,342.46106024994515,343.306279709097,x,0.8404108330141753,None,,,,,,,,,,YP,001,2025-04-03_13h21.54.152,MainFlow,2023.2.3,None,2025-04-03 13h22.04.304673 +0700,
1,1,8,6,word/wordth0081.png,0,98,98,98,343.31625204207376,,,,,,,343.31625204207376,343.31625204207376,344.3006902919151,344.3245793750975,344.3245793750975,344.3245793750975,344.3245793750975,346.6676954589784,z,2.333449749974534,None,344.3245793750975,344.3245793750975,,,,,,,,YP,001,2025-04-03_13h21.54.152,MainFlow,2023.2.3,None,2025-04-03 13h22.04.304673 +0700,
1,3,d1,4,word/wordthd103.png,0,99,99,99,346.6753123339731,,,,,,,346.6753123339731,346.6753123339731,347.65560583397746,347.67815624992363,347.67815624992363,347.67815624992363,347.67815624992363,354.2346632089466,x,6.548792792018503,None,,,,,,,,,,YP,001,2025-04-03_13h21.54.152,MainFlow,2023.2.3,None,2025-04-03 13h22.04.304673 +0700,
1,1,89,7,word/wordth0891.png,0,100,100,100,354.24257312505506,,,,,,,354.24257312505506,354.24257312505506,355.22235908405855,355.24592358409427,355.24592358409427,355.24592358409427,355.24592358409427,357.3678999170661,z,2.117324624909088,None,,,,,,,,,,YP,001,2025-04-03_13h21.54.152,MainFlow,2023.2.3,None,2025-04-03 13h22.04.304673 +0700,
1,1,70,6,word/wordth0701.png,0,101,101,101,357.3757540420629,,,,,,,357.3757540420629,357.3757540420629,358.35531574999914,358.37758637499064,358.37758637499064,358.37758637499064,358.37758637499064,360.7177531251218,z,2.3301760831382126,None,,,,,,,,,,YP,001,2025-04-03_13h21.54.152,MainFlow,2023.2.3,None,2025-04-03 13h22.04.304673 +0700,
1,2,70,6,word/wordth0702.png,0,102,102,102,360.7253471671138,,,,,,,360.7253471671138,360.7253471671138,361.70112654194236,361.7249928750098,361.7249928750098,361.7249928750098,361.7249928750098,366.4397962919902,x,4.7111392500810325,None,,,,,,,,,,YP,001,2025-04-03_13h21.54.152,MainFlow,2023.2.3,None,2025-04-03 13h22.04.304673 +0700,
1,2,68,4,word/wordth0682.png,0,103,103,103,366.4498637919314,,,,,,,366.4498637919314,366.4498637919314,367.43424929189496,367.4570092919748,367.4570092919748,367.4570092919748,367.4570092919748,368.58447829191573,x,1.122644874965772,None,367.4570092919748,367.4570092919748,,,,,,,,YP,001,2025-04-03_13h21.54.152,MainFlow,2023.2.3,None,2025-04-03 13h22.04.304673 +0700,
1,3,88,6,word/wordth0883.png,0,104,104,104,368.5922200840432,,,,,,,368.5922200840432,368.5922200840432,369.5676357089542,369.59163466701284,369.59163466701284,369.59163466701284,369.59163466701284,381.8514584999066,x,12.2526810830459,None,,,,,,,,,,YP,001,2025-04-03_13h21.54.152,MainFlow,2023.2.3,None,2025-04-03 13h22.04.304673 +0700,
1,3,6,5,word/wordth0063.png,0,105,105,105,381.8592429999262,,,,,,,381.8592429999262,381.8592429999262,382.8392184590921,382.8612705420237,382.8612705420237,382.8612705420237,382.8612705420237,384.82315187505446,x,1.9576089158654213,None,,,,,,,,,,YP,001,2025-04-03_13h21.54.152,MainFlow,2023.2.3,None,2025-04-03 13h22.04.304673 +0700,
1,2,89,7,word/wordth0892.png,0,106,106,106,384.8337679170072,,,,,,,384.8337679170072,384.8337679170072,385.8178565420676,385.8422434590757,385.8422434590757,385.8422434590757,385.8422434590757,386.6016771669965,x,0.7524979158770293,None,385.8422434590757,385.8422434590757,,,,,,,,YP,001,2025-04-03_13h21.54.152,MainFlow,2023.2.3,None,2025-04-03 13h22.04.304673 +0700,
1,1,50,6,word/wordth0501.png,0,107,107,107,386.60957249999046,,,,,,,386.60957249999046,386.60957249999046,387.58951012510806,387.6130853749346,387.6130853749346,387.6130853749346,387.6130853749346,389.18994558393024,z,1.5741516668349504,None,,,,,,,,,,YP,001,2025-04-03_13h21.54.152,MainFlow,2023.2.3,None,2025-04-03 13h22.04.304673 +0700,
1,2,82,6,word/wordth0822.png,0,108,108,108,389.2005085418932,,,,,,,389.2005085418932,389.2005085418932,390.1845140000805,390.20734745892696,390.20734745892696,390.20734745892696,390.20734745892696,393.05159487505443,x,2.836767124943435,None,390.20734745892696,390.20734745892696,,,,,,,,YP,001,2025-04-03_13h21.54.152,MainFlow,2023.2.3,None,2025-04-03 13h22.04.304673 +0700,
1,1,30,4,word/wordth0301.png,0,109,109,109,393.0592768751085,,,,,,,393.0592768751085,393.0592768751085,394.03475008392707,394.0585302920081,394.0585302920081,394.0585302920081,394.0585302920081,395.3848163341172,z,1.3217062088660896,None,,,,,,,,,,YP,001,2025-04-03_13h21.54.152,MainFlow,2023.2.3,None,2025-04-03 13h22.04.304673 +0700,
1,2,d1,4,word/wordthd102.png,0,110,110,110,395.3921721249353,,,,,,,395.3921721249353,395.3921721249353,396.3682955841068,396.391491208924,396.391491208924,396.391491208924,396.391491208924,397.3347972088959,x,0.9406412078533322,None,,,,,,,,,,YP,001,2025-04-03_13h21.54.152,MainFlow,2023.2.3,None,2025-04-03 13h22.04.304673 +0700,
1,3,c4,3,word/wordthc403.png,0,111,111,111,397.3427071669139,,,,,,,397.3427071669139,397.3427071669139,398.31818820908666,398.3403754590545,398.3403754590545,398.3403754590545,398.3403754590545,399.0849903339986,x,0.7352937499526888,None,,,,,,,,,,YP,001,2025-04-03_13h21.54.152,MainFlow,2023.2.3,None,2025-04-03 13h22.04.304673 +0700,
1,2,28,7,word/wordth0282.png,0,112,112,112,399.09288741694763,,,,,,,399.09288741694763,399.09288741694763,400.0727708339691,400.0955205420032,400.0955205420032,400.0955205420032,400.0955205420032,401.25697174994275,x,1.1568269999697804,None,,,,,,,,,,YP,001,2025-04-03_13h21.54.152,MainFlow,2023.2.3,None,2025-04-03 13h22.04.304673 +0700,
1,1,88,6,word/wordth0881.png,0,113,113,113,401.2670433339663,,,,,,,401.2670433339663,401.2670433339663,402.2514658339787,402.2752713339869,402.2752713339869,402.2752713339869,402.2752713339869,405.20688983402215,z,2.928673667134717,None,402.2752713339869,402.2752713339869,,,,,,,,YP,001,2025-04-03_13h21.54.152,MainFlow,2023.2.3,None,2025-04-03 13h22.04.304673 +0700,
1,2,41,5,word/wordth0412.png,0,114,114,114,405.2175471249502,,,,,,,405.2175471249502,405.2175471249502,406.2013762919232,406.22406554198824,406.22406554198824,406.22406554198824,406.22406554198824,407.03504695906304,x,0.8046275828965008,None,406.22406554198824,406.22406554198824,,,,,,,,YP,001,2025-04-03_13h21.54.152,MainFlow,2023.2.3,None,2025-04-03 13h22.04.304673 +0700,
1,2,71a,6,word/wordth71a2.png,0,115,115,115,407.0430640419945,,,,,,,407.0430640419945,407.0430640419945,408.0229830420576,408.04667775006965,408.04667775006965,408.04667775006965,408.04667775006965,425.41894758399576,x,17.36643183301203,None,,,,,,,,,,YP,001,2025-04-03_13h21.54.152,MainFlow,2023.2.3,None,2025-04-03 13h22.04.304673 +0700,
1,2,7,4,word/wordth0072.png,0,116,116,116,425.4269423750229,,,,,,,425.4269423750229,425.4269423750229,426.4066369589418,426.42889216705225,426.42889216705225,426.42889216705225,426.42889216705225,435.83554337499663,x,9.399771000025794,None,,,,,,,,,,YP,001,2025-04-03_13h21.54.152,MainFlow,2023.2.3,None,2025-04-03 13h22.04.304673 +0700,
1,3,26,5,word/wordth0263.png,0,117,117,117,435.8436662920285,,,,,,,435.8436662920285,435.8436662920285,436.82338204211555,436.84721116698347,436.84721116698347,436.84721116698347,436.84721116698347,437.65748166712,x,0.8055485000368208,None,,,,,,,,,,YP,001,2025-04-03_13h21.54.152,MainFlow,2023.2.3,None,2025-04-03 13h22.04.304673 +0700,
1,3,11,6,word/wordth0113.png,0,118,118,118,437.6677586250007,,,,,,,437.6677586250007,437.6677586250007,438.65188816701993,438.675149000017,438.675149000017,438.675149000017,438.675149000017,439.4688669589814,x,0.7856388341169804,None,438.675149000017,438.675149000017,,,,,,,,YP,001,2025-04-03_13h21.54.152,MainFlow,2023.2.3,None,2025-04-03 13h22.04.304673 +0700,
1,3,31,7,word/wordth0313.png,0,119,119,119,439.47654320904985,,,,,,,439.47654320904985,439.47654320904985,440.4565804169979,440.4798890000675,440.4798890000675,440.4798890000675,440.4798890000675,444.2856602089014,x,3.7967841250356287,None,,,,,,,,,,YP,001,2025-04-03_13h21.54.152,MainFlow,2023.2.3,None,2025-04-03 13h22.04.304673 +0700,
,,,,,,,,,,,,,,,,,,,,,,,,,,,,,444.28604512498714,444.29322104202583,444.29322104202583,449.58561399998143,space,5.2800533750560135,None,YP,001,2025-04-03_13h21.54.152,MainFlow,2023.2.3,None,2025-04-03 13h22.04.304673 +0700,
