lang,langpair,sequence,pairid,firstdir,seconddir,thisN,thisTrialN,thisRepN,key_resp.keys,key_resp.rt,key_resp.duration,trials.thisRepN,trials.thisTrialN,trials.thisN,trials.thisIndex,thisRow.t,notes,tutorial.started,tutorial.stopped,key_instruct.keys,key_instruct.rt,key_instruct.duration,image_first.started,letterselect.started,instruct.started,key_resp.started,letterselect.stopped,trials.key_resp.keys,trials.key_resp.rt,trials.key_resp.duration,blanknext.started,instruct_2.started,blanknext.stopped,image_first.stopped,ending.started,text_3.started,ending_key.started,ending.stopped,ending_key.keys,ending_key.rt,ending_key.duration,participant,session,date,expName,psychopyVersion,frameRate,expStart,
,,,,,,,,,,,,,,,,,,0.004109100002096966,3.2584491000161506,space,3.223592499998631,None,,,,,,,,,,,,,,,,,,,,DM_en,001,2025-03-09_13h25.04.282,MainFlow,2024.2.4,144.1643011597393,2025-03-09 13h25.18.390269 +0700,
2,2,1,6,letter/letten061.png,letter/lettkh155.png,0,0,0,z,0.7772077999834437,None,0,0,0,0,3.3371753999963403,,,,,,,3.3371753999963403,4.281394699995872,4.285814700007904,4.285814700007904,5.06526910001412,z,0.7772077999834437,None,5.076326900016284,5.08308599999873,5.250088600005256,,,,,,,,,DM_en,001,2025-03-09_13h25.04.282,MainFlow,2024.2.4,144.1643011597393,2025-03-09 13h25.18.390269 +0700,
2,1,2,2,letter/lettth142.png,letter/letten181.png,1,1,0,x,0.28352900000754744,None,0,1,1,1,5.267665699997451,,,,,,,5.267665699997451,6.252000500011491,6.256694700015942,6.256694700015942,6.542841600021347,x,0.28352900000754744,None,6.542957400000887,6.548189200024353,6.729032500006724,6.256694700015942,,,,,,,,DM_en,001,2025-03-09_13h25.04.282,MainFlow,2024.2.4,144.1643011597393,2025-03-09 13h25.18.390269 +0700,
2,1,1,2,letter/letten181.png,letter/lettth142.png,2,2,0,z,0.20427590000326745,None,0,2,2,2,6.741930600022897,,,,,,,6.741930600022897,7.730351600010181,7.735489200014854,7.735489200014854,7.944938800006639,z,0.20427590000326745,None,7.945067299995571,7.950635800021701,8.132118900015485,7.735489200014854,,,,,,,,DM_en,001,2025-03-09_13h25.04.282,MainFlow,2024.2.4,144.1643011597393,2025-03-09 13h25.18.390269 +0700,
2,2,1,8,letter/letten051.png,letter/lettkh035.png,3,3,0,z,0.3066542999877129,None,0,3,3,3,8.145167700015008,,,,,,,8.145167700015008,9.131838100001914,9.137960799998837,9.137960799998837,9.451262000016868,z,0.3066542999877129,None,9.4513222000096,9.457275499997195,9.63876520001213,9.137960799998837,,,,,,,,DM_en,001,2025-03-09_13h25.04.282,MainFlow,2024.2.4,144.1643011597393,2025-03-09 13h25.18.390269 +0700,
2,3,2,2,letter/lettgr061.png,letter/letten061.png,4,4,0,x,0.09235449999687262,None,0,4,4,4,9.65278330000001,,,,,,,9.65278330000001,10.638833100005286,10.644636200013338,10.644636200013338,10.743983000022126,x,0.09235449999687262,None,10.744080400007078,10.748636000003899,10.930089700006647,10.644636200013338,,,,,,,,DM_en,001,2025-03-09_13h25.04.282,MainFlow,2024.2.4,144.1643011597393,2025-03-09 13h25.18.390269 +0700,
2,3,1,7,letter/letten062.png,letter/lettgr065.png,5,5,0,z,1.0640711000014562,None,0,5,5,5,10.941910499997903,,,,,,,10.941910499997903,11.930695800023386,11.936026100011077,11.936026100011077,13.007919600000605,z,1.0640711000014562,None,13.007996000000276,13.012134200020228,13.193303900014143,11.936026100011077,,,,,,,,DM_en,001,2025-03-09_13h25.04.282,MainFlow,2024.2.4,144.1643011597393,2025-03-09 13h25.18.390269 +0700,
2,2,1,7,letter/letten112.png,letter/lettkh083.png,6,6,0,z,0.31513730000006035,None,0,6,6,6,13.223427799995989,,,,,,,13.223427799995989,14.207833200023742,14.213416500017047,14.213416500017047,14.533714500023052,z,0.31513730000006035,None,14.533816900016973,14.539601800002856,14.721152400015853,14.213416500017047,,,,,,,,DM_en,001,2025-03-09_13h25.04.282,MainFlow,2024.2.4,144.1643011597393,2025-03-09 13h25.18.390269 +0700,
2,1,1,1,letter/letten041.png,letter/lettth022.png,7,7,0,z,0.27950519998557866,None,0,7,7,7,14.733278400002746,,,,,,,14.733278400002746,15.721552400005748,15.727044200000819,15.727044200000819,16.012900400004582,z,0.27950519998557866,None,16.013022400002228,16.018547000014223,16.19989620000706,15.727044200000819,,,,,,,,DM_en,001,2025-03-09_13h25.04.282,MainFlow,2024.2.4,144.1643011597393,2025-03-09 13h25.18.390269 +0700,
2,3,1,6,letter/letten061.png,letter/lettgr066.png,8,8,0,z,0.2944656999898143,None,0,8,8,8,16.21508660001564,,,,,,,16.21508660001564,17.200183200009633,17.205873200000497,17.205873200000497,17.504970200010575,z,0.2944656999898143,None,17.505034500005422,17.51134220001404,17.692419800005155,17.205873200000497,,,,,,,,DM_en,001,2025-03-09_13h25.04.282,MainFlow,2024.2.4,144.1643011597393,2025-03-09 13h25.18.390269 +0700,
2,2,2,6,letter/lettkh155.png,letter/letten061.png,9,9,0,x,0.2708453999948688,None,0,9,9,9,17.71140500000911,,,,,,,17.71140500000911,18.699742400000105,18.70557469999767,18.70557469999767,18.979077299998607,x,0.2708453999948688,None,18.979282400017837,18.984327600017423,19.164367400022456,18.70557469999767,,,,,,,,DM_en,001,2025-03-09_13h25.04.282,MainFlow,2024.2.4,144.1643011597393,2025-03-09 13h25.18.390269 +0700,
2,1,2,6,letter/lettth132.png,letter/letten091.png,10,10,0,z,0.27126619999762625,None,0,10,10,10,19.17577510001138,,,,,,,19.17577510001138,20.16461820001132,20.170547600020654,20.170547600020654,20.44923870000639,z,0.27126619999762625,None,20.449299700005213,20.455091600015294,20.637055500003044,20.170547600020654,,,,,,,,DM_en,001,2025-03-09_13h25.04.282,MainFlow,2024.2.4,144.1643011597393,2025-03-09 13h25.18.390269 +0700,
2,2,1,5,letter/letten051.png,letter/lettkh157.png,11,11,0,z,0.8722934999968857,None,0,11,11,11,20.650116700009676,,,,,,,20.650116700009676,21.63773330001277,21.64274470001692,21.64274470001692,22.518240500008687,z,0.8722934999968857,None,22.518327900004806,22.524165800015908,22.705356400023447,21.64274470001692,,,,,,,,DM_en,001,2025-03-09_13h25.04.282,MainFlow,2024.2.4,144.1643011597393,2025-03-09 13h25.18.390269 +0700,
2,3,1,3,letter/letten061.png,letter/lettgr063.png,12,12,0,z,0.6292780000076164,None,0,12,12,12,22.717962399998214,,,,,,,22.717962399998214,23.706210900010774,23.71153630001936,23.71153630001936,24.34458900001482,z,0.6292780000076164,None,24.344720499997493,24.350233000004664,24.531721600011224,23.71153630001936,,,,,,,,DM_en,001,2025-03-09_13h25.04.282,MainFlow,2024.2.4,144.1643011597393,2025-03-09 13h25.18.390269 +0700,
2,2,2,8,letter/lettkh035.png,letter/letten051.png,13,13,0,x,0.3533635000057984,None,0,13,13,13,24.559569300006842,,,,,,,24.559569300006842,25.545248300011735,25.55160910001723,25.55160910001723,25.907099200005177,x,0.3533635000057984,None,25.90722029999597,25.91262960000313,26.093429600005038,,,,,,,,,DM_en,001,2025-03-09_13h25.04.282,MainFlow,2024.2.4,144.1643011597393,2025-03-09 13h25.18.390269 +0700,
2,1,2,3,letter/lettth152.png,letter/letten142.png,14,14,0,x,0.3318887000204995,None,0,14,14,14,26.100446399999782,,,,,,,26.100446399999782,27.087053299997933,27.099880800000392,27.099880800000392,27.434929800016107,x,0.3318887000204995,None,27.435090500017395,27.440006100019673,27.621513599995524,27.092790299997432,,,,,,,,DM_en,001,2025-03-09_13h25.04.282,MainFlow,2024.2.4,144.1643011597393,2025-03-09 13h25.18.390269 +0700,
2,2,2,6,letter/lettkh155.png,letter/letten061.png,15,15,0,x,0.4432232999824919,None,0,15,15,15,27.633084300003247,,,,,,,27.633084300003247,28.62234180001542,28.627418100018986,28.627418100018986,29.07268860001932,x,0.4432232999824919,None,29.072788300021784,29.078563900024164,29.26029180001933,28.627418100018986,,,,,,,,DM_en,001,2025-03-09_13h25.04.282,MainFlow,2024.2.4,144.1643011597393,2025-03-09 13h25.18.390269 +0700,
2,3,1,1,letter/letten021.png,letter/lettgr021.png,16,16,0,z,0.4071418000094127,None,0,16,16,16,29.295812399999704,,,,,,,29.295812399999704,30.273136900010286,30.279580200003693,30.279580200003693,30.69045140000526,z,0.4071418000094127,None,30.690574100008234,30.69624770001974,30.877826300013112,,,,,,,,,DM_en,001,2025-03-09_13h25.04.282,MainFlow,2024.2.4,144.1643011597393,2025-03-09 13h25.18.390269 +0700,
2,3,1,3,letter/letten061.png,letter/lettgr063.png,17,17,0,z,0.42324989999178797,None,0,17,17,17,30.888986300007673,,,,,,,30.888986300007673,31.877616100013256,31.88356830002158,31.88356830002158,32.30847700001323,z,0.42324989999178797,None,32.30857570000808,32.313929399999324,32.49685850000242,31.88356830002158,,,,,,,,DM_en,001,2025-03-09_13h25.04.282,MainFlow,2024.2.4,144.1643011597393,2025-03-09 13h25.18.390269 +0700,
2,2,1,1,letter/letten153.png,letter/lettkh159.png,18,18,0,z,0.44215379998786375,None,0,18,18,18,32.51313430001028,,,,,,,32.51313430001028,33.502102500002366,33.50828760000877,33.50828760000877,33.95505150000099,z,0.44215379998786375,None,33.955269600002794,33.96049840000342,34.14080230001127,33.50828760000877,,,,,,,,DM_en,001,2025-03-09_13h25.04.282,MainFlow,2024.2.4,144.1643011597393,2025-03-09 13h25.18.390269 +0700,
2,1,1,6,letter/letten091.png,letter/lettth132.png,19,19,0,z,0.39280780000262894,None,0,19,19,19,34.15247770000133,,,,,,,34.15247770000133,35.14107380001224,35.14677280001342,35.14677280001342,35.54355810000561,z,0.39280780000262894,None,35.54365430001053,35.54943220000132,35.731217499997,35.14677280001342,,,,,,,,DM_en,001,2025-03-09_13h25.04.282,MainFlow,2024.2.4,144.1643011597393,2025-03-09 13h25.18.390269 +0700,
2,3,2,5,letter/lettgr012.png,letter/letten011.png,20,20,0,x,0.3747607999830507,None,0,20,20,20,35.758056699996814,,,,,,,35.758056699996814,36.74450890001026,36.75085460001719,36.75085460001719,37.127252800011775,x,0.3747607999830507,None,37.12738590000663,37.132549600006314,37.31365500000538,,,,,,,,,DM_en,001,2025-03-09_13h25.04.282,MainFlow,2024.2.4,144.1643011597393,2025-03-09 13h25.18.390269 +0700,
2,1,1,2,letter/letten181.png,letter/lettth142.png,21,21,0,z,0.33822659999714233,None,0,21,21,21,37.32389660002082,,,,,,,37.32389660002082,38.30734990001656,38.320006800000556,38.320006800000556,38.660540500015486,z,0.33822659999714233,None,38.66059929999756,38.66683510001167,38.848664699995425,38.31283160002204,,,,,,,,DM_en,001,2025-03-09_13h25.04.282,MainFlow,2024.2.4,144.1643011597393,2025-03-09 13h25.18.390269 +0700,
2,2,1,5,letter/letten051.png,letter/lettkh157.png,22,22,0,z,0.31283380000968464,None,0,22,22,22,38.8640828000207,,,,,,,38.8640828000207,39.84920820000116,39.854343100014376,39.854343100014376,40.16933840001002,z,0.31283380000968464,None,40.16951060001156,40.17365680000512,40.35485770000378,39.854343100014376,,,,,,,,DM_en,001,2025-03-09_13h25.04.282,MainFlow,2024.2.4,144.1643011597393,2025-03-09 13h25.18.390269 +0700,
2,3,1,4,letter/letten062.png,letter/lettgr063.png,23,23,0,z,0.32109049998689443,None,0,23,23,23,40.366651899996214,,,,,,,40.366651899996214,41.355764000007184,41.36106130000553,41.36106130000553,41.689008500019554,z,0.32109049998689443,None,41.68918169999961,41.69422790000681,41.875440500007244,41.36106130000553,,,,,,,,DM_en,001,2025-03-09_13h25.04.282,MainFlow,2024.2.4,144.1643011597393,2025-03-09 13h25.18.390269 +0700,
2,3,2,3,letter/lettgr063.png,letter/letten061.png,24,24,0,x,0.3262956000107806,None,0,24,24,24,41.90502070001094,,,,,,,41.90502070001094,42.89022960001603,42.89542400001665,42.89542400001665,43.22417980001774,x,0.3262956000107806,None,43.224394799995935,43.230083000002196,43.40972200001124,42.89542400001665,,,,,,,,DM_en,001,2025-03-09_13h25.04.282,MainFlow,2024.2.4,144.1643011597393,2025-03-09 13h25.18.390269 +0700,
2,2,2,5,letter/lettkh157.png,letter/letten051.png,25,25,0,x,0.35398429998895153,None,0,25,25,25,43.437598100019386,,,,,,,43.437598100019386,44.42407400000957,44.42996030001086,44.42996030001086,44.78669280000031,x,0.35398429998895153,None,44.78689840002335,44.7922407000151,44.972815800021635,44.42996030001086,,,,,,,,DM_en,001,2025-03-09_13h25.04.282,MainFlow,2024.2.4,144.1643011597393,2025-03-09 13h25.18.390269 +0700,
2,3,1,5,letter/letten011.png,letter/lettgr012.png,26,26,0,z,0.30772569999680854,None,0,26,26,26,45.00684230000479,,,,,,,45.00684230000479,45.992641200020444,45.99903560001985,45.99903560001985,46.31250090000685,z,0.30772569999680854,None,46.312618199997814,46.31823780000559,46.499405800015666,,,,,,,,,DM_en,001,2025-03-09_13h25.04.282,MainFlow,2024.2.4,144.1643011597393,2025-03-09 13h25.18.390269 +0700,
2,3,1,1,letter/letten021.png,letter/lettgr021.png,27,27,0,z,0.38828330000978895,None,0,27,27,27,46.50985510001192,,,,,,,46.50985510001192,47.494157900015125,47.50556580000557,47.50556580000557,47.896762799995486,z,0.38828330000978895,None,47.89698820002377,47.90250900000683,48.08345880001434,47.4986523000116,,,,,,,,DM_en,001,2025-03-09_13h25.04.282,MainFlow,2024.2.4,144.1643011597393,2025-03-09 13h25.18.390269 +0700,
2,2,1,8,letter/letten051.png,letter/lettkh035.png,28,28,0,z,0.27791989999241196,None,0,28,28,28,48.097416300006444,,,,,,,48.097416300006444,49.083468199998606,49.08876179999788,49.08876179999788,49.367965500016,z,0.27791989999241196,None,49.36809220002033,49.373270200012485,49.55449920002138,49.08876179999788,,,,,,,,DM_en,001,2025-03-09_13h25.04.282,MainFlow,2024.2.4,144.1643011597393,2025-03-09 13h25.18.390269 +0700,
2,3,1,4,letter/letten062.png,letter/lettgr063.png,29,29,0,z,0.3118870999896899,None,0,29,29,29,49.56734200002393,,,,,,,49.56734200002393,50.55457120001665,50.560670200007735,50.560670200007735,50.874327300000004,z,0.3118870999896899,None,50.874451800016686,50.87984670000151,51.0606897000107,50.560670200007735,,,,,,,,DM_en,001,2025-03-09_13h25.04.282,MainFlow,2024.2.4,144.1643011597393,2025-03-09 13h25.18.390269 +0700,
2,1,2,8,letter/lettth022.png,letter/letten131.png,30,30,0,x,0.31501900000148453,None,0,30,30,30,51.067661400011275,,,,,,,51.067661400011275,52.05437660001917,52.06733290001284,52.06733290001284,52.387739099998726,x,0.31501900000148453,None,52.38785880000796,52.3934102000203,52.57443820001208,52.06033220002428,,,,,,,,DM_en,001,2025-03-09_13h25.04.282,MainFlow,2024.2.4,144.1643011597393,2025-03-09 13h25.18.390269 +0700,
2,2,1,1,letter/letten153.png,letter/lettkh159.png,31,31,0,z,0.35743079998064786,None,0,31,31,31,52.583745200012345,,,,,,,52.583745200012345,53.568530899996404,53.580893700011075,53.580893700011075,53.94334830000298,z,0.35743079998064786,None,53.94346820001374,53.94881490000989,54.13016900001094,53.57389700002386,,,,,,,,DM_en,001,2025-03-09_13h25.04.282,MainFlow,2024.2.4,144.1643011597393,2025-03-09 13h25.18.390269 +0700,
2,2,1,4,letter/letten071.png,letter/lettkh055.png,32,32,0,z,0.32960820000153035,None,0,32,32,32,54.153979299997445,,,,,,,54.153979299997445,55.137080700020306,55.14293140001246,55.14293140001246,55.47866970000905,z,0.32960820000153035,None,55.47887300001457,55.48386290000053,55.66426920000231,55.14293140001246,,,,,,,,DM_en,001,2025-03-09_13h25.04.282,MainFlow,2024.2.4,144.1643011597393,2025-03-09 13h25.18.390269 +0700,
2,1,1,5,letter/letten121.png,letter/lettth101.png,33,33,0,z,0.32882900000549853,None,0,33,33,33,55.69255350000458,,,,,,,55.69255350000458,56.67841630001203,56.684355200006394,56.684355200006394,57.01993120001862,z,0.32882900000549853,None,57.019990400003735,57.024460500018904,57.20572530000936,56.684355200006394,,,,,,,,DM_en,001,2025-03-09_13h25.04.282,MainFlow,2024.2.4,144.1643011597393,2025-03-09 13h25.18.390269 +0700,
2,2,2,4,letter/lettkh055.png,letter/letten071.png,34,34,0,x,0.29791880000266246,None,0,34,34,34,57.22633420000784,,,,,,,57.22633420000784,58.21385250001913,58.21908180002356,58.21908180002356,58.51983950001886,x,0.29791880000266246,None,58.52004130001296,58.52532899999642,58.70554700001958,58.21908180002356,,,,,,,,DM_en,001,2025-03-09_13h25.04.282,MainFlow,2024.2.4,144.1643011597393,2025-03-09 13h25.18.390269 +0700,
2,1,1,5,letter/letten121.png,letter/lettth101.png,35,35,0,z,0.31407010002294555,None,0,35,35,35,58.71880620002048,,,,,,,58.71880620002048,59.706417000008514,59.711668000003556,59.711668000003556,60.0324346999987,z,0.31407010002294555,None,60.032589000009466,60.03785180000705,60.21952900002361,59.711668000003556,,,,,,,,DM_en,001,2025-03-09_13h25.04.282,MainFlow,2024.2.4,144.1643011597393,2025-03-09 13h25.18.390269 +0700,
2,2,2,3,letter/lettkh091.png,letter/letten071.png,36,36,0,x,0.2905050000117626,None,0,36,36,36,60.250095900002634,,,,,,,60.250095900002634,61.2329859000165,61.23903220001375,61.23903220001375,61.531641700014006,x,0.2905050000117626,None,61.531741600017995,61.53756340002292,61.71922870000708,,,,,,,,,DM_en,001,2025-03-09_13h25.04.282,MainFlow,2024.2.4,144.1643011597393,2025-03-09 13h25.18.390269 +0700,
2,2,1,6,letter/letten061.png,letter/lettkh155.png,37,37,0,z,0.30464990000473335,None,0,37,37,37,61.73868609999772,,,,,,,61.73868609999772,62.72636520001106,62.73186500000884,62.73186500000884,63.03968050002004,z,0.30464990000473335,None,63.0401106000063,63.04504310002085,63.22550420000334,62.73186500000884,,,,,,,,DM_en,001,2025-03-09_13h25.04.282,MainFlow,2024.2.4,144.1643011597393,2025-03-09 13h25.18.390269 +0700,
2,1,1,4,letter/letten101.png,letter/lettth011.png,38,38,0,z,0.33072709999396466,None,0,38,38,38,63.2485205999983,,,,,,,63.2485205999983,64.23257490000105,64.2384652000037,64.2384652000037,64.57326850001118,z,0.33072709999396466,None,64.5733889999974,64.57861850000336,64.76001160001033,64.2384652000037,,,,,,,,DM_en,001,2025-03-09_13h25.04.282,MainFlow,2024.2.4,144.1643011597393,2025-03-09 13h25.18.390269 +0700,
2,3,2,4,letter/lettgr063.png,letter/letten062.png,39,39,0,x,0.2868716999946628,None,0,39,39,39,64.77052150000236,,,,,,,64.77052150000236,65.76065300000482,65.76621590001741,65.76621590001741,66.05972190000466,x,0.2868716999946628,None,66.0598972000007,66.06458960002055,66.24571670001023,65.76621590001741,,,,,,,,DM_en,001,2025-03-09_13h25.04.282,MainFlow,2024.2.4,144.1643011597393,2025-03-09 13h25.18.390269 +0700,
2,3,1,2,letter/letten061.png,letter/lettgr061.png,40,40,0,z,0.33004229998914525,None,0,40,40,40,66.25768900002004,,,,,,,66.25768900002004,67.24693130000378,67.25182500001392,67.25182500001392,67.5866834000044,z,0.33004229998914525,None,67.5868516000046,67.59199440001976,67.77271030002157,67.25182500001392,,,,,,,,DM_en,001,2025-03-09_13h25.04.282,MainFlow,2024.2.4,144.1643011597393,2025-03-09 13h25.18.390269 +0700,
2,2,2,7,letter/lettkh083.png,letter/letten112.png,41,41,0,x,0.29150759999174625,None,0,41,41,41,67.78643040001043,,,,,,,67.78643040001043,68.7735748999985,68.77920980000636,68.77920980000636,69.0728739000042,x,0.29150759999174625,None,69.07303260001936,69.07786690001376,69.25972900001216,68.77920980000636,,,,,,,,DM_en,001,2025-03-09_13h25.04.282,MainFlow,2024.2.4,144.1643011597393,2025-03-09 13h25.18.390269 +0700,
2,1,2,2,letter/lettth142.png,letter/letten181.png,42,42,0,x,0.03756639998755418,None,0,42,42,42,69.2728031000006,,,,,,,69.2728031000006,70.26022300001932,70.26513210000121,70.26513210000121,70.30766200000653,x,0.03756639998755418,None,70.30776210001204,70.31356330000563,70.49528850000934,70.26513210000121,,,,,,,,DM_en,001,2025-03-09_13h25.04.282,MainFlow,2024.2.4,144.1643011597393,2025-03-09 13h25.18.390269 +0700,
2,2,1,7,letter/letten112.png,letter/lettkh083.png,43,43,0,z,0.9095639000006486,None,0,43,43,43,70.50675100000808,,,,,,,70.50675100000808,71.4959058999957,71.501442400011,71.501442400011,72.41835570000694,z,0.9095639000006486,None,72.41848069999833,72.42427310001221,72.60547570002382,71.501442400011,,,,,,,,DM_en,001,2025-03-09_13h25.04.282,MainFlow,2024.2.4,144.1643011597393,2025-03-09 13h25.18.390269 +0700,
2,2,2,3,letter/lettkh091.png,letter/letten071.png,44,44,0,x,0.2652428000001237,None,0,44,44,44,72.61803830001736,,,,,,,72.61803830001736,73.60691940001561,73.61173350000172,73.61173350000172,73.88354900002014,x,0.2652428000001237,None,73.88364970000111,73.88938590002363,74.07070360000944,73.61173350000172,,,,,,,,DM_en,001,2025-03-09_13h25.04.282,MainFlow,2024.2.4,144.1643011597393,2025-03-09 13h25.18.390269 +0700,
2,2,2,5,letter/lettkh157.png,letter/letten051.png,45,45,0,x,0.32729630000540055,None,0,45,45,45,74.08281849999912,,,,,,,74.08281849999912,75.07165120000718,75.07664010001463,75.07664010001463,75.41127890002099,x,0.32729630000540055,None,75.41157220001332,75.41666940000141,75.598593600007,75.07664010001463,,,,,,,,DM_en,001,2025-03-09_13h25.04.282,MainFlow,2024.2.4,144.1643011597393,2025-03-09 13h25.18.390269 +0700,
2,1,2,3,letter/lettth152.png,letter/letten142.png,46,46,0,x,0.24456869999994524,None,0,46,46,46,75.61688190000132,,,,,,,75.61688190000132,76.60650250001345,76.61129170001368,76.61129170001368,76.86216930000228,x,0.24456869999994524,None,76.86222750000888,76.8677949999983,77.04969790001633,76.61129170001368,,,,,,,,DM_en,001,2025-03-09_13h25.04.282,MainFlow,2024.2.4,144.1643011597393,2025-03-09 13h25.18.390269 +0700,
2,2,2,2,letter/lettkh013.png,letter/letten121.png,47,47,0,x,0.33630639998591505,None,0,47,47,47,77.09073130000615,,,,,,,77.09073130000615,78.06289820000529,78.06922470001155,78.06922470001155,78.41051010001684,x,0.33630639998591505,None,78.41063510000822,78.41620520001743,78.59780680001131,,,,,,,,,DM_en,001,2025-03-09_13h25.04.282,MainFlow,2024.2.4,144.1643011597393,2025-03-09 13h25.18.390269 +0700,
2,1,2,6,letter/lettth132.png,letter/letten091.png,48,48,0,x,0.2890207000018563,None,0,48,48,48,78.6104402000201,,,,,,,78.6104402000201,79.59749780001584,79.60346460001892,79.60346460001892,79.89628830002039,x,0.2890207000018563,None,79.89640789999976,79.90197840001201,80.08319870001287,79.60346460001892,,,,,,,,DM_en,001,2025-03-09_13h25.04.282,MainFlow,2024.2.4,144.1643011597393,2025-03-09 13h25.18.390269 +0700,
2,1,2,1,letter/lettth022.png,letter/letten041.png,49,49,0,x,0.3573853000125382,None,0,49,49,49,80.09512420001556,,,,,,,80.09512420001556,81.08369240001775,81.08924640002078,81.08924640002078,81.45169440002064,x,0.3573853000125382,None,81.45182119999663,81.45735420001438,81.63835380002274,81.08924640002078,,,,,,,,DM_en,001,2025-03-09_13h25.04.282,MainFlow,2024.2.4,144.1643011597393,2025-03-09 13h25.18.390269 +0700,
2,1,1,3,letter/letten142.png,letter/lettth152.png,50,50,0,z,0.3137781000114046,None,0,50,50,50,81.6618659000087,,,,,,,81.6618659000087,82.64593140000943,82.6516051000217,82.6516051000217,82.97148850001395,z,0.3137781000114046,None,82.97154790000059,82.97775849999744,83.159547999996,82.6516051000217,,,,,,,,DM_en,001,2025-03-09_13h25.04.282,MainFlow,2024.2.4,144.1643011597393,2025-03-09 13h25.18.390269 +0700,
2,1,2,8,letter/lettth022.png,letter/letten131.png,51,51,0,x,0.24669379999977536,None,0,51,51,51,83.18125600001076,,,,,,,83.18125600001076,84.1665548000019,84.17209239999647,84.17209239999647,84.42252220000955,x,0.24669379999977536,None,84.42258490002132,84.42887830000836,84.6103160000057,84.17209239999647,,,,,,,,DM_en,001,2025-03-09_13h25.04.282,MainFlow,2024.2.4,144.1643011597393,2025-03-09 13h25.18.390269 +0700,
2,2,1,2,letter/letten121.png,letter/lettkh013.png,52,52,0,z,0.2913567000068724,None,0,52,52,52,84.62264340001275,,,,,,,84.62264340001275,85.61159060001955,85.61633730001631,85.61633730001631,85.9093286000134,z,0.2913567000068724,None,85.90945310000097,85.91487269999925,86.09631650001393,85.61633730001631,,,,,,,,DM_en,001,2025-03-09_13h25.04.282,MainFlow,2024.2.4,144.1643011597393,2025-03-09 13h25.18.390269 +0700,
2,3,1,2,letter/letten061.png,letter/lettgr061.png,53,53,0,z,0.3538170999963768,None,0,53,53,53,86.10922230000142,,,,,,,86.10922230000142,87.09709399999701,87.102206200012,87.102206200012,87.4587725000165,z,0.3538170999963768,None,87.45899040001677,87.46451320001506,87.64491170001565,87.102206200012,,,,,,,,DM_en,001,2025-03-09_13h25.04.282,MainFlow,2024.2.4,144.1643011597393,2025-03-09 13h25.18.390269 +0700,
2,2,2,1,letter/lettkh159.png,letter/letten153.png,54,54,0,x,0.3227224000147544,None,0,54,54,54,87.67866960001993,,,,,,,87.67866960001993,88.66515650000656,88.6710934000148,88.6710934000148,88.99882609999622,x,0.3227224000147544,None,88.99895950002247,89.00447670000722,89.18627710000146,,,,,,,,,DM_en,001,2025-03-09_13h25.04.282,MainFlow,2024.2.4,144.1643011597393,2025-03-09 13h25.18.390269 +0700,
2,1,1,4,letter/letten101.png,letter/lettth011.png,55,55,0,z,0.34354100000928156,None,0,55,55,55,89.20301110000582,,,,,,,89.20301110000582,90.1867308000219,90.19188779999968,90.19188779999968,90.53960690001259,z,0.34354100000928156,None,90.53968620000524,90.54573430001619,90.72698550001951,90.19188779999968,,,,,,,,DM_en,001,2025-03-09_13h25.04.282,MainFlow,2024.2.4,144.1643011597393,2025-03-09 13h25.18.390269 +0700,
2,3,1,8,letter/letten152.png,letter/lettgr152.png,56,56,0,z,0.34665630001109093,None,0,56,56,56,90.75681079999777,,,,,,,90.75681079999777,91.74081250000745,91.74704300001031,91.74704300001031,92.09575070001301,z,0.34665630001109093,None,92.09589550000965,92.10106360001373,92.28283460001694,,,,,,,,,DM_en,001,2025-03-09_13h25.04.282,MainFlow,2024.2.4,144.1643011597393,2025-03-09 13h25.18.390269 +0700,
2,3,2,1,letter/lettgr021.png,letter/letten021.png,57,57,0,x,0.35768210000242107,None,0,57,57,57,92.31960740001523,,,,,,,92.31960740001523,93.29628730000695,93.30255110000144,93.30255110000144,93.6655468000099,x,0.35768210000242107,None,93.6657688000123,93.67205650001415,93.85218290000921,,,,,,,,,DM_en,001,2025-03-09_13h25.04.282,MainFlow,2024.2.4,144.1643011597393,2025-03-09 13h25.18.390269 +0700,
2,1,2,7,letter/lettth132.png,letter/letten062.png,58,58,0,x,0.2132726999989245,None,0,58,58,58,93.87308089999715,,,,,,,93.87308089999715,94.85866500000702,94.86448889999883,94.86448889999883,95.08106480000424,x,0.2132726999989245,None,95.08119369999622,95.08656389999669,95.2678674000199,94.86448889999883,,,,,,,,DM_en,001,2025-03-09_13h25.04.282,MainFlow,2024.2.4,144.1643011597393,2025-03-09 13h25.18.390269 +0700,
2,3,2,2,letter/lettgr061.png,letter/letten061.png,59,59,0,x,0.32045829997514375,None,0,59,59,59,95.27949730001274,,,,,,,95.27949730001274,96.26815060002264,96.27391340001486,96.27391340001486,96.60176640001009,x,0.32045829997514375,None,96.60192320001079,96.60712600001716,96.7897582000005,96.27391340001486,,,,,,,,DM_en,001,2025-03-09_13h25.04.282,MainFlow,2024.2.4,144.1643011597393,2025-03-09 13h25.18.390269 +0700,
2,2,2,4,letter/lettkh055.png,letter/letten071.png,60,60,0,x,0.5248550999967847,None,0,60,60,60,96.80956670001615,,,,,,,96.80956670001615,97.79668490000768,97.8016792999988,97.8016792999988,98.33062079999945,x,0.5248550999967847,None,98.33077460000641,98.33603520001634,98.51785120001296,97.8016792999988,,,,,,,,DM_en,001,2025-03-09_13h25.04.282,MainFlow,2024.2.4,144.1643011597393,2025-03-09 13h25.18.390269 +0700,
2,1,2,5,letter/lettth101.png,letter/letten121.png,61,61,0,x,0.26315579999936745,None,0,61,61,61,98.55506320000859,,,,,,,98.55506320000859,99.53097310001613,99.53722500000731,99.53722500000731,99.80234510000446,x,0.26315579999936745,None,99.8024785000016,99.80795310001122,99.98929100000532,,,,,,,,,DM_en,001,2025-03-09_13h25.04.282,MainFlow,2024.2.4,144.1643011597393,2025-03-09 13h25.18.390269 +0700,
2,3,1,8,letter/letten152.png,letter/lettgr152.png,62,62,0,z,0.28955129999667406,None,0,62,62,62,100.00078880001092,,,,,,,100.00078880001092,100.98931620002259,100.99521049999748,100.99521049999748,101.28781670000171,z,0.28955129999667406,None,101.28792430000613,101.29376100000809,101.4760743000079,100.99521049999748,,,,,,,,DM_en,001,2025-03-09_13h25.04.282,MainFlow,2024.2.4,144.1643011597393,2025-03-09 13h25.18.390269 +0700,
2,1,2,5,letter/lettth101.png,letter/letten121.png,63,63,0,x,0.16346329997759312,None,0,63,63,63,101.49063270000624,,,,,,,101.49063270000624,102.4762034000014,102.48111010002322,102.48111010002322,102.64872920000926,x,0.16346329997759312,None,102.64885779999895,102.6545445000229,102.83629890001612,102.48111010002322,,,,,,,,DM_en,001,2025-03-09_13h25.04.282,MainFlow,2024.2.4,144.1643011597393,2025-03-09 13h25.18.390269 +0700,
2,3,2,8,letter/lettgr152.png,letter/letten152.png,64,64,0,x,0.31247950001852587,None,0,64,64,64,102.86994620002224,,,,,,,102.86994620002224,103.84940100001404,103.85576710000169,103.85576710000169,104.17118430000846,x,0.31247950001852587,None,104.17147470000782,104.17647150001721,104.3577378000191,,,,,,,,,DM_en,001,2025-03-09_13h25.04.282,MainFlow,2024.2.4,144.1643011597393,2025-03-09 13h25.18.390269 +0700,
2,2,1,2,letter/letten121.png,letter/lettkh013.png,65,65,0,z,0.3198434999794699,None,0,65,65,65,104.37819800002035,,,,,,,104.37819800002035,105.36313820001669,105.36933230000432,105.36933230000432,105.69192730000941,z,0.3198434999794699,None,105.69214690002264,105.69643130002078,105.87726320000365,105.36933230000432,,,,,,,,DM_en,001,2025-03-09_13h25.04.282,MainFlow,2024.2.4,144.1643011597393,2025-03-09 13h25.18.390269 +0700,
2,3,1,5,letter/letten011.png,letter/lettgr012.png,66,66,0,z,0.38631339999847114,None,0,66,66,66,105.89124280001852,,,,,,,105.89124280001852,106.87742340000113,106.88297200002125,106.88297200002125,107.27291200001491,z,0.38631339999847114,None,107.27303910002229,107.27869490001467,107.46057560000918,106.88297200002125,,,,,,,,DM_en,001,2025-03-09_13h25.04.282,MainFlow,2024.2.4,144.1643011597393,2025-03-09 13h25.18.390269 +0700,
2,2,1,3,letter/letten071.png,letter/lettkh091.png,67,67,0,z,0.4687584000057541,None,0,67,67,67,107.47460250000586,,,,,,,107.47460250000586,108.46000049999566,108.46593960002065,108.46593960002065,108.93965370001388,z,0.4687584000057541,None,108.93981189999613,108.94507490002434,109.12693530000979,108.46593960002065,,,,,,,,DM_en,001,2025-03-09_13h25.04.282,MainFlow,2024.2.4,144.1643011597393,2025-03-09 13h25.18.390269 +0700,
2,1,1,8,letter/letten131.png,letter/lettth022.png,68,68,0,z,0.2510760000150185,None,0,68,68,68,109.16363500000443,,,,,,,109.16363500000443,110.14070800002082,110.14629490001244,110.14629490001244,110.40411760000279,z,0.2510760000150185,None,110.4042260000133,110.41001350001898,110.59123230000841,,,,,,,,,DM_en,001,2025-03-09_13h25.04.282,MainFlow,2024.2.4,144.1643011597393,2025-03-09 13h25.18.390269 +0700,
2,3,2,4,letter/lettgr063.png,letter/letten062.png,69,69,0,x,0.26761520002037287,None,0,69,69,69,110.60356899999897,,,,,,,110.60356899999897,111.59155060001649,111.59738859999925,111.59738859999925,111.86913490001461,x,0.26761520002037287,None,111.86924240001827,111.87500990001718,112.05606490001082,111.59738859999925,,,,,,,,DM_en,001,2025-03-09_13h25.04.282,MainFlow,2024.2.4,144.1643011597393,2025-03-09 13h25.18.390269 +0700,
2,1,1,6,letter/letten091.png,letter/lettth132.png,70,70,0,z,0.3533039000176359,None,0,70,70,70,112.0646653000149,,,,,,,112.0646653000149,113.04966160000185,113.06256819999544,113.06256819999544,113.4189910000132,z,0.3533039000176359,None,113.41920490001212,113.42413630001829,113.60429280000972,113.05561760001001,,,,,,,,DM_en,001,2025-03-09_13h25.04.282,MainFlow,2024.2.4,144.1643011597393,2025-03-09 13h25.18.390269 +0700,
2,3,2,3,letter/lettgr063.png,letter/letten061.png,71,71,0,x,0.27250270001241006,None,0,71,71,71,113.61125460002222,,,,,,,113.61125460002222,114.59795510000549,114.61066950001987,114.61066950001987,114.89099820001866,x,0.27250270001241006,None,114.89122020002105,114.8953434000141,115.07666950000566,114.60365030000685,,,,,,,,DM_en,001,2025-03-09_13h25.04.282,MainFlow,2024.2.4,144.1643011597393,2025-03-09 13h25.18.390269 +0700,
2,3,2,6,letter/lettgr066.png,letter/letten061.png,72,72,0,x,0.40418290000525303,None,0,72,72,72,115.10192760001519,,,,,,,115.10192760001519,116.0913146000239,116.09663020001608,116.09663020001608,116.507042000012,x,0.40418290000525303,None,116.50710479999543,116.51291489999858,116.69443100001081,116.09663020001608,,,,,,,,DM_en,001,2025-03-09_13h25.04.282,MainFlow,2024.2.4,144.1643011597393,2025-03-09 13h25.18.390269 +0700,
2,3,2,7,letter/lettgr065.png,letter/letten062.png,73,73,0,x,0.2942728000052739,None,0,73,73,73,116.72970570001053,,,,,,,116.72970570001053,117.70818110002438,117.71430340001825,117.71430340001825,118.01374970001052,x,0.2942728000052739,None,118.01383510002051,118.01978760000202,118.20121389999986,,,,,,,,,DM_en,001,2025-03-09_13h25.04.282,MainFlow,2024.2.4,144.1643011597393,2025-03-09 13h25.18.390269 +0700,
2,2,2,2,letter/lettkh013.png,letter/letten121.png,74,74,0,x,0.1564310999820009,None,0,74,74,74,118.21327970002312,,,,,,,118.21327970002312,119.20111480000196,119.20693340001162,119.20693340001162,119.36893970001256,x,0.1564310999820009,None,119.36906970001291,119.3735752000066,119.55484090000391,119.20693340001162,,,,,,,,DM_en,001,2025-03-09_13h25.04.282,MainFlow,2024.2.4,144.1643011597393,2025-03-09 13h25.18.390269 +0700,
2,3,2,7,letter/lettgr065.png,letter/letten062.png,75,75,0,x,0.02135279998765327,None,0,75,75,75,119.56613469999866,,,,,,,119.56613469999866,120.55582599999616,120.56110110000009,120.56110110000009,120.58932400000049,x,0.02135279998765327,None,120.58938130000024,120.59549649999826,120.77674729999853,120.56110110000009,,,,,,,,DM_en,001,2025-03-09_13h25.04.282,MainFlow,2024.2.4,144.1643011597393,2025-03-09 13h25.18.390269 +0700,
2,2,2,7,letter/lettkh083.png,letter/letten112.png,76,76,0,x,0.09923520000302233,None,0,76,76,76,120.78850809999858,,,,,,,120.78850809999858,121.77725340001052,121.78300710002077,121.78300710002077,121.88853110000491,x,0.09923520000302233,None,121.88865259999875,121.89412540002377,122.07557960000122,121.78300710002077,,,,,,,,DM_en,001,2025-03-09_13h25.04.282,MainFlow,2024.2.4,144.1643011597393,2025-03-09 13h25.18.390269 +0700,
2,3,2,8,letter/lettgr152.png,letter/letten152.png,77,77,0,x,0.27739129998371936,None,0,77,77,77,122.09098930002074,,,,,,,122.09098930002074,123.07558490001247,123.08127380002406,123.08127380002406,123.36036340001738,x,0.27739129998371936,None,123.3604983999976,123.36585180001566,123.54835520000779,123.08127380002406,,,,,,,,DM_en,001,2025-03-09_13h25.04.282,MainFlow,2024.2.4,144.1643011597393,2025-03-09 13h25.18.390269 +0700,
2,1,2,4,letter/lettth011.png,letter/letten101.png,78,78,0,x,0.2873869999893941,None,0,78,78,78,123.58463340002345,,,,,,,123.58463340002345,124.56074070002069,124.56703920001746,124.56703920001746,124.85912060001283,x,0.2873869999893941,None,124.85918160001165,124.86550600000191,125.04735150001943,,,,,,,,,DM_en,001,2025-03-09_13h25.04.282,MainFlow,2024.2.4,144.1643011597393,2025-03-09 13h25.18.390269 +0700,
2,3,2,1,letter/lettgr021.png,letter/letten021.png,79,79,0,x,0.2719049000006635,None,0,79,79,79,125.06825569999637,,,,,,,125.06825569999637,126.0543483000074,126.05996949999826,126.05996949999826,126.33893700002227,x,0.2719049000006635,None,126.33899620000739,126.34432329999981,126.52556340000592,126.05996949999826,,,,,,,,DM_en,001,2025-03-09_13h25.04.282,MainFlow,2024.2.4,144.1643011597393,2025-03-09 13h25.18.390269 +0700,
2,3,2,6,letter/lettgr066.png,letter/letten061.png,80,80,0,x,0.27085930001339875,None,0,80,80,80,126.53749460002291,,,,,,,126.53749460002291,127.5268025000114,127.53192730000592,127.53192730000592,127.80417499999749,x,0.27085930001339875,None,127.80429790000198,127.80940550001105,127.99126680000336,127.53192730000592,,,,,,,,DM_en,001,2025-03-09_13h25.04.282,MainFlow,2024.2.4,144.1643011597393,2025-03-09 13h25.18.390269 +0700,
2,1,2,7,letter/lettth132.png,letter/letten062.png,81,81,0,x,0.23638869999558665,None,0,81,81,81,128.0073442000139,,,,,,,128.0073442000139,128.99184640002204,128.9970816000132,128.9970816000132,129.23572050000075,x,0.23638869999558665,None,129.2359261000238,129.24044660001528,129.4210140000214,128.9970816000132,,,,,,,,DM_en,001,2025-03-09_13h25.04.282,MainFlow,2024.2.4,144.1643011597393,2025-03-09 13h25.18.390269 +0700,
2,2,1,4,letter/letten071.png,letter/lettkh055.png,82,82,0,z,1.58156640001107,None,0,82,82,82,129.43165060001775,,,,,,,129.43165060001775,130.4208626000036,130.42702709999867,130.42702709999867,132.01124600000912,z,1.58156640001107,None,132.0113545000204,132.01694590001716,132.19872710001073,130.42702709999867,,,,,,,,DM_en,001,2025-03-09_13h25.04.282,MainFlow,2024.2.4,144.1643011597393,2025-03-09 13h25.18.390269 +0700,
2,1,2,4,letter/lettth011.png,letter/letten101.png,83,83,0,x,1.5694229999789968,None,0,83,83,83,132.21788880001986,,,,,,,132.21788880001986,133.2054913000029,133.21134490001714,133.21134490001714,134.78870460001053,x,1.5694229999789968,None,134.7887663000147,134.79409090001718,134.97611990000587,133.21134490001714,,,,,,,,DM_en,001,2025-03-09_13h25.04.282,MainFlow,2024.2.4,144.1643011597393,2025-03-09 13h25.18.390269 +0700,
2,1,1,7,letter/letten062.png,letter/lettth132.png,84,84,0,z,0.41814600001089275,None,0,84,84,84,134.993191400019,,,,,,,134.993191400019,135.98355130001437,135.9885978999955,135.9885978999955,136.41306620000978,z,0.41814600001089275,None,136.41316399999778,136.41879300001892,136.6013135999965,135.9885978999955,,,,,,,,DM_en,001,2025-03-09_13h25.04.282,MainFlow,2024.2.4,144.1643011597393,2025-03-09 13h25.18.390269 +0700,
2,1,1,1,letter/letten041.png,letter/lettth022.png,85,85,0,z,0.39761580000049435,None,0,85,85,85,136.61771410002257,,,,,,,136.61771410002257,137.6080211000226,137.6132923999976,137.6132923999976,138.01758320000954,z,0.39761580000049435,None,138.01770610001404,138.02282189999823,138.20413910000934,137.6132923999976,,,,,,,,DM_en,001,2025-03-09_13h25.04.282,MainFlow,2024.2.4,144.1643011597393,2025-03-09 13h25.18.390269 +0700,
2,1,1,7,letter/letten062.png,letter/lettth132.png,86,86,0,z,0.3749396000057459,None,0,86,86,86,138.2163109999965,,,,,,,138.2163109999965,139.20503720000852,139.21026990000973,139.21026990000973,139.58693820002372,z,0.3749396000057459,None,139.58709690000978,139.5919464000035,139.77365790001932,139.21026990000973,,,,,,,,DM_en,001,2025-03-09_13h25.04.282,MainFlow,2024.2.4,144.1643011597393,2025-03-09 13h25.18.390269 +0700,
2,3,1,6,letter/letten061.png,letter/lettgr066.png,87,87,0,z,0.47700639997492544,None,0,87,87,87,139.78924140002346,,,,,,,139.78924140002346,140.77359460000298,140.77923490002286,140.77923490002286,141.2605110000004,z,0.47700639997492544,None,141.26073020001058,141.26529310000478,141.446781000006,140.77923490002286,,,,,,,,DM_en,001,2025-03-09_13h25.04.282,MainFlow,2024.2.4,144.1643011597393,2025-03-09 13h25.18.390269 +0700,
2,1,1,3,letter/letten142.png,letter/lettth152.png,88,88,0,z,0.2933396000007633,None,0,88,88,88,141.46036110000568,,,,,,,141.46036110000568,142.4478123000008,142.45265500000096,142.45265500000096,142.75297520001186,z,0.2933396000007633,None,142.75303520000307,142.75789850001456,142.93882930002292,142.45265500000096,,,,,,,,DM_en,001,2025-03-09_13h25.04.282,MainFlow,2024.2.4,144.1643011597393,2025-03-09 13h25.18.390269 +0700,
2,3,2,5,letter/lettgr012.png,letter/letten011.png,89,89,0,x,0.2506763999990653,None,0,89,89,89,142.94574620001367,,,,,,,142.94574620001367,143.93347650000942,143.94527130000643,143.94527130000643,144.20325270001194,x,0.2506763999990653,None,144.20338430002448,144.20901340001728,144.3902015000058,143.93838930001948,,,,,,,,DM_en,001,2025-03-09_13h25.04.282,MainFlow,2024.2.4,144.1643011597393,2025-03-09 13h25.18.390269 +0700,
2,2,2,8,letter/lettkh035.png,letter/letten051.png,90,90,0,x,0.2900057999941055,None,0,90,90,90,144.4019546000054,,,,,,,144.4019546000054,145.39052060001995,145.39644199999748,145.39644199999748,145.6905812000041,x,0.2900057999941055,None,145.69080170002417,145.69553389999783,145.8764807000116,145.39644199999748,,,,,,,,DM_en,001,2025-03-09_13h25.04.282,MainFlow,2024.2.4,144.1643011597393,2025-03-09 13h25.18.390269 +0700,
2,1,1,8,letter/letten131.png,letter/lettth022.png,91,91,0,z,0.3048172000271734,None,0,91,91,91,145.88745730000664,,,,,,,145.88745730000664,146.87637549999636,146.8822160999989,146.8822160999989,147.188885200012,z,0.3048172000271734,None,147.189014100004,147.19455460002064,147.37566660001175,146.8822160999989,,,,,,,,DM_en,001,2025-03-09_13h25.04.282,MainFlow,2024.2.4,144.1643011597393,2025-03-09 13h25.18.390269 +0700,
2,1,2,1,letter/lettth022.png,letter/letten041.png,92,92,0,x,0.23598309999215417,None,0,92,92,92,147.3868339000037,,,,,,,147.3868339000037,148.37687210002332,148.38208760000998,148.38208760000998,148.6193362000049,x,0.23598309999215417,None,148.61943859999883,148.6250691000023,148.80663720000302,148.38208760000998,,,,,,,,DM_en,001,2025-03-09_13h25.04.282,MainFlow,2024.2.4,144.1643011597393,2025-03-09 13h25.18.390269 +0700,
2,3,1,7,letter/letten062.png,letter/lettgr065.png,93,93,0,z,0.23933199999737553,None,0,93,93,93,148.81823720000102,,,,,,,148.81823720000102,149.80687180001405,149.81232340002316,149.81232340002316,150.05745940000634,z,0.23933199999737553,None,150.05760840000585,150.06231639999896,150.24412960000336,149.81232340002316,,,,,,,,DM_en,001,2025-03-09_13h25.04.282,MainFlow,2024.2.4,144.1643011597393,2025-03-09 13h25.18.390269 +0700,
2,2,1,3,letter/letten071.png,letter/lettkh091.png,94,94,0,z,0.3060356999922078,None,0,94,94,94,150.25894940001308,,,,,,,150.25894940001308,151.24324630000046,151.2495245000173,151.2495245000173,151.56352650001645,z,0.3060356999922078,None,151.5637054000108,151.56882980000228,151.75073690002318,151.2495245000173,,,,,,,,DM_en,001,2025-03-09_13h25.04.282,MainFlow,2024.2.4,144.1643011597393,2025-03-09 13h25.18.390269 +0700,
2,2,2,1,letter/lettkh159.png,letter/letten153.png,95,95,0,x,0.29248720000032336,None,0,95,95,95,151.76991630002158,,,,,,,151.76991630002158,152.7577046000224,152.7631322000234,152.7631322000234,153.06255060000694,x,0.29248720000032336,None,153.06267010001466,153.06846100001712,153.24994860001607,152.7631322000234,,,,,,,,DM_en,001,2025-03-09_13h25.04.282,MainFlow,2024.2.4,144.1643011597393,2025-03-09 13h25.18.390269 +0700,
,,,,,,,,,,,,,,,,,,,,,,,,,,,,,,,,,,,153.25012330000754,153.25607699999819,153.25607699999819,158.02720240000053,space,4.765577000012854,None,DM_en,001,2025-03-09_13h25.04.282,MainFlow,2024.2.4,144.1643011597393,2025-03-09 13h25.18.390269 +0700,
