lang,langpair,sequence,pairid,firstdir,seconddir,thisN,thisTrialN,thisRepN,key_resp.keys,key_resp.rt,key_resp.duration,trials.thisRepN,trials.thisTrialN,trials.thisN,trials.thisIndex,thisRow.t,notes,tutorial.started,tutorial.stopped,key_instruct.keys,key_instruct.rt,key_instruct.duration,image_first.started,letterselect.started,instruct.started,key_resp.started,letterselect.stopped,trials.key_resp.keys,trials.key_resp.rt,trials.key_resp.duration,blanknext.started,instruct_2.started,blanknext.stopped,image_first.stopped,ending.started,text_3.started,ending_key.started,ending.stopped,ending_key.keys,ending_key.rt,ending_key.duration,participant,session,date,expName,psychopyVersion,frameRate,expStart,
,,,,,,,,,,,,,,,,,,0.006648399998084642,30.747543199991924,space,30.699382100006915,None,,,,,,,,,,,,,,,,,,,,KN_th,001,2025-03-11_23h05.46.440,MainFlow,2024.2.4,138.9869518929748,2025-03-11 23h06.09.458149 +0700,
1,1,2,1,letter/letten092.png,letter/lettth022.png,0,0,0,x,2.794439899997087,None,0,0,0,0,30.835743799994816,,,,,,,30.835743799994816,31.766203399994993,31.770764400003827,31.770764400003827,34.5678862999921,x,2.794439899997087,None,34.57519339999999,34.58107669999299,34.754982800004655,,,,,,,,,KN_th,001,2025-03-11_23h05.46.440,MainFlow,2024.2.4,138.9869518929748,2025-03-11 23h06.09.458149 +0700,
1,3,2,8,letter/lettgr153.png,letter/lettth013.png,1,1,0,x,0.43497930000012275,None,0,1,1,1,34.78658070000529,,,,,,,34.78658070000529,35.76851660000102,35.77479379999568,35.77479379999568,36.21360089999507,x,0.43497930000012275,None,36.213783400002285,36.21889000000374,36.39991179999197,,,,,,,,,KN_th,001,2025-03-11_23h05.46.440,MainFlow,2024.2.4,138.9869518929748,2025-03-11 23h06.09.458149 +0700,
1,1,2,1,letter/letten092.png,letter/lettth022.png,2,2,0,x,0.32078619999811053,None,0,2,2,2,36.41141939999943,,,,,,,36.41141939999943,37.40089639999496,37.40617459999339,37.40617459999339,37.73500359999889,x,0.32078619999811053,None,37.73522469999443,37.73978899999929,37.92037999999593,37.40617459999339,,,,,,,,KN_th,001,2025-03-11_23h05.46.440,MainFlow,2024.2.4,138.9869518929748,2025-03-11 23h06.09.458149 +0700,
1,2,2,4,letter/lettkh034.png,letter/lettth153.png,3,3,0,x,0.33270440000342205,None,0,3,3,3,37.94050199999765,,,,,,,37.94050199999765,38.92873139999574,38.93382599999313,38.93382599999313,39.26821059999929,x,0.33270440000342205,None,39.268342700001085,39.27389559999574,39.455167399995844,38.93382599999313,,,,,,,,KN_th,001,2025-03-11_23h05.46.440,MainFlow,2024.2.4,138.9869518929748,2025-03-11 23h06.09.458149 +0700,
1,2,2,4,letter/lettkh034.png,letter/lettth153.png,4,4,0,x,0.23161259999324102,None,0,4,4,4,39.46971580000536,,,,,,,39.46971580000536,40.45579710000311,40.46116520000214,40.46116520000214,40.69885909999721,x,0.23161259999324102,None,40.69902240000374,40.704025999992155,40.88527099999192,40.46116520000214,,,,,,,,KN_th,001,2025-03-11_23h05.46.440,MainFlow,2024.2.4,138.9869518929748,2025-03-11 23h06.09.458149 +0700,
1,2,1,7,letter/lettth072.png,letter/lettkh033.png,5,5,0,z,0.1947649000067031,None,0,5,5,5,40.916190999996616,,,,,,,40.916190999996616,41.900011599995196,41.905341599995154,41.905341599995154,42.10223319999932,z,0.1947649000067031,None,42.10246470000129,42.10752799999318,42.28836649999721,41.905341599995154,,,,,,,,KN_th,001,2025-03-11_23h05.46.440,MainFlow,2024.2.4,138.9869518929748,2025-03-11 23h06.09.458149 +0700,
1,2,1,2,letter/lettth032.png,letter/lettkh032.png,6,6,0,z,0.2002957999939099,None,0,6,6,6,42.322402499994496,,,,,,,42.322402499994496,43.308615699992515,43.31488540000282,43.31488540000282,43.51738889999979,z,0.2002957999939099,None,43.51751340000192,43.523033100005705,43.704878499993356,,,,,,,,,KN_th,001,2025-03-11_23h05.46.440,MainFlow,2024.2.4,138.9869518929748,2025-03-11 23h06.09.458149 +0700,
1,3,1,4,letter/lettth024.png,letter/lettgr064.png,7,7,0,z,0.19945559999905527,None,0,7,7,7,43.73701899999287,,,,,,,43.73701899999287,44.71806189999916,44.72425299999304,44.72425299999304,44.927847400002065,z,0.19945559999905527,None,44.9280679999938,44.933157499996014,45.11375780000526,,,,,,,,,KN_th,001,2025-03-11_23h05.46.440,MainFlow,2024.2.4,138.9869518929748,2025-03-11 23h06.09.458149 +0700,
1,2,1,5,letter/lettth024.png,letter/lettkh023.png,8,8,0,z,0.1792838999972446,None,0,8,8,8,45.12626249999448,,,,,,,45.12626249999448,46.113449800002854,46.11954679999326,46.11954679999326,46.3017453999928,z,0.1792838999972446,None,46.30192640000314,46.307110900001135,46.48800640000263,46.11954679999326,,,,,,,,KN_th,001,2025-03-11_23h05.46.440,MainFlow,2024.2.4,138.9869518929748,2025-03-11 23h06.09.458149 +0700,
1,1,2,5,letter/letten041.png,letter/lettth152.png,9,9,0,x,0.4486575000046287,None,0,9,9,9,46.50742799999716,,,,,,,46.50742799999716,47.49617660000513,47.501582900003996,47.501582900003996,47.95323410000128,x,0.4486575000046287,None,47.953306299998076,47.959570399994846,48.14106979999633,47.501582900003996,,,,,,,,KN_th,001,2025-03-11_23h05.46.440,MainFlow,2024.2.4,138.9869518929748,2025-03-11 23h06.09.458149 +0700,
1,2,2,6,letter/lettkh033.png,letter/lettth161.png,10,10,0,x,0.1988942999887513,None,0,10,10,10,48.17083859999548,,,,,,,48.17083859999548,49.154331300000194,49.160760600003414,49.160760600003414,49.36387200000172,x,0.1988942999887513,None,49.364040600004955,49.36899319999793,49.550166300003184,,,,,,,,,KN_th,001,2025-03-11_23h05.46.440,MainFlow,2024.2.4,138.9869518929748,2025-03-11 23h06.09.458149 +0700,
1,3,2,7,letter/lettgr072.png,letter/lettth025.png,11,11,0,x,0.20472660000086762,None,0,11,11,11,49.57850139999937,,,,,,,49.57850139999937,50.56447969999863,50.57013229999575,50.57013229999575,50.780267499998445,x,0.20472660000086762,None,50.78041969999322,50.785997099999804,50.967153899997356,,,,,,,,,KN_th,001,2025-03-11_23h05.46.440,MainFlow,2024.2.4,138.9869518929748,2025-03-11 23h06.09.458149 +0700,
1,1,2,2,letter/letten062.png,letter/lettth061.png,12,12,0,x,0.19807120000768919,None,0,12,12,12,51.00066789999255,,,,,,,51.00066789999255,51.98730150000483,51.99384880000434,51.99384880000434,52.1953252999956,x,0.19807120000768919,None,52.19538350000221,52.20167090000177,52.38350640000135,,,,,,,,,KN_th,001,2025-03-11_23h05.46.440,MainFlow,2024.2.4,138.9869518929748,2025-03-11 23h06.09.458149 +0700,
1,2,2,8,letter/lettkh031.png,letter/lettth153.png,13,13,0,x,0.1962389000109397,None,0,13,13,13,52.416324999998324,,,,,,,52.416324999998324,53.39652860000206,53.40296110000054,53.40296110000054,53.60525629999756,x,0.1962389000109397,None,53.60535830000299,53.61118449999776,53.79257350000262,,,,,,,,,KN_th,001,2025-03-11_23h05.46.440,MainFlow,2024.2.4,138.9869518929748,2025-03-11 23h06.09.458149 +0700,
1,2,2,2,letter/lettkh032.png,letter/lettth032.png,14,14,0,x,0.17666289999033324,None,0,14,14,14,53.82258930000535,,,,,,,53.82258930000535,54.80630690000544,54.812651500003994,54.812651500003994,54.9942149999988,x,0.17666289999033324,None,54.99435280000034,54.99990059999982,55.18129090000002,,,,,,,,,KN_th,001,2025-03-11_23h05.46.440,MainFlow,2024.2.4,138.9869518929748,2025-03-11 23h06.09.458149 +0700,
1,3,2,1,letter/lettgr143.png,letter/lettth132.png,15,15,0,x,0.21158679999643937,None,0,15,15,15,55.205990100002964,,,,,,,55.205990100002964,56.19453439999779,56.20103630000085,56.20103630000085,56.417864599992754,x,0.21158679999643937,None,56.41803190000064,56.42324249999365,56.60431850000168,,,,,,,,,KN_th,001,2025-03-11_23h05.46.440,MainFlow,2024.2.4,138.9869518929748,2025-03-11 23h06.09.458149 +0700,
1,3,2,6,letter/lettgr061.png,letter/lettth082.png,16,16,0,x,0.17447350001020823,None,0,16,16,16,56.63148589999764,,,,,,,56.63148589999764,57.618838499998674,57.624424399997224,57.624424399997224,57.80683069999213,x,0.17447350001020823,None,57.80704369999876,57.81191609999223,57.99352220000583,57.624424399997224,,,,,,,,KN_th,001,2025-03-11_23h05.46.440,MainFlow,2024.2.4,138.9869518929748,2025-03-11 23h06.09.458149 +0700,
1,2,2,6,letter/lettkh033.png,letter/lettth161.png,17,17,0,x,0.1978854000044521,None,0,17,17,17,58.01340339999297,,,,,,,58.01340339999297,59.000938800003496,59.00622359999397,59.00622359999397,59.20846389999497,x,0.1978854000044521,None,59.20856129999447,59.214369799999986,59.39563959999941,59.00622359999397,,,,,,,,KN_th,001,2025-03-11_23h05.46.440,MainFlow,2024.2.4,138.9869518929748,2025-03-11 23h06.09.458149 +0700,
1,3,1,3,letter/lettth155.png,letter/lettgr153.png,18,18,0,z,0.04832149999856483,None,0,18,18,18,59.42069349999656,,,,,,,59.42069349999656,60.40892420000455,60.415370400005486,60.415370400005486,60.464617399993585,z,0.04832149999856483,None,60.46467970000231,60.470911800002796,60.6527356000006,,,,,,,,,KN_th,001,2025-03-11_23h05.46.440,MainFlow,2024.2.4,138.9869518929748,2025-03-11 23h06.09.458149 +0700,
1,3,2,1,letter/lettgr143.png,letter/lettth132.png,19,19,0,x,0.12034420001145918,None,0,19,19,19,60.66850260000501,,,,,,,60.66850260000501,61.65267599999788,61.658351099991705,61.658351099991705,61.784027000001515,x,0.12034420001145918,None,61.78408670000499,61.79009599999699,61.97147129999939,61.658351099991705,,,,,,,,KN_th,001,2025-03-11_23h05.46.440,MainFlow,2024.2.4,138.9869518929748,2025-03-11 23h06.09.458149 +0700,
1,3,1,1,letter/lettth132.png,letter/lettgr143.png,20,20,0,z,0.11565779999364167,None,0,20,20,20,62.00138479999441,,,,,,,62.00138479999441,62.98517770000035,62.991483000005246,62.991483000005246,63.110679100005655,z,0.11565779999364167,None,63.11079940000491,63.11640600000101,63.29780620000383,,,,,,,,,KN_th,001,2025-03-11_23h05.46.440,MainFlow,2024.2.4,138.9869518929748,2025-03-11 23h06.09.458149 +0700,
1,1,2,8,letter/letten031.png,letter/lettth161.png,21,21,0,x,0.08216879999963567,None,0,21,21,21,63.32812079999712,,,,,,,63.32812079999712,64.311094100005,64.31755170000542,64.31755170000542,64.40226620000612,x,0.08216879999963567,None,64.40242260000377,64.40774039999815,64.58877099999518,,,,,,,,,KN_th,001,2025-03-11_23h05.46.440,MainFlow,2024.2.4,138.9869518929748,2025-03-11 23h06.09.458149 +0700,
1,1,1,5,letter/lettth152.png,letter/letten041.png,22,22,0,z,0.19298009999329224,None,0,22,22,22,64.60720549999678,,,,,,,64.60720549999678,65.5961091999925,65.60200719999557,65.60200719999557,65.79770359999384,z,0.19298009999329224,None,65.79782340000384,65.80331109999679,65.98486500000581,65.60200719999557,,,,,,,,KN_th,001,2025-03-11_23h05.46.440,MainFlow,2024.2.4,138.9869518929748,2025-03-11 23h06.09.458149 +0700,
1,1,2,6,letter/letten153.png,letter/lettth024.png,23,23,0,x,0.07007000000157859,None,0,23,23,23,66.01629509999475,,,,,,,66.01629509999475,66.99843900000269,67.00473309999506,67.00473309999506,67.08192310000595,x,0.07007000000157859,None,67.08204359999218,67.0878076999943,67.26896109999507,,,,,,,,,KN_th,001,2025-03-11_23h05.46.440,MainFlow,2024.2.4,138.9869518929748,2025-03-11 23h06.09.458149 +0700,
1,1,1,8,letter/lettth161.png,letter/letten031.png,24,24,0,z,0.20777230001112912,None,0,24,24,24,67.29691740000271,,,,,,,67.29691740000271,68.28251340000133,68.28899339999771,68.28899339999771,68.49883409999893,z,0.20777230001112912,None,68.4989906999981,68.5042598,68.68506560000242,,,,,,,,,KN_th,001,2025-03-11_23h05.46.440,MainFlow,2024.2.4,138.9869518929748,2025-03-11 23h06.09.458149 +0700,
1,3,1,1,letter/lettth132.png,letter/lettgr143.png,25,25,0,z,0.20048400000086986,None,0,25,25,25,68.69555119999859,,,,,,,68.69555119999859,69.67926289999741,69.69157549999363,69.69157549999363,69.89515919999394,z,0.20048400000086986,None,69.8953685000015,69.90032169999904,70.08095439999306,69.68464180000592,,,,,,,,KN_th,001,2025-03-11_23h05.46.440,MainFlow,2024.2.4,138.9869518929748,2025-03-11 23h06.09.458149 +0700,
1,3,2,4,letter/lettgr064.png,letter/lettth024.png,26,26,0,x,0.20403239999723155,None,0,26,26,26,70.10849579999922,,,,,,,70.10849579999922,71.0950920000032,71.10118409999995,71.10118409999995,71.3102893000032,x,0.20403239999723155,None,71.3103884000011,71.31616519999807,71.49736599999596,71.10118409999995,,,,,,,,KN_th,001,2025-03-11_23h05.46.440,MainFlow,2024.2.4,138.9869518929748,2025-03-11 23h06.09.458149 +0700,
1,2,1,6,letter/lettth161.png,letter/lettkh033.png,27,27,0,z,0.20021219999762252,None,0,27,27,27,71.50675610000326,,,,,,,71.50675610000326,72.49040120000427,72.50337170000421,72.50337170000421,72.70698629999242,z,0.20021219999762252,None,72.7071974999999,72.71177670000179,72.8927224999934,72.49638149999373,,,,,,,,KN_th,001,2025-03-11_23h05.46.440,MainFlow,2024.2.4,138.9869518929748,2025-03-11 23h06.09.458149 +0700,
1,2,1,1,letter/lettth061.png,letter/lettkh034.png,28,28,0,z,0.21086400000785943,None,0,28,28,28,72.91412309999578,,,,,,,72.91412309999578,73.89995560000534,73.9059191999986,73.9059191999986,74.12258959999599,z,0.21086400000785943,None,74.12273849999474,74.12794180000492,74.30906040000264,73.9059191999986,,,,,,,,KN_th,001,2025-03-11_23h05.46.440,MainFlow,2024.2.4,138.9869518929748,2025-03-11 23h06.09.458149 +0700,
1,1,2,7,letter/letten051.png,letter/lettth025.png,29,29,0,x,0.07285810000030324,None,0,29,29,29,74.33228810000583,,,,,,,74.33228810000583,75.31679129999247,75.32249979999324,75.32249979999324,75.40059360000305,x,0.07285810000030324,None,75.4006517999951,75.40554930000508,75.58688869999605,75.32249979999324,,,,,,,,KN_th,001,2025-03-11_23h05.46.440,MainFlow,2024.2.4,138.9869518929748,2025-03-11 23h06.09.458149 +0700,
1,2,2,7,letter/lettkh033.png,letter/lettth072.png,30,30,0,x,0.19364499999210238,None,0,30,30,30,75.59757909999462,,,,,,,75.59757909999462,76.58778509999684,76.59288509999169,76.59288509999169,76.78878960000293,x,0.19364499999210238,None,76.78890559999854,76.79424180000206,76.97497080000176,76.59288509999169,,,,,,,,KN_th,001,2025-03-11_23h05.46.440,MainFlow,2024.2.4,138.9869518929748,2025-03-11 23h06.09.458149 +0700,
1,2,1,8,letter/lettth153.png,letter/lettkh031.png,31,31,0,z,0.1516913000086788,None,0,31,31,31,76.99414579999575,,,,,,,76.99414579999575,77.98320760000206,77.98867409999366,77.98867409999366,78.14376130000164,z,0.1516913000086788,None,78.14404970000032,78.14919240000017,78.32986450000317,77.98867409999366,,,,,,,,KN_th,001,2025-03-11_23h05.46.440,MainFlow,2024.2.4,138.9869518929748,2025-03-11 23h06.09.458149 +0700,
1,1,1,2,letter/lettth061.png,letter/letten062.png,32,32,0,z,0.20331260000239126,None,0,32,32,32,78.34724610000558,,,,,,,78.34724610000558,79.33637940000335,79.34239839999645,79.34239839999645,79.55256969999755,z,0.20331260000239126,None,79.5526264999935,79.55758449999848,79.73880540000391,79.34239839999645,,,,,,,,KN_th,001,2025-03-11_23h05.46.440,MainFlow,2024.2.4,138.9869518929748,2025-03-11 23h06.09.458149 +0700,
1,3,1,7,letter/lettth025.png,letter/lettgr072.png,33,33,0,z,0.22296759999881033,None,0,33,33,33,79.76498369999172,,,,,,,79.76498369999172,80.75312280000071,80.75896479999938,80.75896479999938,80.98867320000136,z,0.22296759999881033,None,80.98873129999265,80.99468360000174,81.17652730000555,80.75896479999938,,,,,,,,KN_th,001,2025-03-11_23h05.46.440,MainFlow,2024.2.4,138.9869518929748,2025-03-11 23h06.09.458149 +0700,
1,1,1,3,letter/lettth092.png,letter/letten041.png,34,34,0,z,0.18397310000727884,None,0,34,34,34,81.20760500000324,,,,,,,81.20760500000324,82.1898835000029,82.19602920000034,82.19602920000034,82.38458830000309,z,0.18397310000727884,None,82.38470529999177,82.39034759999777,82.57177809999848,,,,,,,,,KN_th,001,2025-03-11_23h05.46.440,MainFlow,2024.2.4,138.9869518929748,2025-03-11 23h06.09.458149 +0700,
1,3,1,5,letter/lettth052.png,letter/lettgr141.png,35,35,0,z,0.19750380000914447,None,0,35,35,35,82.59349470000598,,,,,,,82.59349470000598,83.57948570000008,83.58480450000206,83.58480450000206,83.78846799999883,z,0.19750380000914447,None,83.78869739999936,83.79373350000242,83.97435069999483,83.58480450000206,,,,,,,,KN_th,001,2025-03-11_23h05.46.440,MainFlow,2024.2.4,138.9869518929748,2025-03-11 23h06.09.458149 +0700,
1,1,1,6,letter/lettth024.png,letter/letten153.png,36,36,0,z,0.20335919999342877,None,0,36,36,36,83.98690990000614,,,,,,,83.98690990000614,84.9741486999992,84.98016809999535,84.98016809999535,85.1892067000008,z,0.20335919999342877,None,85.18927610000537,85.19527630000084,85.37645100000373,84.98016809999535,,,,,,,,KN_th,001,2025-03-11_23h05.46.440,MainFlow,2024.2.4,138.9869518929748,2025-03-11 23h06.09.458149 +0700,
1,1,1,3,letter/lettth092.png,letter/letten041.png,37,37,0,z,0.06731470000522677,None,0,37,37,37,85.38861880000331,,,,,,,85.38861880000331,86.37709150000592,86.38277850000304,86.38277850000304,86.45334100000036,z,0.06731470000522677,None,86.453460299992,86.45907110000553,86.64041619999625,86.38277850000304,,,,,,,,KN_th,001,2025-03-11_23h05.46.440,MainFlow,2024.2.4,138.9869518929748,2025-03-11 23h06.09.458149 +0700,
1,1,1,7,letter/lettth025.png,letter/letten051.png,38,38,0,z,0.15899759999592789,None,0,38,38,38,86.65280280000297,,,,,,,86.65280280000297,87.64062950000516,87.64647229999537,87.64647229999537,87.80722859999514,z,0.15899759999592789,None,87.80734620000294,87.81305519999296,87.9942074999999,87.64647229999537,,,,,,,,KN_th,001,2025-03-11_23h05.46.440,MainFlow,2024.2.4,138.9869518929748,2025-03-11 23h06.09.458149 +0700,
1,3,1,6,letter/lettth082.png,letter/lettgr061.png,39,39,0,z,0.18466719999560155,None,0,39,39,39,88.0248208999983,,,,,,,88.0248208999983,89.00770030000422,89.01412510000227,89.01412510000227,89.2024878999946,z,0.18466719999560155,None,89.2025888999924,89.20844919999945,89.39013390000036,,,,,,,,,KN_th,001,2025-03-11_23h05.46.440,MainFlow,2024.2.4,138.9869518929748,2025-03-11 23h06.09.458149 +0700,
1,2,1,4,letter/lettth153.png,letter/lettkh034.png,40,40,0,z,0.20103100000414997,None,0,40,40,40,89.40418009999848,,,,,,,89.40418009999848,90.39077939999697,90.39599859999726,90.39599859999726,90.59859080000024,z,0.20103100000414997,None,90.59871540000313,90.60409110000182,90.78580729999521,90.39599859999726,,,,,,,,KN_th,001,2025-03-11_23h05.46.440,MainFlow,2024.2.4,138.9869518929748,2025-03-11 23h06.09.458149 +0700,
1,3,2,8,letter/lettgr153.png,letter/lettth013.png,41,41,0,x,0.197035599994706,None,0,41,41,41,90.79952839999169,,,,,,,90.79952839999169,91.78523130000394,91.791324299993,91.791324299993,91.99441529999604,x,0.197035599994706,None,91.9945688000007,91.99975899999845,92.18148820000351,91.791324299993,,,,,,,,KN_th,001,2025-03-11_23h05.46.440,MainFlow,2024.2.4,138.9869518929748,2025-03-11 23h06.09.458149 +0700,
1,1,1,4,letter/lettth041.png,letter/letten091.png,42,42,0,z,0.21605420000560116,None,0,42,42,42,92.21262350000325,,,,,,,92.21262350000325,93.20126810000511,93.20776140000089,93.20776140000089,93.43123679999553,z,0.21605420000560116,None,93.43141259999538,93.43668199999956,93.61799800000153,,,,,,,,,KN_th,001,2025-03-11_23h05.46.440,MainFlow,2024.2.4,138.9869518929748,2025-03-11 23h06.09.458149 +0700,
1,3,1,8,letter/lettth013.png,letter/lettgr153.png,43,43,0,z,0.20957639999687672,None,0,43,43,43,93.64830129999609,,,,,,,93.64830129999609,94.63162139999622,94.63802430000214,94.63802430000214,94.85382129999925,z,0.20957639999687672,None,94.85388019999664,94.86006609999458,95.041275399999,,,,,,,,,KN_th,001,2025-03-11_23h05.46.440,MainFlow,2024.2.4,138.9869518929748,2025-03-11 23h06.09.458149 +0700,
1,2,1,3,letter/lettth112.png,letter/lettkh031.png,44,44,0,z,0.19255430001066998,None,0,44,44,44,95.06784410000546,,,,,,,95.06784410000546,96.05520309999702,96.06151939999836,96.06151939999836,96.25800289999461,z,0.19255430001066998,None,96.25821260000521,96.26323959999718,96.4444657999993,,,,,,,,,KN_th,001,2025-03-11_23h05.46.440,MainFlow,2024.2.4,138.9869518929748,2025-03-11 23h06.09.458149 +0700,
1,1,2,2,letter/letten062.png,letter/lettth061.png,45,45,0,x,0.18537739999010228,None,0,45,45,45,96.46360030000506,,,,,,,96.46360030000506,97.45057339999767,97.45678029999544,97.45678029999544,97.64491550000093,x,0.18537739999010228,None,97.64497399999527,97.65117250000185,97.83218509999278,97.45678029999544,,,,,,,,KN_th,001,2025-03-11_23h05.46.440,MainFlow,2024.2.4,138.9869518929748,2025-03-11 23h06.09.458149 +0700,
1,3,1,7,letter/lettth025.png,letter/lettgr072.png,46,46,0,z,0.19386970000050496,None,0,46,46,46,97.8394663999934,,,,,,,97.8394663999934,98.82575530000031,98.83862290000252,98.83862290000252,99.03418980000424,z,0.19386970000050496,None,99.03431709999859,99.0399241999985,99.22131290000107,98.8316366999934,,,,,,,,KN_th,001,2025-03-11_23h05.46.440,MainFlow,2024.2.4,138.9869518929748,2025-03-11 23h06.09.458149 +0700,
1,1,1,7,letter/lettth025.png,letter/letten051.png,47,47,0,z,0.1546539999981178,None,0,47,47,47,99.23529699999199,,,,,,,99.23529699999199,100.22156109999924,100.22723580000456,100.22723580000456,100.38822079999954,z,0.1546539999981178,None,100.38836719999381,100.39385839999886,100.57543939999596,100.22723580000456,,,,,,,,KN_th,001,2025-03-11_23h05.46.440,MainFlow,2024.2.4,138.9869518929748,2025-03-11 23h06.09.458149 +0700,
1,2,2,5,letter/lettkh023.png,letter/lettth024.png,48,48,0,x,0.04357199999503791,None,0,48,48,48,100.61065010000311,,,,,,,100.61065010000311,101.58852409999236,101.59493989999464,101.59493989999464,101.64572780000162,x,0.04357199999503791,None,101.64593670000613,101.65057410000009,101.83158040000126,,,,,,,,,KN_th,001,2025-03-11_23h05.46.440,MainFlow,2024.2.4,138.9869518929748,2025-03-11 23h06.09.458149 +0700,
1,2,1,5,letter/lettth024.png,letter/lettkh023.png,49,49,0,z,0.2078079000057187,None,0,49,49,49,101.84178709999833,,,,,,,101.84178709999833,102.82634230000258,102.83796210000583,102.83796210000583,103.04830680000305,z,0.2078079000057187,None,103.0484715999919,103.05313040000328,103.23442490000161,102.83098220000102,,,,,,,,KN_th,001,2025-03-11_23h05.46.440,MainFlow,2024.2.4,138.9869518929748,2025-03-11 23h06.09.458149 +0700,
1,3,2,5,letter/lettgr141.png,letter/lettth052.png,50,50,0,x,0.16282679999130778,None,0,50,50,50,103.26601740000478,,,,,,,103.26601740000478,104.25506189999578,104.26128920000338,104.26128920000338,104.42890800000168,x,0.16282679999130778,None,104.42905439999595,104.4346693999978,104.61643470000126,,,,,,,,,KN_th,001,2025-03-11_23h05.46.440,MainFlow,2024.2.4,138.9869518929748,2025-03-11 23h06.09.458149 +0700,
1,2,2,8,letter/lettkh031.png,letter/lettth153.png,51,51,0,x,0.1704046999948332,None,0,51,51,51,104.63343319999694,,,,,,,104.63343319999694,105.62319650000427,105.62897299999895,105.62897299999895,105.80474930000491,x,0.1704046999948332,None,105.80495380000502,105.81036469999526,105.99068180000177,105.62897299999895,,,,,,,,KN_th,001,2025-03-11_23h05.46.440,MainFlow,2024.2.4,138.9869518929748,2025-03-11 23h06.09.458149 +0700,
1,1,2,5,letter/letten041.png,letter/lettth152.png,52,52,0,x,0.19271350000053644,None,0,52,52,52,106.00452159999986,,,,,,,106.00452159999986,106.99167899999884,106.99689209999633,106.99689209999633,107.19232430000557,x,0.19271350000053644,None,107.1924457999994,107.19807100000617,107.37896919999912,106.99689209999633,,,,,,,,KN_th,001,2025-03-11_23h05.46.440,MainFlow,2024.2.4,138.9869518929748,2025-03-11 23h06.09.458149 +0700,
1,1,1,1,letter/lettth022.png,letter/letten092.png,53,53,0,z,0.16350140000577085,None,0,53,53,53,107.39671169999929,,,,,,,107.39671169999929,108.38664969999809,108.39233180000156,108.39233180000156,108.56039549999696,z,0.16350140000577085,None,108.56056179999723,108.56582329999947,108.7468874000042,108.39233180000156,,,,,,,,KN_th,001,2025-03-11_23h05.46.440,MainFlow,2024.2.4,138.9869518929748,2025-03-11 23h06.09.458149 +0700,
1,2,1,1,letter/lettth061.png,letter/lettkh034.png,54,54,0,z,0.19087790000776295,None,0,54,54,54,108.7572022999957,,,,,,,108.7572022999957,109.74067889999424,109.75318179999886,109.75318179999886,109.94883310000296,z,0.19087790000776295,None,109.94896439999866,109.95444339999813,110.13620330000413,109.74618600000395,,,,,,,,KN_th,001,2025-03-11_23h05.46.440,MainFlow,2024.2.4,138.9869518929748,2025-03-11 23h06.09.458149 +0700,
1,3,2,4,letter/lettgr064.png,letter/lettth024.png,55,55,0,x,0.19750059999933,None,0,55,55,55,110.15287099999841,,,,,,,110.15287099999841,111.13672490000317,111.14286989999528,111.14286989999528,111.34572270000353,x,0.19750059999933,None,111.34595010000339,111.35119349999877,111.53256120000151,111.14286989999528,,,,,,,,KN_th,001,2025-03-11_23h05.46.440,MainFlow,2024.2.4,138.9869518929748,2025-03-11 23h06.09.458149 +0700,
1,3,1,5,letter/lettth052.png,letter/lettgr141.png,56,56,0,x,0.03177479999430943,None,0,56,56,56,111.54874850000488,,,,,,,111.54874850000488,112.53824409999652,112.54421379999258,112.54421379999258,112.57998670000234,x,0.03177479999430943,None,112.58008479999262,112.58591130000423,112.7675961000059,112.54421379999258,,,,,,,,KN_th,001,2025-03-11_23h05.46.440,MainFlow,2024.2.4,138.9869518929748,2025-03-11 23h06.09.458149 +0700,
1,1,1,8,letter/lettth161.png,letter/letten031.png,57,57,0,z,0.28301400000054855,None,0,57,57,57,112.78330049999931,,,,,,,112.78330049999931,113.76680689999193,113.7730573000008,113.7730573000008,114.05952470000193,z,0.28301400000054855,None,114.05967499999679,114.06479540000146,114.24547399999574,113.7730573000008,,,,,,,,KN_th,001,2025-03-11_23h05.46.440,MainFlow,2024.2.4,138.9869518929748,2025-03-11 23h06.09.458149 +0700,
1,1,1,4,letter/lettth041.png,letter/letten091.png,58,58,0,z,0.1746629999979632,None,0,58,58,58,114.25259380000352,,,,,,,114.25259380000352,115.2393585999962,115.25207469999441,115.25207469999441,115.43397879999247,z,0.1746629999979632,None,115.43412869999884,115.43942850000167,115.62069549999433,115.24512920000416,,,,,,,,KN_th,001,2025-03-11_23h05.46.440,MainFlow,2024.2.4,138.9869518929748,2025-03-11 23h06.09.458149 +0700,
1,2,1,4,letter/lettth153.png,letter/lettkh034.png,59,59,0,z,0.1589421999960905,None,0,59,59,59,115.63194829999702,,,,,,,115.63194829999702,116.62114380000276,116.62687110000115,116.62687110000115,116.78849880000053,z,0.1589421999960905,None,116.78867650000029,116.79328270000406,116.9747897000052,116.62687110000115,,,,,,,,KN_th,001,2025-03-11_23h05.46.440,MainFlow,2024.2.4,138.9869518929748,2025-03-11 23h06.09.458149 +0700,
1,1,2,3,letter/letten041.png,letter/lettth092.png,60,60,0,x,0.1503872000030242,None,0,60,60,60,116.98685449999175,,,,,,,116.98685449999175,117.97550149999734,117.98082919999433,117.98082919999433,118.13471149999532,x,0.1503872000030242,None,118.13483619999897,118.14035240000521,118.32200499999453,117.98082919999433,,,,,,,,KN_th,001,2025-03-11_23h05.46.440,MainFlow,2024.2.4,138.9869518929748,2025-03-11 23h06.09.458149 +0700,
1,3,2,2,letter/lettgr072.png,letter/lettth052.png,61,61,0,x,0.20764809999673162,None,0,61,61,61,118.33761519999825,,,,,,,118.33761519999825,119.3216856999934,119.3276976000052,119.3276976000052,119.53724200000579,x,0.20764809999673162,None,119.53738159999193,119.54294179999852,119.72406439999759,119.3276976000052,,,,,,,,KN_th,001,2025-03-11_23h05.46.440,MainFlow,2024.2.4,138.9869518929748,2025-03-11 23h06.09.458149 +0700,
1,1,2,8,letter/letten031.png,letter/lettth161.png,62,62,0,x,0.19577489999937825,None,0,62,62,62,119.73689990000275,,,,,,,119.73689990000275,120.72426980000455,120.7301953999995,120.7301953999995,120.93339550000383,x,0.19577489999937825,None,120.9336428999959,120.93845139999758,121.11975410000014,120.7301953999995,,,,,,,,KN_th,001,2025-03-11_23h05.46.440,MainFlow,2024.2.4,138.9869518929748,2025-03-11 23h06.09.458149 +0700,
1,1,1,5,letter/lettth152.png,letter/letten041.png,63,63,0,z,0.1770857000083197,None,0,63,63,63,121.13187379999727,,,,,,,121.13187379999727,122.12074430000212,122.12588209999376,122.12588209999376,122.30745409999508,z,0.1770857000083197,None,122.30757269999594,122.31314840000414,122.49490469999728,122.12588209999376,,,,,,,,KN_th,001,2025-03-11_23h05.46.440,MainFlow,2024.2.4,138.9869518929748,2025-03-11 23h06.09.458149 +0700,
1,2,2,2,letter/lettkh032.png,letter/lettth032.png,64,64,0,x,0.2057111000031,None,0,64,64,64,122.509352699999,,,,,,,122.509352699999,123.49571499999729,123.5006022000016,123.5006022000016,123.7104590999952,x,0.2057111000031,None,123.71061199999531,123.71578399999999,123.89754419999372,123.5006022000016,,,,,,,,KN_th,001,2025-03-11_23h05.46.440,MainFlow,2024.2.4,138.9869518929748,2025-03-11 23h06.09.458149 +0700,
1,3,1,2,letter/lettth052.png,letter/lettgr072.png,65,65,0,z,0.16369180000037886,None,0,65,65,65,123.91371720000461,,,,,,,123.91371720000461,124.89705919999687,124.90297369999462,124.90297369999462,125.07133130000148,z,0.16369180000037886,None,125.07148719999532,125.07651620000252,125.25779649999458,124.90297369999462,,,,,,,,KN_th,001,2025-03-11_23h05.46.440,MainFlow,2024.2.4,138.9869518929748,2025-03-11 23h06.09.458149 +0700,
1,1,2,4,letter/letten091.png,letter/lettth041.png,66,66,0,x,0.1669988000066951,None,0,66,66,66,125.28442219999852,,,,,,,125.28442219999852,126.2725541999971,126.27786190000188,126.27786190000188,126.45229790000303,x,0.1669988000066951,None,126.45241779999924,126.45815520000178,126.63985330000287,126.27786190000188,,,,,,,,KN_th,001,2025-03-11_23h05.46.440,MainFlow,2024.2.4,138.9869518929748,2025-03-11 23h06.09.458149 +0700,
1,3,2,5,letter/lettgr141.png,letter/lettth052.png,67,67,0,x,0.20548540000163484,None,0,67,67,67,126.65432669999427,,,,,,,126.65432669999427,127.63996240000415,127.64565380000568,127.64565380000568,127.8551482000039,x,0.20548540000163484,None,127.85526820000086,127.86079789999349,128.04201730000204,127.64565380000568,,,,,,,,KN_th,001,2025-03-11_23h05.46.440,MainFlow,2024.2.4,138.9869518929748,2025-03-11 23h06.09.458149 +0700,
1,2,2,3,letter/lettkh031.png,letter/lettth112.png,68,68,0,x,0.20440220000455156,None,0,68,68,68,128.0516418000043,,,,,,,128.0516418000043,129.03542970000126,129.04804069999955,129.04804069999955,129.25851970000076,x,0.20440220000455156,None,129.2587363999919,129.26399690000108,129.44434739999997,129.04177579999669,,,,,,,,KN_th,001,2025-03-11_23h05.46.440,MainFlow,2024.2.4,138.9869518929748,2025-03-11 23h06.09.458149 +0700,
1,3,2,7,letter/lettgr072.png,letter/lettth025.png,69,69,0,x,0.18800360000750516,None,0,69,69,69,129.45687530000578,,,,,,,129.45687530000578,130.44569449999835,130.45070739999937,130.45070739999937,130.64589030000207,x,0.18800360000750516,None,130.64601470000343,130.6517034999997,130.83289259999583,130.45070739999937,,,,,,,,KN_th,001,2025-03-11_23h05.46.440,MainFlow,2024.2.4,138.9869518929748,2025-03-11 23h06.09.458149 +0700,
1,3,2,2,letter/lettgr072.png,letter/lettth052.png,70,70,0,x,0.15825980000954587,None,0,70,70,70,130.84455660000094,,,,,,,130.84455660000094,131.833950500004,131.83973710000282,131.83973710000282,132.00022990000434,x,0.15825980000954587,None,132.00035819999175,132.00590459999512,132.187717599998,131.83973710000282,,,,,,,,KN_th,001,2025-03-11_23h05.46.440,MainFlow,2024.2.4,138.9869518929748,2025-03-11 23h06.09.458149 +0700,
1,1,1,1,letter/lettth022.png,letter/letten092.png,71,71,0,z,0.19700720001128502,None,0,71,71,71,132.20609569999215,,,,,,,132.20609569999215,133.19445599999744,133.19996790000005,133.19996790000005,133.40245969999523,z,0.19700720001128502,None,133.4025815000059,133.40820130000066,133.58996789999946,133.19996790000005,,,,,,,,KN_th,001,2025-03-11_23h05.46.440,MainFlow,2024.2.4,138.9869518929748,2025-03-11 23h06.09.458149 +0700,
1,3,1,6,letter/lettth082.png,letter/lettgr061.png,72,72,0,z,0.21370870000100695,None,0,72,72,72,133.60724169999594,,,,,,,133.60724169999594,134.59692799999902,134.6025507000013,134.6025507000013,134.8193079000048,z,0.21370870000100695,None,134.81945969999651,134.82463849999476,135.00618640000175,134.6025507000013,,,,,,,,KN_th,001,2025-03-11_23h05.46.440,MainFlow,2024.2.4,138.9869518929748,2025-03-11 23h06.09.458149 +0700,
1,2,1,7,letter/lettth072.png,letter/lettkh033.png,73,73,0,z,0.2142788999917684,None,0,73,73,73,135.01982970000245,,,,,,,135.01982970000245,136.0061582000053,136.01209960000415,136.01209960000415,136.2283444999921,z,0.2142788999917684,None,136.22845270000107,136.23421789999702,136.41507600000477,136.01209960000415,,,,,,,,KN_th,001,2025-03-11_23h05.46.440,MainFlow,2024.2.4,138.9869518929748,2025-03-11 23h06.09.458149 +0700,
1,3,2,6,letter/lettgr061.png,letter/lettth082.png,74,74,0,x,0.22105030000966508,None,0,74,74,74,136.42702160000044,,,,,,,136.42702160000044,137.41630850000365,137.42150729999412,137.42150729999412,137.64473970000108,x,0.22105030000966508,None,137.6448653999978,137.650430099995,137.8321295999922,137.42150729999412,,,,,,,,KN_th,001,2025-03-11_23h05.46.440,MainFlow,2024.2.4,138.9869518929748,2025-03-11 23h06.09.458149 +0700,
1,1,2,6,letter/letten153.png,letter/lettth024.png,75,75,0,x,0.221007300002384,None,0,75,75,75,137.8475444999931,,,,,,,137.8475444999931,138.83248810000077,138.83786189999955,138.83786189999955,139.06213279999793,x,0.221007300002384,None,139.062365699996,139.0675198999961,139.2485319999978,138.83786189999955,,,,,,,,KN_th,001,2025-03-11_23h05.46.440,MainFlow,2024.2.4,138.9869518929748,2025-03-11 23h06.09.458149 +0700,
1,2,2,1,letter/lettkh034.png,letter/lettth061.png,76,76,0,x,0.20953469999949448,None,0,76,76,76,139.26402689999668,,,,,,,139.26402689999668,140.24920629999542,140.2544643000001,140.2544643000001,140.47051810000266,x,0.20953469999949448,None,140.47064420000243,140.47629360000428,140.65703249999206,140.2544643000001,,,,,,,,KN_th,001,2025-03-11_23h05.46.440,MainFlow,2024.2.4,138.9869518929748,2025-03-11 23h06.09.458149 +0700,
1,2,1,6,letter/lettth161.png,letter/lettkh033.png,77,77,0,z,0.1686891999997897,None,0,77,77,77,140.66423330000544,,,,,,,140.66423330000544,141.65072350000264,141.6637303000025,141.6637303000025,141.83927529999346,z,0.1686891999997897,None,141.83938269999635,141.84393600000476,142.02525890000106,141.65661750000436,,,,,,,,KN_th,001,2025-03-11_23h05.46.440,MainFlow,2024.2.4,138.9869518929748,2025-03-11 23h06.09.458149 +0700,
1,2,2,7,letter/lettkh033.png,letter/lettth072.png,78,78,0,x,0.2150885000010021,None,0,78,78,78,142.0377268000011,,,,,,,142.0377268000011,143.0262853000022,143.03157370000554,143.03157370000554,143.2494682999968,x,0.2150885000010021,None,143.24966739999945,143.25517029999173,143.43493339999986,143.03157370000554,,,,,,,,KN_th,001,2025-03-11_23h05.46.440,MainFlow,2024.2.4,138.9869518929748,2025-03-11 23h06.09.458149 +0700,
1,2,1,8,letter/lettth153.png,letter/lettkh031.png,79,79,0,z,0.15604119999625254,None,0,79,79,79,143.44961159999366,,,,,,,143.44961159999366,144.4357164999965,144.4409161999938,144.4409161999938,144.60169310000492,z,0.15604119999625254,None,144.60181569999258,144.60744520000299,144.78861059999326,144.4409161999938,,,,,,,,KN_th,001,2025-03-11_23h05.46.440,MainFlow,2024.2.4,138.9869518929748,2025-03-11 23h06.09.458149 +0700,
1,3,1,2,letter/lettth052.png,letter/lettgr072.png,80,80,0,z,0.17261330000474118,None,0,80,80,80,144.80012840000563,,,,,,,144.80012840000563,145.7897443999973,145.79478870000457,145.79478870000457,145.97051640000427,z,0.17261330000474118,None,145.97075179999229,145.97550929999852,146.15638020000188,145.79478870000457,,,,,,,,KN_th,001,2025-03-11_23h05.46.440,MainFlow,2024.2.4,138.9869518929748,2025-03-11 23h06.09.458149 +0700,
1,2,1,2,letter/lettth032.png,letter/lettkh032.png,81,81,0,z,0.20222690000082366,None,0,81,81,81,146.16973929999222,,,,,,,146.16973929999222,147.15702919999603,147.16261349999695,147.16261349999695,147.37219720000576,z,0.20222690000082366,None,147.37230930000078,147.37762689999363,147.55883369999356,147.16261349999695,,,,,,,,KN_th,001,2025-03-11_23h05.46.440,MainFlow,2024.2.4,138.9869518929748,2025-03-11 23h06.09.458149 +0700,
1,1,2,7,letter/letten051.png,letter/lettth025.png,82,82,0,x,0.13281049999932293,None,0,82,82,82,147.57056459999876,,,,,,,147.57056459999876,148.5599247999926,148.56517750000057,148.56517750000057,148.70465559999866,x,0.13281049999932293,None,148.70471219999308,148.7107757000049,148.89312769999378,148.56517750000057,,,,,,,,KN_th,001,2025-03-11_23h05.46.440,MainFlow,2024.2.4,138.9869518929748,2025-03-11 23h06.09.458149 +0700,
1,3,1,4,letter/lettth024.png,letter/lettgr064.png,83,83,0,z,0.1824860000051558,None,0,83,83,83,148.90031009999802,,,,,,,148.90031009999802,149.88507899999968,149.89803599999868,149.89803599999868,150.08715870000015,z,0.1824860000051558,None,150.08732019999297,150.09234180000203,150.2734855000017,149.89104529999895,,,,,,,,KN_th,001,2025-03-11_23h05.46.440,MainFlow,2024.2.4,138.9869518929748,2025-03-11 23h06.09.458149 +0700,
1,3,2,3,letter/lettgr153.png,letter/lettth155.png,84,84,0,x,0.17082019998633768,None,0,84,84,84,150.28379600000335,,,,,,,150.28379600000335,151.2670489000011,151.27981769999315,151.27981769999315,151.45466499999748,x,0.17082019998633768,None,151.45479370000248,151.46034789999248,151.64155640000536,151.27288509999926,,,,,,,,KN_th,001,2025-03-11_23h05.46.440,MainFlow,2024.2.4,138.9869518929748,2025-03-11 23h06.09.458149 +0700,
1,1,1,6,letter/lettth024.png,letter/letten153.png,85,85,0,z,0.2261605999956373,None,0,85,85,85,151.65369340000325,,,,,,,151.65369340000325,152.6419642999972,152.64768199999526,152.64768199999526,152.87807609999436,z,0.2261605999956373,None,152.87819869999657,152.88360129999637,153.06539119999798,152.64768199999526,,,,,,,,KN_th,001,2025-03-11_23h05.46.440,MainFlow,2024.2.4,138.9869518929748,2025-03-11 23h06.09.458149 +0700,
1,1,2,3,letter/letten041.png,letter/lettth092.png,86,86,0,x,0.19704699999419972,None,0,86,86,86,153.0794489999971,,,,,,,153.0794489999971,154.0657108000014,154.07104080000136,154.07104080000136,154.27346719999332,x,0.19704699999419972,None,154.2735854999919,154.27917419999721,154.46019179999712,154.07104080000136,,,,,,,,KN_th,001,2025-03-11_23h05.46.440,MainFlow,2024.2.4,138.9869518929748,2025-03-11 23h06.09.458149 +0700,
1,2,2,1,letter/lettkh034.png,letter/lettth061.png,87,87,0,x,0.18081570000504144,None,0,87,87,87,154.47184939999715,,,,,,,154.47184939999715,155.4609569000022,155.46661210000457,155.46661210000457,155.64871900000435,x,0.18081570000504144,None,155.64885319999303,155.65404660000058,155.83495829999447,155.46661210000457,,,,,,,,KN_th,001,2025-03-11_23h05.46.440,MainFlow,2024.2.4,138.9869518929748,2025-03-11 23h06.09.458149 +0700,
1,3,1,3,letter/lettth155.png,letter/lettgr153.png,88,88,0,z,0.16510980000020936,None,0,88,88,88,155.84459659999993,,,,,,,155.84459659999993,156.8291379000002,156.8413453999965,156.8413453999965,157.0089672000031,z,0.16510980000020936,None,157.00908600000548,157.01476489999914,157.19660169999406,156.8344342999917,,,,,,,,KN_th,001,2025-03-11_23h05.46.440,MainFlow,2024.2.4,138.9869518929748,2025-03-11 23h06.09.458149 +0700,
1,2,1,3,letter/lettth112.png,letter/lettkh031.png,89,89,0,z,0.20012219999625813,None,0,89,89,89,157.2150849000027,,,,,,,157.2150849000027,158.20303059999424,158.20896819999325,158.20896819999325,158.41199100000085,z,0.20012219999625813,None,158.41216229999554,158.4172741999937,158.59834460000275,158.20896819999325,,,,,,,,KN_th,001,2025-03-11_23h05.46.440,MainFlow,2024.2.4,138.9869518929748,2025-03-11 23h06.09.458149 +0700,
1,2,2,5,letter/lettkh023.png,letter/lettth024.png,90,90,0,x,0.2215967000083765,None,0,90,90,90,158.6093497999973,,,,,,,158.6093497999973,159.59868280000228,159.60465069999918,159.60465069999918,159.8280483999988,x,0.2215967000083765,None,159.82819450000534,159.8337857000006,160.01561909999873,159.60465069999918,,,,,,,,KN_th,001,2025-03-11_23h05.46.440,MainFlow,2024.2.4,138.9869518929748,2025-03-11 23h06.09.458149 +0700,
1,1,2,4,letter/letten091.png,letter/lettth041.png,91,91,0,x,0.2087357999989763,None,0,91,91,91,160.03708259999985,,,,,,,160.03708259999985,161.02197770000203,161.0279101000051,161.0279101000051,161.24415270000463,x,0.2087357999989763,None,161.2442699999956,161.25032219999412,161.43147029999818,161.0279101000051,,,,,,,,KN_th,001,2025-03-11_23h05.46.440,MainFlow,2024.2.4,138.9869518929748,2025-03-11 23h06.09.458149 +0700,
1,2,2,3,letter/lettkh031.png,letter/lettth112.png,92,92,0,x,0.21743799999239855,None,0,92,92,92,161.4459399000043,,,,,,,161.4459399000043,162.43165290000616,162.43737970000075,162.43737970000075,162.66118120000465,x,0.21743799999239855,None,162.66133299999638,162.66647169999487,162.8481485999946,162.43737970000075,,,,,,,,KN_th,001,2025-03-11_23h05.46.440,MainFlow,2024.2.4,138.9869518929748,2025-03-11 23h06.09.458149 +0700,
1,3,1,8,letter/lettth013.png,letter/lettgr153.png,93,93,0,z,0.1999814000009792,None,0,93,93,93,162.86362449999433,,,,,,,162.86362449999433,163.847983700005,163.85396900000342,163.85396900000342,164.05674549999821,z,0.1999814000009792,None,164.05692139999883,164.06217019999167,164.24375569999393,163.85396900000342,,,,,,,,KN_th,001,2025-03-11_23h05.46.440,MainFlow,2024.2.4,138.9869518929748,2025-03-11 23h06.09.458149 +0700,
1,1,1,2,letter/lettth061.png,letter/letten062.png,94,94,0,z,0.18476340000052005,None,0,94,94,94,164.25923049999983,,,,,,,164.25923049999983,165.24300519999815,165.24944010000036,165.24944010000036,165.43786859999818,z,0.18476340000052005,None,165.4380000999954,165.44378309999593,165.6253837999975,165.24944010000036,,,,,,,,KN_th,001,2025-03-11_23h05.46.440,MainFlow,2024.2.4,138.9869518929748,2025-03-11 23h06.09.458149 +0700,
1,3,2,3,letter/lettgr153.png,letter/lettth155.png,95,95,0,x,0.18679590000829194,None,0,95,95,95,165.6421829000028,,,,,,,165.6421829000028,166.6318115000031,166.63787120000052,166.63787120000052,166.82769550000376,x,0.18679590000829194,None,166.8279060000059,166.8330808000028,167.01401339999575,166.63787120000052,,,,,,,,KN_th,001,2025-03-11_23h05.46.440,MainFlow,2024.2.4,138.9869518929748,2025-03-11 23h06.09.458149 +0700,
,,,,,,,,,,,,,,,,,,,,,,,,,,,,,,,,,,,167.01427319999493,167.02053870000236,167.02053870000236,168.77043659999617,space,1.745822600001702,None,KN_th,001,2025-03-11_23h05.46.440,MainFlow,2024.2.4,138.9869518929748,2025-03-11 23h06.09.458149 +0700,
