lang,langpair,sequence,pairid,firstdir,seconddir,thisN,thisTrialN,thisRepN,key_resp.keys,key_resp.rt,key_resp.duration,trials.thisRepN,trials.thisTrialN,trials.thisN,trials.thisIndex,thisRow.t,notes,tutorial.started,tutorial.stopped,key_instruct.keys,key_instruct.rt,key_instruct.duration,image_first.started,letterselect.started,instruct.started,key_resp.started,letterselect.stopped,trials.key_resp.keys,trials.key_resp.rt,trials.key_resp.duration,blanknext.started,instruct_2.started,blanknext.stopped,image_first.stopped,ending.started,text_3.started,ending_key.started,ending.stopped,ending_key.keys,ending_key.rt,ending_key.duration,participant,session,date,expName,psychopyVersion,frameRate,expStart,
,,,,,,,,,,,,,,,,,,0.002942600000096718,2.0914869000007457,space,2.066456999997172,None,,,,,,,,,,,,,,,,,,,,KR_en,001,2025-03-10_20h41.44.726,MainFlow,2024.2.4,144.8030895188536,2025-03-10 20h41.56.680845 +0700,
2,2,1,6,letter/letten061.png,letter/lettkh155.png,0,0,0,z,1.2576685000021826,None,0,0,0,0,2.1584884000003512,,,,,,,2.1584884000003512,3.1018336999986786,3.1053820999986783,3.1053820999986783,4.367599900000641,z,1.2576685000021826,None,4.376178099999379,4.382146399999328,4.554100599998492,,,,,,,,,KR_en,001,2025-03-10_20h41.44.726,MainFlow,2024.2.4,144.8030895188536,2025-03-10 20h41.56.680845 +0700,
2,1,2,2,letter/lettth142.png,letter/letten181.png,1,1,0,x,0.18829879999975674,None,0,1,1,1,4.586635200001183,,,,,,,4.586635200001183,5.5744269999995595,5.580804000001081,5.580804000001081,5.775844199997664,x,0.18829879999975674,None,5.775906099999702,5.782022499999584,5.963098199998058,,,,,,,,,KR_en,001,2025-03-10_20h41.44.726,MainFlow,2024.2.4,144.8030895188536,2025-03-10 20h41.56.680845 +0700,
2,1,1,2,letter/letten181.png,letter/lettth142.png,2,2,0,z,0.21911700000055134,None,0,2,2,2,5.991473699999915,,,,,,,5.991473699999915,6.976650500000687,6.983201200000622,6.983201200000622,7.2060366999976395,z,0.21911700000055134,None,7.206096099998831,7.21230690000084,7.393112499998097,,,,,,,,,KR_en,001,2025-03-10_20h41.44.726,MainFlow,2024.2.4,144.8030895188536,2025-03-10 20h41.56.680845 +0700,
2,2,1,8,letter/letten051.png,letter/lettkh035.png,3,3,0,z,0.24496200000066892,None,0,3,3,3,7.4001831999994465,,,,,,,7.4001831999994465,8.386269499998889,8.399481299999024,8.399481299999024,8.650106900000537,z,0.24496200000066892,None,8.650171400000545,8.656389199997648,8.8373614000011,8.392533499998535,,,,,,,,KR_en,001,2025-03-10_20h41.44.726,MainFlow,2024.2.4,144.8030895188536,2025-03-10 20h41.56.680845 +0700,
2,3,2,2,letter/lettgr061.png,letter/letten061.png,4,4,0,x,0.208924599999591,None,0,4,4,4,8.84444749999966,,,,,,,8.84444749999966,9.830968300000677,9.843742400000338,9.843742400000338,10.059812299998157,x,0.208924599999591,None,10.059905699999945,10.065821600001073,10.246771699999954,9.83670279999933,,,,,,,,KR_en,001,2025-03-10_20h41.44.726,MainFlow,2024.2.4,144.8030895188536,2025-03-10 20h41.56.680845 +0700,
2,3,1,7,letter/letten062.png,letter/lettgr065.png,5,5,0,z,0.14791930000137654,None,0,5,5,5,10.254953499999829,,,,,,,10.254953499999829,11.24020770000061,11.253149000000121,11.253149000000121,11.406727900000988,z,0.14791930000137654,None,11.40679430000091,11.412820999998075,11.593823600000178,11.24614599999768,,,,,,,,KR_en,001,2025-03-10_20h41.44.726,MainFlow,2024.2.4,144.8030895188536,2025-03-10 20h41.56.680845 +0700,
2,2,1,7,letter/letten112.png,letter/lettkh083.png,6,6,0,z,0.08658579999973881,None,0,6,6,6,11.608372700000473,,,,,,,11.608372700000473,12.594022299999779,12.600040599998465,12.600040599998465,12.69100890000118,z,0.08658579999973881,None,12.69107399999848,12.697247799998877,12.878128299998934,12.600040599998465,,,,,,,,KR_en,001,2025-03-10_20h41.44.726,MainFlow,2024.2.4,144.8030895188536,2025-03-10 20h41.56.680845 +0700,
2,1,1,1,letter/letten041.png,letter/lettth022.png,7,7,0,z,0.1329347000028065,None,0,7,7,7,12.885162700000365,,,,,,,12.885162700000365,13.871318299999984,13.884588400000212,13.884588400000212,14.024790999999823,z,0.1329347000028065,None,14.024929999999586,14.03048950000084,14.211209199998848,13.877567200001067,,,,,,,,KR_en,001,2025-03-10_20h41.44.726,MainFlow,2024.2.4,144.8030895188536,2025-03-10 20h41.56.680845 +0700,
2,3,1,6,letter/letten061.png,letter/lettgr066.png,8,8,0,z,0.2625478000009025,None,0,8,8,8,14.218338799997582,,,,,,,14.218338799997582,15.204846799999359,15.217606599999272,15.217606599999272,15.48293460000059,z,0.2625478000009025,None,15.48300019999806,15.488410300000396,15.669261899998673,15.210635899999033,,,,,,,,KR_en,001,2025-03-10_20h41.44.726,MainFlow,2024.2.4,144.8030895188536,2025-03-10 20h41.56.680845 +0700,
2,2,2,6,letter/lettkh155.png,letter/letten061.png,9,9,0,x,0.24969249999776366,None,0,9,9,9,15.692491599998903,,,,,,,15.692491599998903,16.67641989999902,16.682612299999164,16.682612299999164,16.933228499998222,x,0.24969249999776366,None,16.933292800000345,16.939516899998125,17.120597900000575,16.682612299999164,,,,,,,,KR_en,001,2025-03-10_20h41.44.726,MainFlow,2024.2.4,144.8030895188536,2025-03-10 20h41.56.680845 +0700,
2,1,2,6,letter/lettth132.png,letter/letten091.png,10,10,0,x,0.1858256999985315,None,0,10,10,10,17.127379199999268,,,,,,,17.127379199999268,18.113609500000166,18.12679500000013,18.12679500000013,18.315642900000967,x,0.1858256999985315,None,18.31575739999971,18.321289399998932,18.503123399998003,18.119866299999558,,,,,,,,KR_en,001,2025-03-10_20h41.44.726,MainFlow,2024.2.4,144.8030895188536,2025-03-10 20h41.56.680845 +0700,
2,2,1,5,letter/letten051.png,letter/lettkh157.png,11,11,0,z,0.19237490000159596,None,0,11,11,11,18.5206016000011,,,,,,,18.5206016000011,19.50929779999933,19.515443100000994,19.515443100000994,19.710324100000435,z,0.19237490000159596,None,19.710382400000526,19.716694099999586,19.89851070000077,19.515443100000994,,,,,,,,KR_en,001,2025-03-10_20h41.44.726,MainFlow,2024.2.4,144.8030895188536,2025-03-10 20h41.56.680845 +0700,
2,3,1,3,letter/letten061.png,letter/lettgr063.png,12,12,0,z,0.10447690000000875,None,0,12,12,12,19.912713599998824,,,,,,,19.912713599998824,20.897843200000352,20.90399679999973,20.90399679999973,21.010730499998317,z,0.10447690000000875,None,21.01094000000012,21.016006599998946,21.196832300000096,20.90399679999973,,,,,,,,KR_en,001,2025-03-10_20h41.44.726,MainFlow,2024.2.4,144.8030895188536,2025-03-10 20h41.56.680845 +0700,
2,2,2,8,letter/lettkh035.png,letter/letten051.png,13,13,0,x,0.2162304999983462,None,0,13,13,13,21.25391149999996,,,,,,,21.25391149999996,22.217201200001,22.223489199997857,22.223489199997857,22.446899399998074,x,0.2162304999983462,None,22.447063100000378,22.45251880000069,22.634219200001098,,,,,,,,,KR_en,001,2025-03-10_20h41.44.726,MainFlow,2024.2.4,144.8030895188536,2025-03-10 20h41.56.680845 +0700,
2,1,2,3,letter/lettth152.png,letter/letten142.png,14,14,0,x,0.24516790000052424,None,0,14,14,14,22.65088299999843,,,,,,,22.65088299999843,23.640272699998604,23.646480399998836,23.646480399998836,23.897131499998068,x,0.24516790000052424,None,23.8971973000007,23.90345840000009,24.084883899999113,23.646480399998836,,,,,,,,KR_en,001,2025-03-10_20h41.44.726,MainFlow,2024.2.4,144.8030895188536,2025-03-10 20h41.56.680845 +0700,
2,2,2,6,letter/lettkh155.png,letter/letten061.png,15,15,0,x,0.2289213000003656,None,0,15,15,15,24.0954911000008,,,,,,,24.0954911000008,25.08484519999911,25.09089269999822,25.09089269999822,25.320580499999778,x,0.2289213000003656,None,25.32064249999894,25.326770299998316,25.507656400000997,25.09089269999822,,,,,,,,KR_en,001,2025-03-10_20h41.44.726,MainFlow,2024.2.4,144.8030895188536,2025-03-10 20h41.56.680845 +0700,
2,3,1,1,letter/letten021.png,letter/lettgr021.png,16,16,0,z,0.13222250000035274,None,0,16,16,16,25.5224046000003,,,,,,,25.5224046000003,26.507907799998065,26.514158499998302,26.514158499998302,26.65361049999774,z,0.13222250000035274,None,26.653677399997832,26.659940300000017,26.840901899999153,26.514158499998302,,,,,,,,KR_en,001,2025-03-10_20h41.44.726,MainFlow,2024.2.4,144.8030895188536,2025-03-10 20h41.56.680845 +0700,
2,3,1,3,letter/letten061.png,letter/lettgr063.png,17,17,0,z,0.14131430000270484,None,0,17,17,17,26.85407810000106,,,,,,,26.85407810000106,27.84121640000012,27.847374099997978,27.847374099997978,27.993982299998606,z,0.14131430000270484,None,27.994045299998106,28.000155199999426,28.181019699997705,27.847374099997978,,,,,,,,KR_en,001,2025-03-10_20h41.44.726,MainFlow,2024.2.4,144.8030895188536,2025-03-10 20h41.56.680845 +0700,
2,2,1,1,letter/letten153.png,letter/lettkh159.png,18,18,0,z,0.14593459999741754,None,0,18,18,18,28.19438420000006,,,,,,,28.19438420000006,29.18093819999922,29.187164399998437,29.187164399998437,29.333815800000593,z,0.14593459999741754,None,29.33387980000043,29.339858299998014,29.520882199998596,29.187164399998437,,,,,,,,KR_en,001,2025-03-10_20h41.44.726,MainFlow,2024.2.4,144.8030895188536,2025-03-10 20h41.56.680845 +0700,
2,1,1,6,letter/letten091.png,letter/lettth132.png,19,19,0,z,0.18617860000085784,None,0,19,19,19,29.534489300000132,,,,,,,29.534489300000132,30.52114889999939,30.527230100000452,30.527230100000452,30.715363700001035,z,0.18617860000085784,None,30.715429699997912,30.72157579999839,30.902533699998457,30.527230100000452,,,,,,,,KR_en,001,2025-03-10_20h41.44.726,MainFlow,2024.2.4,144.8030895188536,2025-03-10 20h41.56.680845 +0700,
2,3,2,5,letter/lettgr012.png,letter/letten011.png,20,20,0,x,0.1508854000021529,None,0,20,20,20,30.915076900000713,,,,,,,30.915076900000713,31.90274209999916,31.908904500000062,31.908904500000062,32.06273069999952,x,0.1508854000021529,None,32.06281769999987,32.0686074999976,32.24956530000054,31.908904500000062,,,,,,,,KR_en,001,2025-03-10_20h41.44.726,MainFlow,2024.2.4,144.8030895188536,2025-03-10 20h41.56.680845 +0700,
2,1,1,2,letter/letten181.png,letter/lettth142.png,21,21,0,z,0.18813959999897634,None,0,21,21,21,32.26494289999755,,,,,,,32.26494289999755,33.24969269999929,33.25594579999961,33.25594579999961,33.45086119999905,z,0.18813959999897634,None,33.45092089999889,33.45713819999946,33.63812450000114,33.25594579999961,,,,,,,,KR_en,001,2025-03-10_20h41.44.726,MainFlow,2024.2.4,144.8030895188536,2025-03-10 20h41.56.680845 +0700,
2,2,1,5,letter/letten051.png,letter/lettkh157.png,22,22,0,z,0.168026600000303,None,0,22,22,22,33.649802199997794,,,,,,,33.649802199997794,34.63841300000058,34.64444920000096,34.64444920000096,34.818676799997775,z,0.168026600000303,None,34.81873709999854,34.824919700000464,35.005827999997564,34.64444920000096,,,,,,,,KR_en,001,2025-03-10_20h41.44.726,MainFlow,2024.2.4,144.8030895188536,2025-03-10 20h41.56.680845 +0700,
2,3,1,4,letter/letten062.png,letter/lettgr063.png,23,23,0,z,0.06481410000196774,None,0,23,23,23,35.01893469999777,,,,,,,35.01893469999777,36.00607640000089,36.0122397999985,36.0122397999985,36.082408499998564,z,0.06481410000196774,None,36.0824735999995,36.08862009999939,36.269564700000046,36.0122397999985,,,,,,,,KR_en,001,2025-03-10_20h41.44.726,MainFlow,2024.2.4,144.8030895188536,2025-03-10 20h41.56.680845 +0700,
2,3,2,3,letter/lettgr063.png,letter/letten061.png,24,24,0,x,0.09578669999973499,None,0,24,24,24,36.282777699998405,,,,,,,36.282777699998405,37.26958620000005,37.275794099998166,37.275794099998166,37.37374769999951,x,0.09578669999973499,None,37.373810799999774,37.3799637000011,37.560810399998445,37.275794099998166,,,,,,,,KR_en,001,2025-03-10_20h41.44.726,MainFlow,2024.2.4,144.8030895188536,2025-03-10 20h41.56.680845 +0700,
2,2,2,5,letter/lettkh157.png,letter/letten051.png,25,25,0,x,0.5677174999982526,None,0,25,25,25,37.57808389999991,,,,,,,37.57808389999991,38.56104829999822,38.56727469999896,38.56727469999896,39.13898770000014,x,0.5677174999982526,None,39.139185,39.14383149999776,39.32518809999965,38.56727469999896,,,,,,,,KR_en,001,2025-03-10_20h41.44.726,MainFlow,2024.2.4,144.8030895188536,2025-03-10 20h41.56.680845 +0700,
2,3,1,5,letter/letten011.png,letter/lettgr012.png,26,26,0,z,0.1832834000015282,None,0,26,26,26,39.35891400000037,,,,,,,39.35891400000037,40.34548100000029,40.351896600001055,40.351896600001055,40.540707199997996,z,0.1832834000015282,None,40.54085099999793,40.54628369999773,40.72744109999985,,,,,,,,,KR_en,001,2025-03-10_20h41.44.726,MainFlow,2024.2.4,144.8030895188536,2025-03-10 20h41.56.680845 +0700,
2,3,1,1,letter/letten021.png,letter/lettgr021.png,27,27,0,z,0.033552299999428215,None,0,27,27,27,40.73940099999891,,,,,,,40.73940099999891,41.727829700001166,41.733420900000056,41.733420900000056,41.77057340000101,z,0.033552299999428215,None,41.77078489999985,41.775460400000156,41.95680469999934,41.733420900000056,,,,,,,,KR_en,001,2025-03-10_20h41.44.726,MainFlow,2024.2.4,144.8030895188536,2025-03-10 20h41.56.680845 +0700,
2,2,1,8,letter/letten051.png,letter/lettkh035.png,28,28,0,z,0.2078027999996266,None,0,28,28,28,41.973003700000845,,,,,,,41.973003700000845,42.95640939999794,42.962346100001014,42.962346100001014,43.17320860000109,z,0.2078027999996266,None,43.173426199999085,43.179906699999265,43.35883439999816,42.962346100001014,,,,,,,,KR_en,001,2025-03-10_20h41.44.726,MainFlow,2024.2.4,144.8030895188536,2025-03-10 20h41.56.680845 +0700,
2,3,1,4,letter/letten062.png,letter/lettgr063.png,29,29,0,z,0.16454820000217296,None,0,29,29,29,43.371631800000614,,,,,,,43.371631800000614,44.359104399998614,44.364936099998886,44.364936099998886,44.533024399999704,z,0.16454820000217296,None,44.53314229999887,44.53847029999815,44.71997310000006,44.364936099998886,,,,,,,,KR_en,001,2025-03-10_20h41.44.726,MainFlow,2024.2.4,144.8030895188536,2025-03-10 20h41.56.680845 +0700,
2,1,2,8,letter/lettth022.png,letter/letten131.png,30,30,0,x,0.028678800001216587,None,0,30,30,30,44.74648149999848,,,,,,,44.74648149999848,45.733442799999466,45.73972579999827,45.73972579999827,45.775555899999745,x,0.028678800001216587,None,45.775674500000605,45.781159499998466,45.96224219999931,,,,,,,,,KR_en,001,2025-03-10_20h41.44.726,MainFlow,2024.2.4,144.8030895188536,2025-03-10 20h41.56.680845 +0700,
2,2,1,1,letter/letten153.png,letter/lettkh159.png,31,31,0,z,0.06028530000185128,None,0,31,31,31,45.97172209999917,,,,,,,45.97172209999917,46.956431200000225,46.96857249999812,46.96857249999812,47.033650400000624,z,0.06028530000185128,None,47.03385669999989,47.03798989999996,47.21972409999944,46.9616337999978,,,,,,,,KR_en,001,2025-03-10_20h41.44.726,MainFlow,2024.2.4,144.8030895188536,2025-03-10 20h41.56.680845 +0700,
2,2,1,4,letter/letten071.png,letter/lettkh055.png,32,32,0,z,0.17075959999783663,None,0,32,32,32,47.25576649999857,,,,,,,47.25576649999857,48.24016800000027,48.2463201999999,48.2463201999999,48.42114429999856,z,0.17075959999783663,None,48.42128589999993,48.42786949999936,48.60796239999763,,,,,,,,,KR_en,001,2025-03-10_20h41.44.726,MainFlow,2024.2.4,144.8030895188536,2025-03-10 20h41.56.680845 +0700,
2,1,1,5,letter/letten121.png,letter/lettth101.png,33,33,0,z,0.19873540000116918,None,0,33,33,33,48.640263599998434,,,,,,,48.640263599998434,49.62816209999801,49.63463520000005,49.63463520000005,49.837839600000734,z,0.19873540000116918,None,49.837990699998045,49.84288949999973,50.024690199999895,,,,,,,,,KR_en,001,2025-03-10_20h41.44.726,MainFlow,2024.2.4,144.8030895188536,2025-03-10 20h41.56.680845 +0700,
2,2,2,4,letter/lettkh055.png,letter/letten071.png,34,34,0,x,0.1944881000017631,None,0,34,34,34,50.060857399999804,,,,,,,50.060857399999804,51.045139999998355,51.05115329999899,51.05115329999899,51.24730429999909,x,0.1944881000017631,None,51.24743279999893,51.25239180000062,51.43408920000002,,,,,,,,,KR_en,001,2025-03-10_20h41.44.726,MainFlow,2024.2.4,144.8030895188536,2025-03-10 20h41.56.680845 +0700,
2,1,1,5,letter/letten121.png,letter/lettth101.png,35,35,0,z,0.0774678000016138,None,0,35,35,35,51.45146870000099,,,,,,,51.45146870000099,52.44126469999901,52.446694899997965,52.446694899997965,52.532035299998824,z,0.0774678000016138,None,52.532251099997666,52.53710379999757,52.71834619999936,52.446694899997965,,,,,,,,KR_en,001,2025-03-10_20h41.44.726,MainFlow,2024.2.4,144.8030895188536,2025-03-10 20h41.56.680845 +0700,
2,2,2,3,letter/lettkh091.png,letter/letten071.png,36,36,0,x,0.08175690000280156,None,0,36,36,36,52.750447800000984,,,,,,,52.750447800000984,53.73831979999886,53.74488439999914,53.74488439999914,53.830574600000546,x,0.08175690000280156,None,53.83074889999989,53.83527319999848,54.01640520000001,,,,,,,,,KR_en,001,2025-03-10_20h41.44.726,MainFlow,2024.2.4,144.8030895188536,2025-03-10 20h41.56.680845 +0700,
2,2,1,6,letter/letten061.png,letter/lettkh155.png,37,37,0,z,0.021841300000232877,None,0,37,37,37,54.02650630000062,,,,,,,54.02650630000062,55.01646869999968,55.02246730000115,55.02246730000115,55.05104249999931,z,0.021841300000232877,None,55.05109900000025,55.05713289999767,55.238266100001056,55.02246730000115,,,,,,,,KR_en,001,2025-03-10_20h41.44.726,MainFlow,2024.2.4,144.8030895188536,2025-03-10 20h41.56.680845 +0700,
2,1,1,4,letter/letten101.png,letter/lettth011.png,38,38,0,z,0.489255200001935,None,0,38,38,38,55.25953659999868,,,,,,,55.25953659999868,56.24576519999755,56.25152589999925,56.25152589999925,56.747267499999,z,0.489255200001935,None,56.74752660000013,56.75282539999898,56.93324919999941,56.25152589999925,,,,,,,,KR_en,001,2025-03-10_20h41.44.726,MainFlow,2024.2.4,144.8030895188536,2025-03-10 20h41.56.680845 +0700,
2,3,2,4,letter/lettgr063.png,letter/letten062.png,39,39,0,x,0.20639619999928982,None,0,39,39,39,56.953533199997764,,,,,,,56.953533199997764,57.93975280000086,57.94562769999902,57.94562769999902,58.155181499998434,x,0.20639619999928982,None,58.15530849999777,58.160742399999435,58.3420643999998,57.94562769999902,,,,,,,,KR_en,001,2025-03-10_20h41.44.726,MainFlow,2024.2.4,144.8030895188536,2025-03-10 20h41.56.680845 +0700,
2,3,1,2,letter/letten061.png,letter/lettgr061.png,40,40,0,z,0.17842450000171084,None,0,40,40,40,58.35732680000001,,,,,,,58.35732680000001,59.34249709999858,59.34807060000094,59.34807060000094,59.52976239999771,z,0.17842450000171084,None,59.52989289999823,59.53547809999873,59.71741639999891,59.34807060000094,,,,,,,,KR_en,001,2025-03-10_20h41.44.726,MainFlow,2024.2.4,144.8030895188536,2025-03-10 20h41.56.680845 +0700,
2,2,2,7,letter/lettkh083.png,letter/letten112.png,41,41,0,x,0.2025489000006928,None,0,41,41,41,59.75439709999773,,,,,,,59.75439709999773,60.73101229999884,60.736967099997855,60.736967099997855,60.94597399999839,x,0.2025489000006928,None,60.9460313999989,60.95174509999924,61.13325419999819,,,,,,,,,KR_en,001,2025-03-10_20h41.44.726,MainFlow,2024.2.4,144.8030895188536,2025-03-10 20h41.56.680845 +0700,
2,1,2,2,letter/lettth142.png,letter/letten181.png,42,42,0,x,0.1438293999999587,None,0,42,42,42,61.158703799999785,,,,,,,61.158703799999785,62.14696059999915,62.15318149999803,62.15318149999803,62.30147489999945,x,0.1438293999999587,None,62.30168910000066,62.30625399999917,62.48764939999819,,,,,,,,,KR_en,001,2025-03-10_20h41.44.726,MainFlow,2024.2.4,144.8030895188536,2025-03-10 20h41.56.680845 +0700,
2,2,1,7,letter/letten112.png,letter/lettkh083.png,43,43,0,z,0.06436509999912232,None,0,43,43,43,62.51286210000035,,,,,,,62.51286210000035,63.50179139999818,63.507142399997974,63.507142399997974,63.57775209999818,z,0.06436509999912232,None,63.57786990000022,63.583357200001046,63.76510159999816,63.507142399997974,,,,,,,,KR_en,001,2025-03-10_20h41.44.726,MainFlow,2024.2.4,144.8030895188536,2025-03-10 20h41.56.680845 +0700,
2,2,2,3,letter/lettkh091.png,letter/letten071.png,44,44,0,x,0.21284980000200449,None,0,44,44,44,63.78148940000028,,,,,,,63.78148940000028,64.76569309999832,64.77096049999818,64.77096049999818,64.98844939999981,x,0.21284980000200449,None,64.98867059999975,64.9937652999979,65.1744749999998,64.77096049999818,,,,,,,,KR_en,001,2025-03-10_20h41.44.726,MainFlow,2024.2.4,144.8030895188536,2025-03-10 20h41.56.680845 +0700,
2,2,2,5,letter/lettkh157.png,letter/letten051.png,45,45,0,x,0.08141859999886947,None,0,45,45,45,65.19484309999825,,,,,,,65.19484309999825,66.18188839999857,66.18714199999886,66.18714199999886,66.27189050000015,x,0.08141859999886947,None,66.27205559999857,66.277250799998,66.45856889999777,66.18714199999886,,,,,,,,KR_en,001,2025-03-10_20h41.44.726,MainFlow,2024.2.4,144.8030895188536,2025-03-10 20h41.56.680845 +0700,
2,1,2,3,letter/lettth152.png,letter/letten142.png,46,46,0,x,0.1092878000017663,None,0,46,46,46,66.48523619999833,,,,,,,66.48523619999833,67.4730501999984,67.47851119999905,67.47851119999905,67.59079310000016,x,0.1092878000017663,None,67.59092849999797,67.59641539999939,67.77827980000075,67.47851119999905,,,,,,,,KR_en,001,2025-03-10_20h41.44.726,MainFlow,2024.2.4,144.8030895188536,2025-03-10 20h41.56.680845 +0700,
2,2,2,2,letter/lettkh013.png,letter/letten121.png,47,47,0,x,0.10760179999851971,None,0,47,47,47,67.8119392999979,,,,,,,67.8119392999979,68.79131430000052,68.79770120000103,68.79770120000103,68.91107199999897,x,0.10760179999851971,None,68.91128169999865,68.91640899999766,69.09726139999839,,,,,,,,,KR_en,001,2025-03-10_20h41.44.726,MainFlow,2024.2.4,144.8030895188536,2025-03-10 20h41.56.680845 +0700,
2,1,2,6,letter/lettth132.png,letter/letten091.png,48,48,0,x,0.17192710000017541,None,0,48,48,48,69.12948569999935,,,,,,,69.12948569999935,70.11705969999821,70.12360009999975,70.12360009999975,70.29854259999775,x,0.17192710000017541,None,70.2986548000008,70.30418269999791,70.4858353999989,,,,,,,,,KR_en,001,2025-03-10_20h41.44.726,MainFlow,2024.2.4,144.8030895188536,2025-03-10 20h41.56.680845 +0700,
2,1,2,1,letter/lettth022.png,letter/letten041.png,49,49,0,x,0.05581570000140346,None,0,49,49,49,70.50308369999766,,,,,,,70.50308369999766,71.4926059999998,71.49848740000016,71.49848740000016,71.55587150000065,x,0.05581570000140346,None,71.55602490000092,71.56093459999829,71.74292729999797,71.49848740000016,,,,,,,,KR_en,001,2025-03-10_20h41.44.726,MainFlow,2024.2.4,144.8030895188536,2025-03-10 20h41.56.680845 +0700,
2,1,1,3,letter/letten142.png,letter/lettth152.png,50,50,0,z,0.09937170000193873,None,0,50,50,50,71.76603659999819,,,,,,,71.76603659999819,72.74997969999822,72.75533279999945,72.75533279999945,72.8611854999981,z,0.09937170000193873,None,72.86134070000116,72.86639930000092,73.04738680000082,72.75533279999945,,,,,,,,KR_en,001,2025-03-10_20h41.44.726,MainFlow,2024.2.4,144.8030895188536,2025-03-10 20h41.56.680845 +0700,
2,1,2,8,letter/lettth022.png,letter/letten131.png,51,51,0,x,0.2791945000026317,None,0,51,51,51,73.0571173999997,,,,,,,73.0571173999997,74.04063020000103,74.05348389999926,74.05348389999926,74.3386258999999,x,0.2791945000026317,None,74.33869029999914,74.34497569999803,74.52678209999794,74.04651250000097,,,,,,,,KR_en,001,2025-03-10_20h41.44.726,MainFlow,2024.2.4,144.8030895188536,2025-03-10 20h41.56.680845 +0700,
2,2,1,2,letter/letten121.png,letter/lettkh013.png,52,52,0,z,0.09398929999952088,None,0,52,52,52,74.54533190000075,,,,,,,74.54533190000075,75.53348189999815,75.53932770000029,75.53932770000029,75.63831659999778,z,0.09398929999952088,None,75.63847560000067,75.6441163999989,75.82524560000093,75.53932770000029,,,,,,,,KR_en,001,2025-03-10_20h41.44.726,MainFlow,2024.2.4,144.8030895188536,2025-03-10 20h41.56.680845 +0700,
2,3,1,2,letter/letten061.png,letter/lettgr061.png,53,53,0,z,0.1406317000000854,None,0,53,53,53,75.84451889999764,,,,,,,75.84451889999764,76.8327446000003,76.83803859999898,76.83803859999898,76.985156499999,z,0.1406317000000854,None,76.98530969999774,76.9904338999986,77.17227749999802,76.83803859999898,,,,,,,,KR_en,001,2025-03-10_20h41.44.726,MainFlow,2024.2.4,144.8030895188536,2025-03-10 20h41.56.680845 +0700,
2,2,2,1,letter/lettkh159.png,letter/letten153.png,54,54,0,x,0.05691320000187261,None,0,54,54,54,77.21234339999864,,,,,,,77.21234339999864,78.1920089999985,78.19848229999843,78.19848229999843,78.26244080000106,x,0.05691320000187261,None,78.26266680000117,78.26794789999985,78.44866089999778,,,,,,,,,KR_en,001,2025-03-10_20h41.44.726,MainFlow,2024.2.4,144.8030895188536,2025-03-10 20h41.56.680845 +0700,
2,1,1,4,letter/letten101.png,letter/lettth011.png,55,55,0,z,0.14529960000072606,None,0,55,55,55,78.4556788000009,,,,,,,78.4556788000009,79.44328830000086,79.45540339999934,79.45540339999934,79.60276569999769,z,0.14529960000072606,None,79.60292299999855,79.60805400000027,79.7897183999994,79.44843739999851,,,,,,,,KR_en,001,2025-03-10_20h41.44.726,MainFlow,2024.2.4,144.8030895188536,2025-03-10 20h41.56.680845 +0700,
2,3,1,8,letter/letten152.png,letter/lettgr152.png,56,56,0,z,0.11179039999842644,None,0,56,56,56,79.81471220000094,,,,,,,79.81471220000094,80.8034860000007,80.80930159999843,80.80930159999843,80.92804109999997,z,0.11179039999842644,None,80.92809990000023,80.93394699999772,81.11556229999769,80.80930159999843,,,,,,,,KR_en,001,2025-03-10_20h41.44.726,MainFlow,2024.2.4,144.8030895188536,2025-03-10 20h41.56.680845 +0700,
2,3,2,1,letter/lettgr021.png,letter/letten021.png,57,57,0,x,0.2728090999989945,None,0,57,57,57,81.14453090000097,,,,,,,81.14453090000097,82.12913190000108,82.1353812999987,82.1353812999987,82.41490340000018,x,0.2728090999989945,None,82.41505939999843,82.41990029999943,82.60140970000066,,,,,,,,,KR_en,001,2025-03-10_20h41.44.726,MainFlow,2024.2.4,144.8030895188536,2025-03-10 20h41.56.680845 +0700,
2,1,2,7,letter/lettth132.png,letter/letten062.png,58,58,0,x,0.1453457999996317,None,0,58,58,58,82.61313109999901,,,,,,,82.61313109999901,83.60158579999916,83.60721199999898,83.60721199999898,83.75434160000077,x,0.1453457999996317,None,83.75446440000087,83.75999589999992,83.94097219999821,83.60721199999898,,,,,,,,KR_en,001,2025-03-10_20h41.44.726,MainFlow,2024.2.4,144.8030895188536,2025-03-10 20h41.56.680845 +0700,
2,3,2,2,letter/lettgr061.png,letter/letten061.png,59,59,0,x,0.1976490000015474,None,0,59,59,59,83.96683859999757,,,,,,,83.96683859999757,84.9547206999996,84.96129089999886,84.96129089999886,85.16437460000088,x,0.1976490000015474,None,85.16455610000048,85.16943329999776,85.35119169999962,,,,,,,,,KR_en,001,2025-03-10_20h41.44.726,MainFlow,2024.2.4,144.8030895188536,2025-03-10 20h41.56.680845 +0700,
2,2,2,4,letter/lettkh055.png,letter/letten071.png,60,60,0,x,0.15463810000073863,None,0,60,60,60,85.362090300001,,,,,,,85.362090300001,86.350287199999,86.35660389999975,86.35660389999975,86.51784069999849,x,0.15463810000073863,None,86.51801239999986,86.52324189999854,86.70500660000107,86.35660389999975,,,,,,,,KR_en,001,2025-03-10_20h41.44.726,MainFlow,2024.2.4,144.8030895188536,2025-03-10 20h41.56.680845 +0700,
2,1,2,5,letter/lettth101.png,letter/letten121.png,61,61,0,x,0.09416779999810387,None,0,61,61,61,86.74394219999886,,,,,,,86.74394219999886,87.71818849999909,87.7245925999996,87.7245925999996,87.82390139999916,x,0.09416779999810387,None,87.82411560000037,87.8293808999988,88.01052490000075,,,,,,,,,KR_en,001,2025-03-10_20h41.44.726,MainFlow,2024.2.4,144.8030895188536,2025-03-10 20h41.56.680845 +0700,
2,3,1,8,letter/letten152.png,letter/lettgr152.png,62,62,0,z,0.1411617000012484,None,0,62,62,62,88.03041049999956,,,,,,,88.03041049999956,89.0174263000008,89.02289089999977,89.02289089999977,89.16992879999816,z,0.1411617000012484,None,89.17005140000037,89.17550940000001,89.35669159999816,89.02289089999977,,,,,,,,KR_en,001,2025-03-10_20h41.44.726,MainFlow,2024.2.4,144.8030895188536,2025-03-10 20h41.56.680845 +0700,
2,1,2,5,letter/lettth101.png,letter/letten121.png,63,63,0,x,0.06272750000061933,None,0,63,63,63,89.36828379999861,,,,,,,89.36828379999861,90.35779349999939,90.36291820000042,90.36291820000042,90.43297829999938,x,0.06272750000061933,None,90.43305129999862,90.43919119999919,90.62046949999785,90.36291820000042,,,,,,,,KR_en,001,2025-03-10_20h41.44.726,MainFlow,2024.2.4,144.8030895188536,2025-03-10 20h41.56.680845 +0700,
2,3,2,8,letter/lettgr152.png,letter/letten152.png,64,64,0,x,0.19159840000065742,None,0,64,64,64,90.65158059999885,,,,,,,90.65158059999885,91.63395409999794,91.64039639999828,91.64039639999828,91.83652299999812,x,0.19159840000065742,None,91.83668039999975,91.84183119999943,92.0225896999982,,,,,,,,,KR_en,001,2025-03-10_20h41.44.726,MainFlow,2024.2.4,144.8030895188536,2025-03-10 20h41.56.680845 +0700,
2,2,1,2,letter/letten121.png,letter/lettkh013.png,65,65,0,z,0.18211220000011963,None,0,65,65,65,92.0295832999982,,,,,,,92.0295832999982,93.01704619999873,93.0291455000006,93.0291455000006,93.2178888999988,z,0.18211220000011963,None,93.21794229999796,93.22327410000071,93.40432729999884,93.02217029999883,,,,,,,,KR_en,001,2025-03-10_20h41.44.726,MainFlow,2024.2.4,144.8030895188536,2025-03-10 20h41.56.680845 +0700,
2,3,1,5,letter/letten011.png,letter/lettgr012.png,66,66,0,z,0.14475730000049225,None,0,66,66,66,93.41430229999969,,,,,,,93.41430229999969,94.3984750999989,94.41083699999945,94.41083699999945,94.5576015000006,z,0.14475730000049225,None,94.55772459999935,94.5634315999996,94.74509440000111,94.40382669999963,,,,,,,,KR_en,001,2025-03-10_20h41.44.726,MainFlow,2024.2.4,144.8030895188536,2025-03-10 20h41.56.680845 +0700,
2,2,1,3,letter/letten071.png,letter/lettkh091.png,67,67,0,z,0.20202860000063083,None,0,67,67,67,94.76002629999857,,,,,,,94.76002629999857,95.74529389999952,95.75088479999977,95.75088479999977,95.9602636999989,z,0.20202860000063083,None,95.96038570000019,95.96598449999874,96.1471825999979,95.75088479999977,,,,,,,,KR_en,001,2025-03-10_20h41.44.726,MainFlow,2024.2.4,144.8030895188536,2025-03-10 20h41.56.680845 +0700,
2,1,1,8,letter/letten131.png,letter/lettth022.png,68,68,0,z,0.16399620000083814,None,0,68,68,68,96.1742333000002,,,,,,,96.1742333000002,97.16098119999879,97.16721999999936,97.16721999999936,97.33486360000097,z,0.16399620000083814,None,97.33498279999912,97.34058910000022,97.52197329999763,,,,,,,,,KR_en,001,2025-03-10_20h41.44.726,MainFlow,2024.2.4,144.8030895188536,2025-03-10 20h41.56.680845 +0700,
2,3,2,4,letter/lettgr063.png,letter/letten062.png,69,69,0,x,0.14850579999983893,None,0,69,69,69,97.5340369000005,,,,,,,97.5340369000005,98.5228817999996,98.52809909999996,98.52809909999996,98.68239800000083,x,0.14850579999983893,None,98.68254840000009,98.68768450000061,98.86946180000086,98.52809909999996,,,,,,,,KR_en,001,2025-03-10_20h41.44.726,MainFlow,2024.2.4,144.8030895188536,2025-03-10 20h41.56.680845 +0700,
2,1,1,6,letter/letten091.png,letter/lettth132.png,70,70,0,z,0.10116030000062892,None,0,70,70,70,98.88479459999871,,,,,,,98.88479459999871,99.86922219999906,99.8750235999978,99.8750235999978,99.98169309999867,z,0.10116030000062892,None,99.9819107000003,99.9870826999977,100.1674708999999,99.8750235999978,,,,,,,,KR_en,001,2025-03-10_20h41.44.726,MainFlow,2024.2.4,144.8030895188536,2025-03-10 20h41.56.680845 +0700,
2,3,2,3,letter/lettgr063.png,letter/letten061.png,71,71,0,x,0.27401779999854625,None,0,71,71,71,100.18198940000002,,,,,,,100.18198940000002,101.16760509999949,101.17324530000042,101.17324530000042,101.45339590000003,x,0.27401779999854625,None,101.45361129999947,101.45928099999946,101.63928609999857,101.17324530000042,,,,,,,,KR_en,001,2025-03-10_20h41.44.726,MainFlow,2024.2.4,144.8030895188536,2025-03-10 20h41.56.680845 +0700,
2,3,2,6,letter/lettgr066.png,letter/letten061.png,72,72,0,x,0.15349639999840292,None,0,72,72,72,101.67469449999771,,,,,,,101.67469449999771,102.65981719999763,102.66619549999814,102.66619549999814,102.82688889999918,x,0.15349639999840292,None,102.82700950000071,102.83258909999859,103.01370369999859,,,,,,,,,KR_en,001,2025-03-10_20h41.44.726,MainFlow,2024.2.4,144.8030895188536,2025-03-10 20h41.56.680845 +0700,
2,3,2,7,letter/lettgr065.png,letter/letten062.png,73,73,0,x,0.19182549999823095,None,0,73,73,73,103.0424185999982,,,,,,,103.0424185999982,104.0275443999999,104.0340288999978,104.0340288999978,104.22941979999814,x,0.19182549999823095,None,104.22954870000103,104.23509899999772,104.41694110000026,,,,,,,,,KR_en,001,2025-03-10_20h41.44.726,MainFlow,2024.2.4,144.8030895188536,2025-03-10 20h41.56.680845 +0700,
2,2,2,2,letter/lettkh013.png,letter/letten121.png,74,74,0,x,0.23759400000199093,None,0,74,74,74,104.43361619999996,,,,,,,104.43361619999996,105.42356289999952,105.42934509999759,105.42934509999759,105.67368469999928,x,0.23759400000199093,None,105.67378929999904,105.67922420000104,105.86036160000003,105.42934509999759,,,,,,,,KR_en,001,2025-03-10_20h41.44.726,MainFlow,2024.2.4,144.8030895188536,2025-03-10 20h41.56.680845 +0700,
2,3,2,7,letter/lettgr065.png,letter/letten062.png,75,75,0,x,0.23547749999852385,None,0,75,75,75,105.87210019999839,,,,,,,105.87210019999839,106.86096019999968,106.86663899999985,106.86663899999985,107.10498229999939,x,0.23547749999852385,None,107.10521239999798,107.11028040000019,107.29094329999862,106.86663899999985,,,,,,,,KR_en,001,2025-03-10_20h41.44.726,MainFlow,2024.2.4,144.8030895188536,2025-03-10 20h41.56.680845 +0700,
2,2,2,7,letter/lettkh083.png,letter/letten112.png,76,76,0,x,0.17461289999846485,None,0,76,76,76,107.30462529999932,,,,,,,107.30462529999932,108.29097879999972,108.29679209999813,108.29679209999813,108.47813369999858,x,0.17461289999846485,None,108.47819280000112,108.48425829999906,108.66594089999853,108.29679209999813,,,,,,,,KR_en,001,2025-03-10_20h41.44.726,MainFlow,2024.2.4,144.8030895188536,2025-03-10 20h41.56.680845 +0700,
2,3,2,8,letter/lettgr152.png,letter/letten152.png,77,77,0,x,0.15329069999643252,None,0,77,77,77,108.68270589999884,,,,,,,108.68270589999884,109.67342500000086,109.6786233999992,109.6786233999992,109.83948769999915,x,0.15329069999643252,None,109.83965589999934,109.84502659999998,110.02691390000109,109.6786233999992,,,,,,,,KR_en,001,2025-03-10_20h41.44.726,MainFlow,2024.2.4,144.8030895188536,2025-03-10 20h41.56.680845 +0700,
2,1,2,4,letter/lettth011.png,letter/letten101.png,78,78,0,x,0.1666570999987016,None,0,78,78,78,110.06361409999954,,,,,,,110.06361409999954,111.04008329999851,111.04644199999893,111.04644199999893,111.21533880000061,x,0.1666570999987016,None,111.21552139999767,111.22004879999804,111.40139709999858,,,,,,,,,KR_en,001,2025-03-10_20h41.44.726,MainFlow,2024.2.4,144.8030895188536,2025-03-10 20h41.56.680845 +0700,
2,3,2,1,letter/lettgr021.png,letter/letten021.png,79,79,0,x,0.20890300000246498,None,0,79,79,79,111.41541629999847,,,,,,,111.41541629999847,112.40121179999915,112.40732639999987,112.40732639999987,112.6246714000008,x,0.20890300000246498,None,112.62490109999999,112.63010919999942,112.81114859999798,112.40732639999987,,,,,,,,KR_en,001,2025-03-10_20h41.44.726,MainFlow,2024.2.4,144.8030895188536,2025-03-10 20h41.56.680845 +0700,
2,3,2,6,letter/lettgr066.png,letter/letten061.png,80,80,0,x,0.1971053999986907,None,0,80,80,80,112.82923889999802,,,,,,,112.82923889999802,113.8177379000008,113.82353629999852,113.82353629999852,114.02662469999996,x,0.1971053999986907,None,114.02678599999854,114.03169999999955,114.21284949999972,113.82353629999852,,,,,,,,KR_en,001,2025-03-10_20h41.44.726,MainFlow,2024.2.4,144.8030895188536,2025-03-10 20h41.56.680845 +0700,
2,1,2,7,letter/lettth132.png,letter/letten062.png,81,81,0,x,0.19466259999899194,None,0,81,81,81,114.22298949999822,,,,,,,114.22298949999822,115.20720509999956,115.21913800000038,115.21913800000038,115.41504139999961,x,0.19466259999899194,None,115.41516299999785,115.42054740000094,115.60244909999892,115.21222649999982,,,,,,,,KR_en,001,2025-03-10_20h41.44.726,MainFlow,2024.2.4,144.8030895188536,2025-03-10 20h41.56.680845 +0700,
2,2,1,4,letter/letten071.png,letter/lettkh055.png,82,82,0,z,0.24106409999876632,None,0,82,82,82,115.61609099999987,,,,,,,115.61609099999987,116.6025867999997,116.60789089999889,116.60789089999889,116.85185719999936,z,0.24106409999876632,None,116.85197699999844,116.85763239999869,117.03908379999848,116.60789089999889,,,,,,,,KR_en,001,2025-03-10_20h41.44.726,MainFlow,2024.2.4,144.8030895188536,2025-03-10 20h41.56.680845 +0700,
2,1,2,4,letter/lettth011.png,letter/letten101.png,83,83,0,x,0.21824109999943175,None,0,83,83,83,117.05335209999976,,,,,,,117.05335209999976,118.03913990000001,118.04502869999851,118.04502869999851,118.26950609999767,x,0.21824109999943175,None,118.26971820000108,118.27422579999984,118.45536549999815,118.04502869999851,,,,,,,,KR_en,001,2025-03-10_20h41.44.726,MainFlow,2024.2.4,144.8030895188536,2025-03-10 20h41.56.680845 +0700,
2,1,1,7,letter/letten062.png,letter/lettth132.png,84,84,0,z,0.1742950000007113,None,0,84,84,84,118.46851360000073,,,,,,,118.46851360000073,119.45618900000045,119.4616446,119.4616446,119.64330060000066,z,0.1742950000007113,None,119.64345599999797,119.64897930000006,119.82986729999902,119.4616446,,,,,,,,KR_en,001,2025-03-10_20h41.44.726,MainFlow,2024.2.4,144.8030895188536,2025-03-10 20h41.56.680845 +0700,
2,1,1,1,letter/letten041.png,letter/lettth022.png,85,85,0,z,0.21363579999888316,None,0,85,85,85,119.85082780000084,,,,,,,119.85082780000084,120.83749360000002,120.84307649999755,120.84307649999755,121.05954719999863,z,0.21363579999888316,None,121.05966919999992,121.0651973999993,121.24653240000043,120.84307649999755,,,,,,,,KR_en,001,2025-03-10_20h41.44.726,MainFlow,2024.2.4,144.8030895188536,2025-03-10 20h41.56.680845 +0700,
2,1,1,7,letter/letten062.png,letter/lettth132.png,86,86,0,z,0.19355480000012903,None,0,86,86,86,121.25957840000046,,,,,,,121.25957840000046,122.24693990000014,122.25258019999819,122.25258019999819,122.44934339999963,z,0.19355480000012903,None,122.44957839999915,122.45512260000032,122.63557049999872,122.25258019999819,,,,,,,,KR_en,001,2025-03-10_20h41.44.726,MainFlow,2024.2.4,144.8030895188536,2025-03-10 20h41.56.680845 +0700,
2,3,1,6,letter/letten061.png,letter/lettgr066.png,87,87,0,z,0.16716559999986202,None,0,87,87,87,122.6548885000011,,,,,,,122.6548885000011,123.64299000000028,123.64829779999855,123.64829779999855,123.82273189999978,z,0.16716559999986202,None,123.82278669999869,123.82851359999768,124.00968419999845,123.64829779999855,,,,,,,,KR_en,001,2025-03-10_20h41.44.726,MainFlow,2024.2.4,144.8030895188536,2025-03-10 20h41.56.680845 +0700,
2,1,1,3,letter/letten142.png,letter/lettth152.png,88,88,0,z,0.06397019999712938,None,0,88,88,88,124.01966650000031,,,,,,,124.01966650000031,125.00373519999994,125.01598129999911,125.01598129999911,125.08748299999934,z,0.06397019999712938,None,125.08769620000021,125.09370459999991,125.27321870000014,125.00891290000072,,,,,,,,KR_en,001,2025-03-10_20h41.44.726,MainFlow,2024.2.4,144.8030895188536,2025-03-10 20h41.56.680845 +0700,
2,3,2,5,letter/lettgr012.png,letter/letten011.png,89,89,0,x,0.09387419999984559,None,0,89,89,89,125.28492180000103,,,,,,,125.28492180000103,126.27429660000053,126.27956070000073,126.27956070000073,126.37793629999942,x,0.09387419999984559,None,126.37806300000011,126.38355619999857,126.56490259999919,126.27956070000073,,,,,,,,KR_en,001,2025-03-10_20h41.44.726,MainFlow,2024.2.4,144.8030895188536,2025-03-10 20h41.56.680845 +0700,
2,2,2,8,letter/lettkh035.png,letter/letten051.png,90,90,0,x,0.1417334999969171,None,0,90,90,90,126.58974029999808,,,,,,,126.58974029999808,127.5788012999983,127.58510469999965,127.58510469999965,127.73169109999799,x,0.1417334999969171,None,127.73179779999919,127.73754980000012,127.91884700000082,,,,,,,,,KR_en,001,2025-03-10_20h41.44.726,MainFlow,2024.2.4,144.8030895188536,2025-03-10 20h41.56.680845 +0700,
2,1,1,8,letter/letten131.png,letter/lettth022.png,91,91,0,z,0.08460030000060215,None,0,91,91,91,127.93048129999806,,,,,,,127.93048129999806,128.91960800000015,128.92483269999866,128.92483269999866,129.01611100000082,z,0.08460030000060215,None,129.0162343999982,129.02195909999864,129.20333459999893,128.92483269999866,,,,,,,,KR_en,001,2025-03-10_20h41.44.726,MainFlow,2024.2.4,144.8030895188536,2025-03-10 20h41.56.680845 +0700,
2,1,2,1,letter/lettth022.png,letter/letten041.png,92,92,0,x,0.46449389999907,None,0,92,92,92,129.21631379999963,,,,,,,129.21631379999963,130.20445479999762,130.209457500001,130.209457500001,130.67541720000008,x,0.46449389999907,None,130.6755168999989,130.68140289999792,130.8624595000001,130.209457500001,,,,,,,,KR_en,001,2025-03-10_20h41.44.726,MainFlow,2024.2.4,144.8030895188536,2025-03-10 20h41.56.680845 +0700,
2,3,1,7,letter/letten062.png,letter/lettgr065.png,93,93,0,z,0.23021410000001197,None,0,93,93,93,130.8736616999995,,,,,,,130.8736616999995,131.8636759000001,131.86892509999961,131.86892509999961,132.10751479999817,z,0.23021410000001197,None,132.1077336999988,132.11230179999984,132.29295649999767,131.86892509999961,,,,,,,,KR_en,001,2025-03-10_20h41.44.726,MainFlow,2024.2.4,144.8030895188536,2025-03-10 20h41.56.680845 +0700,
2,2,1,3,letter/letten071.png,letter/lettkh091.png,94,94,0,z,0.18446009999752278,None,0,94,94,94,132.30417939999825,,,,,,,132.30417939999825,133.29333179999958,133.29900350000025,133.29900350000025,133.48744969999825,z,0.18446009999752278,None,133.4876602000004,133.49336839999887,133.67530650000117,133.29900350000025,,,,,,,,KR_en,001,2025-03-10_20h41.44.726,MainFlow,2024.2.4,144.8030895188536,2025-03-10 20h41.56.680845 +0700,
2,2,2,1,letter/lettkh159.png,letter/letten153.png,95,95,0,x,0.11255869999877177,None,0,95,95,95,133.69501339999988,,,,,,,133.69501339999988,134.68246780000118,134.6877108000008,134.6877108000008,134.80716559999928,x,0.11255869999877177,None,134.80731829999786,134.81251839999823,134.9939534999976,134.6877108000008,,,,,,,,KR_en,001,2025-03-10_20h41.44.726,MainFlow,2024.2.4,144.8030895188536,2025-03-10 20h41.56.680845 +0700,
,,,,,,,,,,,,,,,,,,,,,,,,,,,,,,,,,,,134.99412830000074,135.00007379999806,135.00007379999806,151.48429680000118,space,16.48129059999701,None,KR_en,001,2025-03-10_20h41.44.726,MainFlow,2024.2.4,144.8030895188536,2025-03-10 20h41.56.680845 +0700,
