lang,langpair,sequence,pairid,firstdir,seconddir,thisN,thisTrialN,thisRepN,key_resp.keys,key_resp.rt,key_resp.duration,trials.thisRepN,trials.thisTrialN,trials.thisN,trials.thisIndex,thisRow.t,notes,tutorial.started,tutorial.stopped,key_instruct.keys,key_instruct.rt,key_instruct.duration,image_first.started,letterselect.started,instruct.started,key_resp.started,letterselect.stopped,trials.key_resp.keys,trials.key_resp.rt,trials.key_resp.duration,blanknext.started,instruct_2.started,blanknext.stopped,image_first.stopped,instruct_2.stopped,ending.started,text_3.started,ending_key.started,ending.stopped,ending_key.keys,ending_key.rt,ending_key.duration,participant,session,date,expName,psychopyVersion,frameRate,expStart,
,,,,,,,,,,,,,,,,,,0.005970700000034412,2.904476899999281,space,2.8596887000003335,None,,,,,,,,,,,,,,,,,,,,,NU_en,001,2025-03-07_12h04.41.361,MainFlow,2024.2.4,146.1206430466676,2025-03-07 12h05.03.293112 +0700,
2,2,1,6,letter/letten061.png,letter/lettkh155.png,0,0,0,z,1.1917504000002737,None,0,0,0,0,3.0945601999992505,,,,,,,3.0945601999992505,3.9346175000000585,3.9449328000000605,3.9449328000000605,5.144193000000087,z,1.1917504000002737,None,5.155377899999621,5.166290799999842,5.330334899999798,,,,,,,,,,NU_en,001,2025-03-07_12h04.41.361,MainFlow,2024.2.4,146.1206430466676,2025-03-07 12h05.03.293112 +0700,
2,1,2,2,letter/lettth142.png,letter/letten181.png,1,1,0,x,0.31365480000022217,None,0,1,1,1,5.35158439999941,,,,,,,5.35158439999941,6.338077599999451,6.343051500000001,6.343051500000001,6.665064199999506,x,0.31365480000022217,None,6.665264399999614,6.670567499999379,6.851327999999739,6.343051500000001,,,,,,,,,NU_en,001,2025-03-07_12h04.41.361,MainFlow,2024.2.4,146.1206430466676,2025-03-07 12h05.03.293112 +0700,
2,1,1,2,letter/letten181.png,letter/lettth142.png,2,2,0,z,0.4130506999999852,None,0,2,2,2,6.872907399999349,,,,,,,6.872907399999349,7.858791799999381,7.863803199999893,7.863803199999893,8.285673399999723,z,0.4130506999999852,None,8.285913799999435,8.29126659999929,8.47652719999951,7.863803199999893,8.498097299999245,,,,,,,,NU_en,001,2025-03-07_12h04.41.361,MainFlow,2024.2.4,146.1206430466676,2025-03-07 12h05.03.293112 +0700,
2,2,1,8,letter/letten051.png,letter/lettkh035.png,3,3,0,z,0.3714903999998569,None,0,3,3,3,8.498097299999245,,,,,,,8.498097299999245,9.48408070000005,9.489318299999468,9.489318299999468,9.865575499999977,z,0.3714903999998569,None,9.86571449999974,9.870639499999925,10.052080599999499,9.489318299999468,,,,,,,,,NU_en,001,2025-03-07_12h04.41.361,MainFlow,2024.2.4,146.1206430466676,2025-03-07 12h05.03.293112 +0700,
2,3,2,2,letter/lettgr061.png,letter/letten061.png,4,4,0,x,0.30012099999930797,None,0,4,4,4,10.065817099999549,,,,,,,10.065817099999549,11.053119700000025,11.058711099999528,11.058711099999528,11.365900699999656,x,0.30012099999930797,None,11.366106099999342,11.373352499999783,11.5524934999994,11.058711099999528,,,,,,,,,NU_en,001,2025-03-07_12h04.41.361,MainFlow,2024.2.4,146.1206430466676,2025-03-07 12h05.03.293112 +0700,
2,3,1,7,letter/letten062.png,letter/lettgr065.png,5,5,0,z,0.5922213000003467,None,0,5,5,5,11.57404779999979,,,,,,,11.57404779999979,12.5599416999994,12.56551109999964,12.56551109999964,13.165052800000012,z,0.5922213000003467,None,13.16526199999953,13.17166670000006,13.350721699999667,12.56551109999964,,,,,,,,,NU_en,001,2025-03-07_12h04.41.361,MainFlow,2024.2.4,146.1206430466676,2025-03-07 12h05.03.293112 +0700,
2,2,1,7,letter/letten112.png,letter/lettkh083.png,6,6,0,z,0.4195856999995158,None,0,6,6,6,13.372222999999394,,,,,,,13.372222999999394,14.35728779999954,14.362857299999632,14.362857299999632,14.789302499999394,z,0.4195856999995158,None,14.789509700000053,14.795829899999262,14.975660799999787,14.362857299999632,,,,,,,,,NU_en,001,2025-03-07_12h04.41.361,MainFlow,2024.2.4,146.1206430466676,2025-03-07 12h05.03.293112 +0700,
2,1,1,1,letter/letten041.png,letter/lettth022.png,7,7,0,z,0.4114597000007052,None,0,7,7,7,14.997495300000082,,,,,,,14.997495300000082,15.982924299999468,15.988485399999263,15.988485399999263,16.408557499999915,z,0.4114597000007052,None,16.40876489999937,16.414771599999767,16.59312999999929,15.988485399999263,,,,,,,,,NU_en,001,2025-03-07_12h04.41.361,MainFlow,2024.2.4,146.1206430466676,2025-03-07 12h05.03.293112 +0700,
2,3,1,6,letter/letten061.png,letter/lettgr066.png,8,8,0,z,0.4164433999994799,None,0,8,8,8,16.615072099999452,,,,,,,16.615072099999452,17.600522499999897,17.606035199999496,17.606035199999496,18.0254046,z,0.4164433999994799,None,18.025614099999984,18.0331800999993,18.210030399999596,17.606035199999496,,,,,,,,,NU_en,001,2025-03-07_12h04.41.361,MainFlow,2024.2.4,146.1206430466676,2025-03-07 12h05.03.293112 +0700,
2,2,2,6,letter/lettkh155.png,letter/letten061.png,9,9,0,x,0.3019664000003104,None,0,9,9,9,18.23113999999987,,,,,,,18.23113999999987,19.21732239999983,19.222239899999295,19.222239899999295,19.530775999999605,x,0.3019664000003104,None,19.53098659999978,19.5366484999995,19.716585999999552,19.222239899999295,,,,,,,,,NU_en,001,2025-03-07_12h04.41.361,MainFlow,2024.2.4,146.1206430466676,2025-03-07 12h05.03.293112 +0700,
2,1,2,6,letter/lettth132.png,letter/letten091.png,10,10,0,x,0.3522947999999815,None,0,10,10,10,19.73707959999956,,,,,,,19.73707959999956,20.724243199999364,20.729141899999377,20.729141899999377,21.08576559999983,x,0.3522947999999815,None,21.085995399999774,21.091732999999294,21.2727261,20.729141899999377,,,,,,,,,NU_en,001,2025-03-07_12h04.41.361,MainFlow,2024.2.4,146.1206430466676,2025-03-07 12h05.03.293112 +0700,
2,2,1,5,letter/letten051.png,letter/lettkh157.png,11,11,0,z,0.37568019999980606,None,0,11,11,11,21.29360969999925,,,,,,,21.29360969999925,22.279478699999345,22.28456180000012,22.28456180000012,22.668257299999823,z,0.37568019999980606,None,22.66846649999934,22.673085599999467,22.855039999999462,22.28456180000012,,,,,,,,,NU_en,001,2025-03-07_12h04.41.361,MainFlow,2024.2.4,146.1206430466676,2025-03-07 12h05.03.293112 +0700,
2,3,1,3,letter/letten061.png,letter/lettgr063.png,12,12,0,z,0.34857110000029934,None,0,12,12,12,22.877238600000055,,,,,,,22.877238600000055,23.862222299999303,23.867099099999905,23.867099099999905,24.224123500000132,z,0.34857110000029934,None,24.22433649999948,24.229604799999834,24.410100399999465,23.867099099999905,,,,,,,,,NU_en,001,2025-03-07_12h04.41.361,MainFlow,2024.2.4,146.1206430466676,2025-03-07 12h05.03.293112 +0700,
2,2,2,8,letter/lettkh035.png,letter/letten051.png,13,13,0,x,0.3330699000007371,None,0,13,13,13,24.43162630000006,,,,,,,24.43162630000006,25.41768199999933,25.42254099999991,25.42254099999991,25.758517700000084,x,0.3330699000007371,None,25.758728299999348,25.76468879999993,25.945544700000028,25.42254099999991,,,,,,,,,NU_en,001,2025-03-07_12h04.41.361,MainFlow,2024.2.4,146.1206430466676,2025-03-07 12h05.03.293112 +0700,
2,1,2,3,letter/lettth152.png,letter/letten142.png,14,14,0,x,0.6130627000002278,None,0,14,14,14,25.969484100000045,,,,,,,25.969484100000045,26.959022999999434,26.963903399999253,26.963903399999253,27.58605929999976,x,0.6130627000002278,None,27.586212399999567,27.590366299999914,27.769755299999815,26.963903399999253,,,,,,,,,NU_en,001,2025-03-07_12h04.41.361,MainFlow,2024.2.4,146.1206430466676,2025-03-07 12h05.03.293112 +0700,
2,2,2,6,letter/lettkh155.png,letter/letten061.png,15,15,0,x,0.49076830000012706,None,0,15,15,15,27.783429699999942,,,,,,,27.783429699999942,28.771321899999748,28.776093299999957,28.776093299999957,29.271346399999857,x,0.49076830000012706,None,29.271555700000135,29.277664100000038,29.458135500000026,28.776093299999957,,,,,,,,,NU_en,001,2025-03-07_12h04.41.361,MainFlow,2024.2.4,146.1206430466676,2025-03-07 12h05.03.293112 +0700,
2,3,1,1,letter/letten021.png,letter/lettgr021.png,16,16,0,z,0.39712450000024546,None,0,16,16,16,29.47967019999942,,,,,,,29.47967019999942,30.464968999999655,30.47008189999997,30.47008189999997,30.875658899999507,z,0.39712450000024546,None,30.87587050000002,30.880488400000104,31.06152589999965,30.47008189999997,,,,,,,,,NU_en,001,2025-03-07_12h04.41.361,MainFlow,2024.2.4,146.1206430466676,2025-03-07 12h05.03.293112 +0700,
2,3,1,3,letter/letten061.png,letter/lettgr063.png,17,17,0,z,0.3646222999996098,None,0,17,17,17,31.082875399999466,,,,,,,31.082875399999466,32.06797759999972,32.07378779999999,32.07378779999999,32.444203399999424,z,0.3646222999996098,None,32.444412799999554,32.45014259999971,32.630996299999424,32.07378779999999,,,,,,,,,NU_en,001,2025-03-07_12h04.41.361,MainFlow,2024.2.4,146.1206430466676,2025-03-07 12h05.03.293112 +0700,
2,2,1,1,letter/letten153.png,letter/lettkh159.png,18,18,0,z,0.4186985000005734,None,0,18,18,18,32.651107099999535,,,,,,,32.651107099999535,33.63818739999988,33.643215999999484,33.643215999999484,34.0691597999994,z,0.4186985000005734,None,34.06937089999974,34.07574819999991,34.25567339999998,33.643215999999484,,,,,,,,,NU_en,001,2025-03-07_12h04.41.361,MainFlow,2024.2.4,146.1206430466676,2025-03-07 12h05.03.293112 +0700,
2,1,1,6,letter/letten091.png,letter/lettth132.png,19,19,0,z,0.3687675000001036,None,0,19,19,19,34.2776788000001,,,,,,,34.2776788000001,35.2632909999993,35.26837989999967,35.26837989999967,35.64554959999987,z,0.3687675000001036,None,35.645749799999976,35.651061699999445,35.83193080000001,35.26837989999967,,,,,,,,,NU_en,001,2025-03-07_12h04.41.361,MainFlow,2024.2.4,146.1206430466676,2025-03-07 12h05.03.293112 +0700,
2,3,2,5,letter/lettgr012.png,letter/letten011.png,20,20,0,x,0.436326399999416,None,0,20,20,20,35.85246740000002,,,,,,,35.85246740000002,36.83894539999983,36.844440799999575,36.844440799999575,37.28466119999939,x,0.436326399999416,None,37.284889499999736,37.29087299999992,37.4709200999996,36.844440799999575,,,,,,,,,NU_en,001,2025-03-07_12h04.41.361,MainFlow,2024.2.4,146.1206430466676,2025-03-07 12h05.03.293112 +0700,
2,1,1,2,letter/letten181.png,letter/lettth142.png,21,21,0,z,0.4718843000000561,None,0,21,21,21,37.49268089999987,,,,,,,37.49268089999987,38.477244299999256,38.48239359999934,38.48239359999934,38.957403299999896,z,0.4718843000000561,None,38.95765019999999,38.962880699999914,39.143501799999285,38.48239359999934,,,,,,,,,NU_en,001,2025-03-07_12h04.41.361,MainFlow,2024.2.4,146.1206430466676,2025-03-07 12h05.03.293112 +0700,
2,2,1,5,letter/letten051.png,letter/lettkh157.png,22,22,0,z,0.2998938000000635,None,0,22,22,22,39.16603690000011,,,,,,,39.16603690000011,40.1508804999994,40.155679899999996,40.155679899999996,40.463869299999715,z,0.2998938000000635,None,40.46408040000006,40.468704899999466,40.65016370000012,40.155679899999996,,,,,,,,,NU_en,001,2025-03-07_12h04.41.361,MainFlow,2024.2.4,146.1206430466676,2025-03-07 12h05.03.293112 +0700,
2,3,1,4,letter/letten062.png,letter/lettgr063.png,23,23,0,z,0.30727139999999054,None,0,23,23,23,40.672834399999374,,,,,,,40.672834399999374,41.6577929999994,41.66268179999952,41.66268179999952,41.977316299999984,z,0.30727139999999054,None,41.97752589999982,41.98264310000013,42.16379289999986,41.66268179999952,,,,,,,,,NU_en,001,2025-03-07_12h04.41.361,MainFlow,2024.2.4,146.1206430466676,2025-03-07 12h05.03.293112 +0700,
2,3,2,3,letter/lettgr063.png,letter/letten061.png,24,24,0,x,0.44825289999971574,None,0,24,24,24,42.18496779999987,,,,,,,42.18496779999987,43.17125080000005,43.176286799999616,43.176286799999616,43.63045389999934,x,0.44825289999971574,None,43.63066189999972,43.636890400000084,43.816536899999846,43.176286799999616,,,,,,,,,NU_en,001,2025-03-07_12h04.41.361,MainFlow,2024.2.4,146.1206430466676,2025-03-07 12h05.03.293112 +0700,
2,2,2,5,letter/lettkh157.png,letter/letten051.png,25,25,0,x,0.34639770000012504,None,0,25,25,25,43.83891219999987,,,,,,,43.83891219999987,44.8242182999993,44.829377699999895,44.829377699999895,45.17909019999934,x,0.34639770000012504,None,45.179301600000144,45.18616870000005,45.364224099999774,44.829377699999895,,,,,,,,,NU_en,001,2025-03-07_12h04.41.361,MainFlow,2024.2.4,146.1206430466676,2025-03-07 12h05.03.293112 +0700,
2,3,1,5,letter/letten011.png,letter/lettgr012.png,26,26,0,z,0.36907199999950535,None,0,26,26,26,45.37897100000009,,,,,,,45.37897100000009,46.36584199999925,46.37132279999969,46.37132279999969,46.74966390000009,z,0.36907199999950535,None,46.74987249999958,46.755901799999265,46.93467699999928,46.37132279999969,,,,,,,,,NU_en,001,2025-03-07_12h04.41.361,MainFlow,2024.2.4,146.1206430466676,2025-03-07 12h05.03.293112 +0700,
2,3,1,1,letter/letten021.png,letter/lettgr021.png,27,27,0,z,0.34850060000007943,None,0,27,27,27,46.95660379999936,,,,,,,46.95660379999936,47.941878599999654,47.947685699999965,47.947685699999965,48.30375589999949,z,0.34850060000007943,None,48.30400669999926,48.310555699999895,48.4896676999997,47.947685699999965,,,,,,,,,NU_en,001,2025-03-07_12h04.41.361,MainFlow,2024.2.4,146.1206430466676,2025-03-07 12h05.03.293112 +0700,
2,2,1,8,letter/letten051.png,letter/lettkh035.png,28,28,0,z,0.46407449999969685,None,0,28,28,28,48.512561799999276,,,,,,,48.512561799999276,49.497529100000065,49.50298389999989,49.50298389999989,49.9689359999993,z,0.46407449999969685,None,49.96908050000002,49.97404610000012,50.15548579999995,49.50298389999989,,,,,,,,,NU_en,001,2025-03-07_12h04.41.361,MainFlow,2024.2.4,146.1206430466676,2025-03-07 12h05.03.293112 +0700,
2,3,1,4,letter/letten062.png,letter/lettgr063.png,29,29,0,z,0.40389670000058686,None,0,29,29,29,50.16998859999967,,,,,,,50.16998859999967,51.15547340000012,51.16054829999939,51.16054829999939,51.57226809999975,z,0.40389670000058686,None,51.57247939999979,51.578170599999794,51.75899219999974,51.16054829999939,,,,,,,,,NU_en,001,2025-03-07_12h04.41.361,MainFlow,2024.2.4,146.1206430466676,2025-03-07 12h05.03.293112 +0700,
2,1,2,8,letter/lettth022.png,letter/letten131.png,30,30,0,x,0.3584069999997155,None,0,30,30,30,51.77943199999936,,,,,,,51.77943199999936,52.76647739999953,52.771353299999646,52.771353299999646,53.13500589999967,x,0.3584069999997155,None,53.13524189999953,53.14112079999995,53.321243699999286,52.771353299999646,,,,,,,,,NU_en,001,2025-03-07_12h04.41.361,MainFlow,2024.2.4,146.1206430466676,2025-03-07 12h05.03.293112 +0700,
2,2,1,1,letter/letten153.png,letter/lettkh159.png,31,31,0,z,0.2835392999995747,None,0,31,31,31,53.341185700000096,,,,,,,53.341185700000096,54.328806799999256,54.33420870000009,54.33420870000009,54.61978909999925,z,0.2835392999995747,None,54.61992089999967,54.62497209999947,54.806957099999636,54.33420870000009,,,,,,,,,NU_en,001,2025-03-07_12h04.41.361,MainFlow,2024.2.4,146.1206430466676,2025-03-07 12h05.03.293112 +0700,
2,2,1,4,letter/letten071.png,letter/lettkh055.png,32,32,0,z,0.3130671999997503,None,0,32,32,32,54.82804909999959,,,,,,,54.82804909999959,55.81445879999956,55.82006749999982,55.82006749999982,56.14168979999977,z,0.3130671999997503,None,56.141935399999966,56.147185799999534,56.32762999999977,55.82006749999982,,,,,,,,,NU_en,001,2025-03-07_12h04.41.361,MainFlow,2024.2.4,146.1206430466676,2025-03-07 12h05.03.293112 +0700,
2,1,1,5,letter/letten121.png,letter/lettth101.png,33,33,0,z,0.2836298000001989,None,0,33,33,33,56.34830249999959,,,,,,,56.34830249999959,57.33495579999999,57.34223099999963,57.34223099999963,57.63378349999948,z,0.2836298000001989,None,57.63399239999944,57.63889990000007,57.82067629999983,57.34223099999963,,,,,,,,,NU_en,001,2025-03-07_12h04.41.361,MainFlow,2024.2.4,146.1206430466676,2025-03-07 12h05.03.293112 +0700,
2,2,2,4,letter/lettkh055.png,letter/letten071.png,34,34,0,x,0.34805580000011105,None,0,34,34,34,57.844638900000064,,,,,,,57.844638900000064,58.8337733999997,58.83943149999959,58.83943149999959,59.19049309999991,x,0.34805580000011105,None,59.19070430000011,59.19627450000007,59.37568769999962,58.83943149999959,,,,,,,,,NU_en,001,2025-03-07_12h04.41.361,MainFlow,2024.2.4,146.1206430466676,2025-03-07 12h05.03.293112 +0700,
2,1,1,5,letter/letten121.png,letter/lettth101.png,35,35,0,z,0.29827209999984916,None,0,35,35,35,59.39603609999995,,,,,,,59.39603609999995,60.38403539999945,60.3888465,60.3888465,60.69031209999957,z,0.29827209999984916,None,60.690595799999755,60.69590919999973,60.875122599999486,60.3888465,,,,,,,,,NU_en,001,2025-03-07_12h04.41.361,MainFlow,2024.2.4,146.1206430466676,2025-03-07 12h05.03.293112 +0700,
2,2,2,3,letter/lettkh091.png,letter/letten071.png,36,36,0,x,0.3838997999991989,None,0,36,36,36,60.89627269999983,,,,,,,60.89627269999983,61.882596399999784,61.88776379999945,61.88776379999945,62.278955299999325,x,0.3838997999991989,None,62.27914359999977,62.283843799999886,62.46561190000011,61.88776379999945,,,,,,,,,NU_en,001,2025-03-07_12h04.41.361,MainFlow,2024.2.4,146.1206430466676,2025-03-07 12h05.03.293112 +0700,
2,2,1,6,letter/letten061.png,letter/lettkh155.png,37,37,0,z,0.35342989999935526,None,0,37,37,37,62.48706619999939,,,,,,,62.48706619999939,63.47176909999962,63.47742560000006,63.47742560000006,63.834235100000114,z,0.35342989999935526,None,63.83444989999953,63.840145799999846,64.02072689999932,63.47742560000006,,,,,,,,,NU_en,001,2025-03-07_12h04.41.361,MainFlow,2024.2.4,146.1206430466676,2025-03-07 12h05.03.293112 +0700,
2,1,1,4,letter/letten101.png,letter/lettth011.png,38,38,0,z,0.44668170000022656,None,0,38,38,38,64.04116339999928,,,,,,,64.04116339999928,65.02789510000002,65.03354989999934,65.03354989999934,65.4866818999999,z,0.44668170000022656,None,65.48688549999952,65.49143949999961,65.6732376,65.03354989999934,,,,,,,,,NU_en,001,2025-03-07_12h04.41.361,MainFlow,2024.2.4,146.1206430466676,2025-03-07 12h05.03.293112 +0700,
2,3,2,4,letter/lettgr063.png,letter/letten062.png,39,39,0,x,0.4114854999997988,None,0,39,39,39,65.69370359999994,,,,,,,65.69370359999994,66.68111129999943,66.68596159999925,66.68596159999925,67.10431770000014,x,0.4114854999997988,None,67.10452799999985,67.11010480000004,67.29066340000008,66.68596159999925,,,,,,,,,NU_en,001,2025-03-07_12h04.41.361,MainFlow,2024.2.4,146.1206430466676,2025-03-07 12h05.03.293112 +0700,
2,3,1,2,letter/letten061.png,letter/lettgr061.png,40,40,0,z,0.9191835999999967,None,0,40,40,40,67.31146910000007,,,,,,,67.31146910000007,68.2980964999997,68.30303869999989,68.30303869999989,69.22900339999978,z,0.9191835999999967,None,69.22921459999998,69.23434730000008,69.41550109999935,68.30303869999989,,,,,,,,,NU_en,001,2025-03-07_12h04.41.361,MainFlow,2024.2.4,146.1206430466676,2025-03-07 12h05.03.293112 +0700,
2,2,2,7,letter/lettkh083.png,letter/letten112.png,41,41,0,x,0.4575403999997434,None,0,41,41,41,69.43591019999985,,,,,,,69.43591019999985,70.42300869999963,70.42807839999932,70.42807839999932,70.88924339999994,x,0.4575403999997434,None,70.88945699999931,70.89579760000015,71.0746067,70.42807839999932,,,,,,,,,NU_en,001,2025-03-07_12h04.41.361,MainFlow,2024.2.4,146.1206430466676,2025-03-07 12h05.03.293112 +0700,
2,1,2,2,letter/lettth142.png,letter/letten181.png,42,42,0,x,0.397646800000075,None,0,42,42,42,71.09538739999971,,,,,,,71.09538739999971,72.08099429999947,72.08671520000007,72.08671520000007,72.49209599999995,x,0.397646800000075,None,72.49230349999925,72.49766809999983,72.67850349999935,72.08671520000007,,,,,,,,,NU_en,001,2025-03-07_12h04.41.361,MainFlow,2024.2.4,146.1206430466676,2025-03-07 12h05.03.293112 +0700,
2,2,1,7,letter/letten112.png,letter/lettkh083.png,43,43,0,z,0.4439051000008476,None,0,43,43,43,72.69822070000009,,,,,,,72.69822070000009,73.68615359999967,73.69102829999974,73.69102829999974,74.13826719999997,z,0.4439051000008476,None,74.13847189999979,74.14459529999931,74.32432919999974,73.69102829999974,,,,,,,,,NU_en,001,2025-03-07_12h04.41.361,MainFlow,2024.2.4,146.1206430466676,2025-03-07 12h05.03.293112 +0700,
2,2,2,3,letter/lettkh091.png,letter/letten071.png,44,44,0,x,0.8049699000002875,None,0,44,44,44,74.34584459999951,,,,,,,74.34584459999951,75.33142749999934,75.33645799999977,75.33645799999977,76.1444606999994,x,0.8049699000002875,None,76.1446691000001,76.15033279999989,76.33072319999974,75.33645799999977,,,,,,,,,NU_en,001,2025-03-07_12h04.41.361,MainFlow,2024.2.4,146.1206430466676,2025-03-07 12h05.03.293112 +0700,
2,2,2,5,letter/lettkh157.png,letter/letten051.png,45,45,0,x,0.32122329999947397,None,0,45,45,45,76.35166140000001,,,,,,,76.35166140000001,77.33811889999924,77.3430841999998,77.3430841999998,77.67184219999945,x,0.32122329999947397,None,77.67204979999951,77.67678329999944,77.85822139999982,77.3430841999998,,,,,,,,,NU_en,001,2025-03-07_12h04.41.361,MainFlow,2024.2.4,146.1206430466676,2025-03-07 12h05.03.293112 +0700,
2,1,2,3,letter/lettth152.png,letter/letten142.png,46,46,0,x,0.5485588000001371,None,0,46,46,46,77.8785444999994,,,,,,,77.8785444999994,78.86561529999926,78.87069909999991,78.87069909999991,79.42239999999947,x,0.5485588000001371,None,79.4226093999996,79.42816820000007,79.60810929999934,78.87069909999991,,,,,,,,,NU_en,001,2025-03-07_12h04.41.361,MainFlow,2024.2.4,146.1206430466676,2025-03-07 12h05.03.293112 +0700,
2,2,2,2,letter/lettkh013.png,letter/letten121.png,47,47,0,x,0.4170593999997436,None,0,47,47,47,79.62940049999997,,,,,,,79.62940049999997,80.61558669999977,80.62090509999962,80.62090509999962,81.04571450000003,x,0.4170593999997436,None,81.04584629999954,81.05078199999934,81.23207569999977,80.62090509999962,,,,,,,,,NU_en,001,2025-03-07_12h04.41.361,MainFlow,2024.2.4,146.1206430466676,2025-03-07 12h05.03.293112 +0700,
2,1,2,6,letter/lettth132.png,letter/letten091.png,48,48,0,x,0.559044300000096,None,0,48,48,48,81.24582559999999,,,,,,,81.24582559999999,82.23373469999933,82.23887039999954,82.23887039999954,82.80350949999956,x,0.559044300000096,None,82.80372629999965,82.81038660000013,82.98910660000001,82.23887039999954,,,,,,,,,NU_en,001,2025-03-07_12h04.41.361,MainFlow,2024.2.4,146.1206430466676,2025-03-07 12h05.03.293112 +0700,
2,1,2,1,letter/lettth022.png,letter/letten041.png,49,49,0,x,0.33708089999981894,None,0,49,49,49,83.0102425999994,,,,,,,83.0102425999994,83.99643289999949,84.00144689999979,84.00144689999979,84.34382019999975,x,0.33708089999981894,None,84.34402640000008,84.3492725999995,84.53061009999965,84.00144689999979,,,,,,,,,NU_en,001,2025-03-07_12h04.41.361,MainFlow,2024.2.4,146.1206430466676,2025-03-07 12h05.03.293112 +0700,
2,1,1,3,letter/letten142.png,letter/lettth152.png,50,50,0,z,0.4901968999993187,None,0,50,50,50,84.55178359999991,,,,,,,84.55178359999991,85.53697109999939,85.54266879999977,85.54266879999977,86.03833940000004,z,0.4901968999993187,None,86.0386013999996,86.04448449999927,86.22475889999987,85.54266879999977,,,,,,,,,NU_en,001,2025-03-07_12h04.41.361,MainFlow,2024.2.4,146.1206430466676,2025-03-07 12h05.03.293112 +0700,
2,1,2,8,letter/lettth022.png,letter/letten131.png,51,51,0,x,0.46865380000053847,None,0,51,51,51,86.24635820000003,,,,,,,86.24635820000003,87.23249179999948,87.23752749999949,87.23752749999949,87.71182859999954,x,0.46865380000053847,None,87.71207429999959,87.71869329999936,87.89835299999959,87.23752749999949,,,,,,,,,NU_en,001,2025-03-07_12h04.41.361,MainFlow,2024.2.4,146.1206430466676,2025-03-07 12h05.03.293112 +0700,
2,2,1,2,letter/letten121.png,letter/lettkh013.png,52,52,0,z,0.43867279999994935,None,0,52,52,52,87.92009189999953,,,,,,,87.92009189999953,88.90547509999942,88.91057109999929,88.91057109999929,89.35806950000006,z,0.43867279999994935,None,89.35827859999972,89.3632803999999,89.5440052999993,88.91057109999929,,,,,,,,,NU_en,001,2025-03-07_12h04.41.361,MainFlow,2024.2.4,146.1206430466676,2025-03-07 12h05.03.293112 +0700,
2,3,1,2,letter/letten061.png,letter/lettgr061.png,53,53,0,z,0.3537751000003482,None,0,53,53,53,89.56550900000002,,,,,,,89.56550900000002,90.55148569999983,90.55676309999944,90.55676309999944,90.91349039999932,z,0.3537751000003482,None,90.9136998999993,90.920615,91.09943320000002,90.55676309999944,,,,,,,,,NU_en,001,2025-03-07_12h04.41.361,MainFlow,2024.2.4,146.1206430466676,2025-03-07 12h05.03.293112 +0700,
2,2,2,1,letter/lettkh159.png,letter/letten153.png,54,54,0,x,0.36129369999980554,None,0,54,54,54,91.12166609999986,,,,,,,91.12166609999986,92.10711989999982,92.1126248999999,92.1126248999999,92.48284289999992,x,0.36129369999980554,None,92.4830535000001,92.4887361000001,92.66865679999955,92.1126248999999,,,,,,,,,NU_en,001,2025-03-07_12h04.41.361,MainFlow,2024.2.4,146.1206430466676,2025-03-07 12h05.03.293112 +0700,
2,1,1,4,letter/letten101.png,letter/lettth011.png,55,55,0,z,0.39909779999925377,None,0,55,55,55,92.69056949999958,,,,,,,92.69056949999958,93.67641920000005,93.68236649999926,93.68236649999926,94.08615539999937,z,0.39909779999925377,None,94.08636709999973,94.09332269999959,94.27260369999931,93.68236649999926,,,,,,,,,NU_en,001,2025-03-07_12h04.41.361,MainFlow,2024.2.4,146.1206430466676,2025-03-07 12h05.03.293112 +0700,
2,3,1,8,letter/letten152.png,letter/lettgr152.png,56,56,0,z,0.4210884000003716,None,0,56,56,56,94.29412259999935,,,,,,,94.29412259999935,95.27996119999989,95.28545619999932,95.28545619999932,95.71137069999986,z,0.4210884000003716,None,95.71158239999932,95.71830319999935,95.89729779999925,95.28545619999932,,,,,,,,,NU_en,001,2025-03-07_12h04.41.361,MainFlow,2024.2.4,146.1206430466676,2025-03-07 12h05.03.293112 +0700,
2,3,2,1,letter/lettgr021.png,letter/letten021.png,57,57,0,x,0.3550366999998005,None,0,57,57,57,95.92020049999974,,,,,,,95.92020049999974,96.90458599999965,96.91004949999933,96.91004949999933,97.27412659999936,x,0.3550366999998005,None,97.27433589999964,97.28048489999946,97.45951689999947,96.91004949999933,,,,,,,,,NU_en,001,2025-03-07_12h04.41.361,MainFlow,2024.2.4,146.1206430466676,2025-03-07 12h05.03.293112 +0700,
2,1,2,7,letter/lettth132.png,letter/letten062.png,58,58,0,x,0.4574444999998377,None,0,58,58,58,97.48195299999952,,,,,,,97.48195299999952,98.46702659999937,98.4729241999994,98.4729241999994,98.93839089999983,x,0.4574444999998377,None,98.93852379999953,98.94370219999928,99.12592439999935,98.4729241999994,,,,,,,,,NU_en,001,2025-03-07_12h04.41.361,MainFlow,2024.2.4,146.1206430466676,2025-03-07 12h05.03.293112 +0700,
2,3,2,2,letter/lettgr061.png,letter/letten061.png,59,59,0,x,0.3943578999997044,None,0,59,59,59,99.14818039999955,,,,,,,99.14818039999955,100.13346209999963,100.13910249999935,100.13910249999935,100.5364982000001,x,0.3943578999997044,None,100.53670759999932,100.54422629999954,100.72288679999929,100.13910249999935,,,,,,,,,NU_en,001,2025-03-07_12h04.41.361,MainFlow,2024.2.4,146.1206430466676,2025-03-07 12h05.03.293112 +0700,
2,2,2,4,letter/lettkh055.png,letter/letten071.png,60,60,0,x,0.5095357000000149,None,0,60,60,60,100.74484919999941,,,,,,,100.74484919999941,101.73016589999952,101.73555579999993,101.73555579999993,102.25210999999945,x,0.5095357000000149,None,102.25235579999935,102.25848450000012,102.43771379999998,101.73555579999993,,,,,,,,,NU_en,001,2025-03-07_12h04.41.361,MainFlow,2024.2.4,146.1206430466676,2025-03-07 12h05.03.293112 +0700,
2,1,2,5,letter/lettth101.png,letter/letten121.png,61,61,0,x,0.776296199999706,None,0,61,61,61,102.46158079999987,,,,,,,102.46158079999987,103.45014769999943,103.45581270000002,103.45581270000002,104.23607469999934,x,0.776296199999706,None,104.23628180000014,104.24166949999926,104.42284119999931,103.45581270000002,,,,,,,,,NU_en,001,2025-03-07_12h04.41.361,MainFlow,2024.2.4,146.1206430466676,2025-03-07 12h05.03.293112 +0700,
2,3,1,8,letter/letten152.png,letter/lettgr152.png,62,62,0,z,0.998606799999834,None,0,62,62,62,104.44237499999963,,,,,,,104.44237499999963,105.43017409999993,105.43518159999985,105.43518159999985,106.43753539999943,z,0.998606799999834,None,106.43774329999997,106.44475489999968,106.62355059999936,105.43518159999985,,,,,,,,,NU_en,001,2025-03-07_12h04.41.361,MainFlow,2024.2.4,146.1206430466676,2025-03-07 12h05.03.293112 +0700,
2,1,2,5,letter/lettth101.png,letter/letten121.png,63,63,0,x,0.326663799999551,None,0,63,63,63,106.64542660000006,,,,,,,106.64542660000006,107.63092150000011,107.63613019999957,107.63613019999957,107.96480419999989,x,0.326663799999551,None,107.96493989999999,107.9692213999997,108.15128199999981,107.63613019999957,,,,,,,,,NU_en,001,2025-03-07_12h04.41.361,MainFlow,2024.2.4,146.1206430466676,2025-03-07 12h05.03.293112 +0700,
2,3,2,8,letter/lettgr152.png,letter/letten152.png,64,64,0,x,0.43154970000068715,None,0,64,64,64,108.17227259999981,,,,,,,108.17227259999981,109.15882090000014,109.16395549999925,109.16395549999925,109.60421369999949,x,0.43154970000068715,None,109.6044222999999,109.61040259999936,109.79028620000008,109.16395549999925,,,,,,,,,NU_en,001,2025-03-07_12h04.41.361,MainFlow,2024.2.4,146.1206430466676,2025-03-07 12h05.03.293112 +0700,
2,2,1,2,letter/letten121.png,letter/lettkh013.png,65,65,0,z,0.3740528999996968,None,0,65,65,65,109.81200279999939,,,,,,,109.81200279999939,110.7978349999994,110.80331079999996,110.80331079999996,111.1802502999999,z,0.3740528999996968,None,111.18045809999967,111.18791460000011,111.36640679999982,110.80331079999996,,,,,,,,,NU_en,001,2025-03-07_12h04.41.361,MainFlow,2024.2.4,146.1206430466676,2025-03-07 12h05.03.293112 +0700,
2,3,1,5,letter/letten011.png,letter/lettgr012.png,66,66,0,z,0.3707636999997703,None,0,66,66,66,111.38889169999948,,,,,,,111.38889169999948,112.37303049999991,112.3785957,112.3785957,112.75695790000009,z,0.3707636999997703,None,112.75720169999931,112.76395479999974,112.94266139999945,112.3785957,,,,,,,,,NU_en,001,2025-03-07_12h04.41.361,MainFlow,2024.2.4,146.1206430466676,2025-03-07 12h05.03.293112 +0700,
2,2,1,3,letter/letten071.png,letter/lettkh091.png,67,67,0,z,0.41554310000083206,None,0,67,67,67,112.9647329999998,,,,,,,112.9647329999998,113.95002979999936,113.95557000000008,113.95557000000008,114.3746642999995,z,0.41554310000083206,None,114.37489519999963,114.38133089999974,114.56041099999948,113.95557000000008,,,,,,,,,NU_en,001,2025-03-07_12h04.41.361,MainFlow,2024.2.4,146.1206430466676,2025-03-07 12h05.03.293112 +0700,
2,1,1,8,letter/letten131.png,letter/lettth022.png,68,68,0,z,0.3803538000001936,None,0,68,68,68,114.5817105999995,,,,,,,114.5817105999995,115.56679480000003,115.57176799999979,115.57176799999979,115.95611869999993,z,0.3803538000001936,None,115.9563279999993,115.96170749999965,116.1425277999997,115.57176799999979,,,,,,,,,NU_en,001,2025-03-07_12h04.41.361,MainFlow,2024.2.4,146.1206430466676,2025-03-07 12h05.03.293112 +0700,
2,3,2,4,letter/lettgr063.png,letter/letten062.png,69,69,0,x,0.31219859999964683,None,0,69,69,69,116.16464919999999,,,,,,,116.16464919999999,117.1499101999998,117.1548229,117.1548229,117.4711671999994,x,0.31219859999964683,None,117.47137680000014,117.4770467999997,117.6560927999999,117.1548229,,,,,,,,,NU_en,001,2025-03-07_12h04.41.361,MainFlow,2024.2.4,146.1206430466676,2025-03-07 12h05.03.293112 +0700,
2,1,1,6,letter/letten091.png,letter/lettth132.png,70,70,0,z,0.3111017000001084,None,0,70,70,70,117.6774861999993,,,,,,,117.6774861999993,118.66359769999963,118.6686781999997,118.6686781999997,118.98331559999951,z,0.3111017000001084,None,118.98352579999937,118.98883579999983,119.16965900000014,118.6686781999997,,,,,,,,,NU_en,001,2025-03-07_12h04.41.361,MainFlow,2024.2.4,146.1206430466676,2025-03-07 12h05.03.293112 +0700,
2,3,2,3,letter/lettgr063.png,letter/letten061.png,71,71,0,x,0.44416109999929176,None,0,71,71,71,119.19115280000005,,,,,,,119.19115280000005,120.17688759999965,120.18194629999925,120.18194629999925,120.62908569999945,x,0.44416109999929176,None,120.62929459999941,120.6346322999998,120.8152943999994,120.18194629999925,,,,,,,,,NU_en,001,2025-03-07_12h04.41.361,MainFlow,2024.2.4,146.1206430466676,2025-03-07 12h05.03.293112 +0700,
2,3,2,6,letter/lettgr066.png,letter/letten061.png,72,72,0,x,0.2684724999999162,None,0,72,72,72,120.83595549999973,,,,,,,120.83595549999973,121.82279219999964,121.82766889999948,121.82766889999948,122.1013512999998,x,0.2684724999999162,None,122.10159039999962,122.10745399999996,122.28727100000015,121.82766889999948,,,,,,,,,NU_en,001,2025-03-07_12h04.41.361,MainFlow,2024.2.4,146.1206430466676,2025-03-07 12h05.03.293112 +0700,
2,3,2,7,letter/lettgr065.png,letter/letten062.png,73,73,0,x,0.304161799999747,None,0,73,73,73,122.30843419999928,,,,,,,122.30843419999928,123.2945123999998,123.29954949999956,123.29954949999956,123.60798319999958,x,0.304161799999747,None,123.6081906999998,123.61350020000009,123.7938223000001,123.29954949999956,,,,,,,,,NU_en,001,2025-03-07_12h04.41.361,MainFlow,2024.2.4,146.1206430466676,2025-03-07 12h05.03.293112 +0700,
2,2,2,2,letter/lettkh013.png,letter/letten121.png,74,74,0,x,0.19220679999943968,None,0,74,74,74,123.81682679999994,,,,,,,123.81682679999994,124.80100239999956,124.80618919999961,124.80618919999961,125.00320589999956,x,0.19220679999943968,None,125.00343530000009,125.00921579999977,125.18927789999998,124.80618919999961,,,,,,,,,NU_en,001,2025-03-07_12h04.41.361,MainFlow,2024.2.4,146.1206430466676,2025-03-07 12h05.03.293112 +0700,
2,3,2,7,letter/lettgr065.png,letter/letten062.png,75,75,0,x,0.31103889999940293,None,0,75,75,75,125.2111546999995,,,,,,,125.2111546999995,126.19686209999963,126.20190629999979,126.20190629999979,126.51693909999995,x,0.31103889999940293,None,126.5171448000001,126.52289029999974,126.7029905999998,126.20190629999979,,,,,,,,,NU_en,001,2025-03-07_12h04.41.361,MainFlow,2024.2.4,146.1206430466676,2025-03-07 12h05.03.293112 +0700,
2,2,2,7,letter/lettkh083.png,letter/letten112.png,76,76,0,x,0.2934600999997201,None,0,76,76,76,126.72380789999988,,,,,,,126.72380789999988,127.71020880000015,127.71520879999935,127.71520879999935,128.01620789999924,x,0.2934600999997201,None,128.01641740000014,128.0217165999993,128.20270999999957,127.71520879999935,,,,,,,,,NU_en,001,2025-03-07_12h04.41.361,MainFlow,2024.2.4,146.1206430466676,2025-03-07 12h05.03.293112 +0700,
2,3,2,8,letter/lettgr152.png,letter/letten152.png,77,77,0,x,0.37599039999986417,None,0,77,77,77,128.22326339999927,,,,,,,128.22326339999927,129.20997869999974,129.2149787999997,129.2149787999997,129.59906030000002,x,0.37599039999986417,None,129.59926759999962,129.60415329999978,129.7854123999996,129.2149787999997,,,,,,,,,NU_en,001,2025-03-07_12h04.41.361,MainFlow,2024.2.4,146.1206430466676,2025-03-07 12h05.03.293112 +0700,
2,1,2,4,letter/lettth011.png,letter/letten101.png,78,78,0,x,0.5011349000005794,None,0,78,78,78,129.8068599999997,,,,,,,129.8068599999997,130.79312930000015,130.79874029999974,130.79874029999974,131.3092673000001,x,0.5011349000005794,None,131.30947709999964,131.31430099999943,131.49375389999932,130.79874029999974,,,,,,,,,NU_en,001,2025-03-07_12h04.41.361,MainFlow,2024.2.4,146.1206430466676,2025-03-07 12h05.03.293112 +0700,
2,3,2,1,letter/lettgr021.png,letter/letten021.png,79,79,0,x,0.4238223000002108,None,0,79,79,79,131.51565299999947,,,,,,,131.51565299999947,132.50097860000005,132.50597259999995,132.50597259999995,132.93310979999933,x,0.4238223000002108,None,132.9333358999993,132.94002049999926,133.11827839999933,132.50597259999995,,,,,,,,,NU_en,001,2025-03-07_12h04.41.361,MainFlow,2024.2.4,146.1206430466676,2025-03-07 12h05.03.293112 +0700,
2,3,2,6,letter/lettgr066.png,letter/letten061.png,80,80,0,x,0.3517381999999998,None,0,80,80,80,133.13893819999976,,,,,,,133.13893819999976,134.12576699999954,134.13084629999958,134.13084629999958,134.48622410000007,x,0.3517381999999998,None,134.4863736999996,134.49162539999998,134.67300269999942,134.13084629999958,,,,,,,,,NU_en,001,2025-03-07_12h04.41.361,MainFlow,2024.2.4,146.1206430466676,2025-03-07 12h05.03.293112 +0700,
2,1,2,7,letter/lettth132.png,letter/letten062.png,81,81,0,x,0.5381672999992588,None,0,81,81,81,134.6866239000001,,,,,,,134.6866239000001,135.67401449999943,135.67897399999947,135.67897399999947,136.22310389999984,x,0.5381672999992588,None,136.22330779999993,136.22930319999978,136.40927929999998,135.67897399999947,,,,,,,,,NU_en,001,2025-03-07_12h04.41.361,MainFlow,2024.2.4,146.1206430466676,2025-03-07 12h05.03.293112 +0700,
2,2,1,4,letter/letten071.png,letter/lettkh055.png,82,82,0,z,0.47731260000000475,None,0,82,82,82,136.42998069999976,,,,,,,136.42998069999976,137.41708199999994,137.4218979999996,137.4218979999996,137.90385960000003,z,0.47731260000000475,None,137.90406540000004,137.90969999999925,138.0895271999998,137.4218979999996,,,,,,,,,NU_en,001,2025-03-07_12h04.41.361,MainFlow,2024.2.4,146.1206430466676,2025-03-07 12h05.03.293112 +0700,
2,1,2,4,letter/lettth011.png,letter/letten101.png,83,83,0,x,0.4458106999991287,None,0,83,83,83,138.11059359999945,,,,,,,138.11059359999945,139.09605529999953,139.10168169999997,139.10168169999997,139.55554089999987,x,0.4458106999991287,None,139.55574979999983,139.56152889999976,139.7419463999995,139.10168169999997,,,,,,,,,NU_en,001,2025-03-07_12h04.41.361,MainFlow,2024.2.4,146.1206430466676,2025-03-07 12h05.03.293112 +0700,
2,1,1,7,letter/letten062.png,letter/lettth132.png,84,84,0,z,0.6778597999991689,None,0,84,84,84,139.7626534000001,,,,,,,139.7626534000001,140.74942789999932,140.75439039999947,140.75439039999947,141.43767639999987,z,0.6778597999991689,None,141.43788229999973,141.4433642999993,141.62381189999996,140.75439039999947,,,,,,,,,NU_en,001,2025-03-07_12h04.41.361,MainFlow,2024.2.4,146.1206430466676,2025-03-07 12h05.03.293112 +0700,
2,1,1,1,letter/letten041.png,letter/lettth022.png,85,85,0,z,0.38549390000025596,None,0,85,85,85,141.6445989999993,,,,,,,141.6445989999993,142.63121649999994,142.63691089999975,142.63691089999975,143.0268913,z,0.38549390000025596,None,143.02710089999982,143.03252749999956,143.2132028999995,142.63691089999975,,,,,,,,,NU_en,001,2025-03-07_12h04.41.361,MainFlow,2024.2.4,146.1206430466676,2025-03-07 12h05.03.293112 +0700,
2,1,1,7,letter/letten062.png,letter/lettth132.png,86,86,0,z,0.3626092000004064,None,0,86,86,86,143.23336429999927,,,,,,,143.23336429999927,144.22079399999984,144.22585499999968,144.22585499999968,144.59652339999957,z,0.3626092000004064,None,144.59674229999928,144.60145549999925,144.78283789999932,144.22585499999968,,,,,,,,,NU_en,001,2025-03-07_12h04.41.361,MainFlow,2024.2.4,146.1206430466676,2025-03-07 12h05.03.293112 +0700,
2,3,1,6,letter/letten061.png,letter/lettgr066.png,87,87,0,z,0.4385703999996622,None,0,87,87,87,144.8040701,,,,,,,144.8040701,145.79029050000008,145.79513619999943,145.79513619999943,146.24209449999944,z,0.4385703999996622,None,146.2423036,146.2476587000001,146.42849169999954,145.79513619999943,,,,,,,,,NU_en,001,2025-03-07_12h04.41.361,MainFlow,2024.2.4,146.1206430466676,2025-03-07 12h05.03.293112 +0700,
2,1,1,3,letter/letten142.png,letter/lettth152.png,88,88,0,z,0.27575420000084705,None,0,88,88,88,146.4511853999993,,,,,,,146.4511853999993,147.4358698999995,147.44067610000002,147.44067610000002,147.71990529999948,z,0.27575420000084705,None,147.72005919999992,147.72509300000002,147.9063698,147.44067610000002,,,,,,,,,NU_en,001,2025-03-07_12h04.41.361,MainFlow,2024.2.4,146.1206430466676,2025-03-07 12h05.03.293112 +0700,
2,3,2,5,letter/lettgr012.png,letter/letten011.png,89,89,0,x,0.44499069999983476,None,0,89,89,89,147.91907790000005,,,,,,,147.91907790000005,148.90741059999982,148.91255980000005,148.91255980000005,149.36029150000013,x,0.44499069999983476,None,149.36050029999933,149.3657792999993,149.54589320000014,148.91255980000005,,,,,,,,,NU_en,001,2025-03-07_12h04.41.361,MainFlow,2024.2.4,146.1206430466676,2025-03-07 12h05.03.293112 +0700,
2,2,2,8,letter/lettkh035.png,letter/letten051.png,90,90,0,x,0.4932551000001695,None,0,90,90,90,149.5674341999993,,,,,,,149.5674341999993,150.55343289999928,150.55833979999989,150.55833979999989,151.05434530000002,x,0.4932551000001695,None,151.05455579999943,151.06062909999946,151.23989639999945,150.55833979999989,,,,,,,,,NU_en,001,2025-03-07_12h04.41.361,MainFlow,2024.2.4,146.1206430466676,2025-03-07 12h05.03.293112 +0700,
2,1,1,8,letter/letten131.png,letter/lettth022.png,91,91,0,z,0.354889600000206,None,0,91,91,91,151.26017729999967,,,,,,,151.26017729999967,152.24632909999946,152.25187529999948,152.25187529999948,152.60990779999975,z,0.354889600000206,None,152.61011559999952,152.61581019999994,152.79511569999977,152.25187529999948,,,,,,,,,NU_en,001,2025-03-07_12h04.41.361,MainFlow,2024.2.4,146.1206430466676,2025-03-07 12h05.03.293112 +0700,
2,1,2,1,letter/lettth022.png,letter/letten041.png,92,92,0,x,0.32189629999993485,None,0,92,92,92,152.81712519999928,,,,,,,152.81712519999928,153.80258569999933,153.8074700999996,153.8074700999996,154.1362363999997,x,0.32189629999993485,None,154.13644549999935,154.14126789999955,154.3226139999997,153.8074700999996,,,,,,,,,NU_en,001,2025-03-07_12h04.41.361,MainFlow,2024.2.4,146.1206430466676,2025-03-07 12h05.03.293112 +0700,
2,3,1,7,letter/letten062.png,letter/lettgr065.png,93,93,0,z,0.4059219999999186,None,0,93,93,93,154.34357159999945,,,,,,,154.34357159999945,155.33018379999976,155.33495309999944,155.33495309999944,155.74704539999948,z,0.4059219999999186,None,155.7472517999995,155.7519182999995,155.93325279999954,155.33495309999944,,,,,,,,,NU_en,001,2025-03-07_12h04.41.361,MainFlow,2024.2.4,146.1206430466676,2025-03-07 12h05.03.293112 +0700,
2,2,1,3,letter/letten071.png,letter/lettkh091.png,94,94,0,z,0.27131550000012794,None,0,94,94,94,155.95491709999988,,,,,,,155.95491709999988,156.93997559999934,156.94559179999942,156.94559179999942,157.2196127999996,z,0.27131550000012794,None,157.21981899999992,157.22530629999983,157.40611230000013,156.94559179999942,,,,,,,,,NU_en,001,2025-03-07_12h04.41.361,MainFlow,2024.2.4,146.1206430466676,2025-03-07 12h05.03.293112 +0700,
2,2,2,1,letter/lettkh159.png,letter/letten153.png,95,95,0,x,0.2956770000000688,None,0,95,95,95,157.4306603999994,,,,,,,157.4306603999994,158.41996139999992,158.42464310000014,158.42464310000014,158.7256824999995,x,0.2956770000000688,None,158.72589419999986,158.7322881,158.9119725999999,158.42464310000014,,,,,,,,,NU_en,001,2025-03-07_12h04.41.361,MainFlow,2024.2.4,146.1206430466676,2025-03-07 12h05.03.293112 +0700,
,,,,,,,,,,,,,,,,,,,,,,,,,,,,,,,,,,,,158.91223629999968,158.91900439999972,158.91900439999972,163.1072297999999,space,4.182000499999958,None,NU_en,001,2025-03-07_12h04.41.361,MainFlow,2024.2.4,146.1206430466676,2025-03-07 12h05.03.293112 +0700,
