lang,langpair,sequence,pairid,firstdir,seconddir,thisN,thisTrialN,thisRepN,key_resp.keys,key_resp.rt,key_resp.duration,trials.thisRepN,trials.thisTrialN,trials.thisN,trials.thisIndex,thisRow.t,notes,tutorial.started,tutorial.stopped,key_instruct.keys,key_instruct.rt,key_instruct.duration,image_first.started,letterselect.started,instruct.started,key_resp.started,letterselect.stopped,trials.key_resp.keys,trials.key_resp.rt,trials.key_resp.duration,blanknext.started,instruct_2.started,blanknext.stopped,image_first.stopped,ending.started,text_3.started,ending_key.started,ending.stopped,ending_key.keys,ending_key.rt,ending_key.duration,participant,session,date,expName,psychopyVersion,frameRate,expStart,
,,,,,,,,,,,,,,,,,,0.008264799999778916,7.7251423999996405,space,7.6606965999999375,None,,,,,,,,,,,,,,,,,,,,NU_th,001,2025-03-07_12h01.04.322,MainFlow,2024.2.4,154.18488618070316,2025-03-07 12h01.21.023507 +0700,
1,1,2,1,letter/letten092.png,letter/lettth022.png,0,0,0,x,0.8329383999998754,None,0,0,0,0,7.866962400000375,,,,,,,7.866962400000375,8.756271000000197,8.7676320999999,8.7676320999999,9.60516970000026,x,0.8329383999998754,None,9.618230199999743,9.631141699999716,9.79182789999959,,,,,,,,,NU_th,001,2025-03-07_12h01.04.322,MainFlow,2024.2.4,154.18488618070316,2025-03-07 12h01.21.023507 +0700,
1,3,2,8,letter/lettgr153.png,letter/lettth013.png,1,1,0,x,0.3530319999999847,None,0,1,1,1,9.81323330000032,,,,,,,9.81323330000032,10.7991020999998,10.804454400000395,10.804454400000395,11.16152460000012,x,0.3530319999999847,None,11.161736400000336,11.168685599999662,11.346784399999706,10.804454400000395,,,,,,,,NU_th,001,2025-03-07_12h01.04.322,MainFlow,2024.2.4,154.18488618070316,2025-03-07 12h01.21.023507 +0700,
1,1,2,1,letter/letten092.png,letter/lettth022.png,2,2,0,x,6.749485899999854,None,0,2,2,2,11.368989599999622,,,,,,,11.368989599999622,12.354431099999601,12.359914499999832,12.359914499999832,19.119402999999693,x,6.749485899999854,None,19.11981420000029,19.125606399999924,19.30367440000009,12.359914499999832,,,,,,,,NU_th,001,2025-03-07_12h01.04.322,MainFlow,2024.2.4,154.18488618070316,2025-03-07 12h01.21.023507 +0700,
1,2,2,4,letter/lettkh034.png,letter/lettth153.png,3,3,0,x,0.5167177000002994,None,0,3,3,3,19.327798799999982,,,,,,,19.327798799999982,20.318077500000072,20.323888900000384,20.323888900000384,20.846491000000242,x,0.5167177000002994,None,20.84670610000012,20.853047399999923,21.032521400000405,20.323888900000384,,,,,,,,NU_th,001,2025-03-07_12h01.04.322,MainFlow,2024.2.4,154.18488618070316,2025-03-07 12h01.21.023507 +0700,
1,2,2,4,letter/lettkh034.png,letter/lettth153.png,4,4,0,x,0.6915423999998893,None,0,4,4,4,21.055853599999864,,,,,,,21.055853599999864,22.03988879999997,22.045609099999638,22.045609099999638,22.74171320000005,x,0.6915423999998893,None,22.741945800000394,22.748086499999772,22.9279875000002,22.045609099999638,,,,,,,,NU_th,001,2025-03-07_12h01.04.322,MainFlow,2024.2.4,154.18488618070316,2025-03-07 12h01.21.023507 +0700,
1,2,1,7,letter/lettth072.png,letter/lettkh033.png,5,5,0,z,0.28796089999923424,None,0,5,5,5,22.95131930000025,,,,,,,22.95131930000025,23.935488000000078,23.940958299999693,23.940958299999693,24.234399799999665,z,0.28796089999923424,None,24.23461430000043,24.241457000000082,24.42078450000008,23.940958299999693,,,,,,,,NU_th,001,2025-03-07_12h01.04.322,MainFlow,2024.2.4,154.18488618070316,2025-03-07 12h01.21.023507 +0700,
1,2,1,2,letter/lettth032.png,letter/lettkh032.png,6,6,0,z,1.1099163999997472,None,0,6,6,6,24.44353030000002,,,,,,,24.44353030000002,25.42836679999982,25.434666299999662,25.434666299999662,26.553788399999576,z,1.1099163999997472,None,26.5540033999996,26.559060700000373,26.738751099999718,25.434666299999662,,,,,,,,NU_th,001,2025-03-07_12h01.04.322,MainFlow,2024.2.4,154.18488618070316,2025-03-07 12h01.21.023507 +0700,
1,3,1,4,letter/lettth024.png,letter/lettgr064.png,7,7,0,z,0.44657790000019304,None,0,7,7,7,26.76043860000027,,,,,,,26.76043860000027,27.74628819999998,27.751214900000377,27.751214900000377,28.20510209999975,z,0.44657790000019304,None,28.20532960000037,28.21123400000033,28.391374499999984,27.751214900000377,,,,,,,,NU_th,001,2025-03-07_12h01.04.322,MainFlow,2024.2.4,154.18488618070316,2025-03-07 12h01.21.023507 +0700,
1,2,1,5,letter/lettth024.png,letter/lettkh023.png,8,8,0,z,0.398852799999986,None,0,8,8,8,28.41298590000042,,,,,,,28.41298590000042,29.398861699999543,29.40384770000037,29.40384770000037,29.808733799999573,z,0.398852799999986,None,29.808946899999683,29.814244999999573,29.99535879999985,29.40384770000037,,,,,,,,NU_th,001,2025-03-07_12h01.04.322,MainFlow,2024.2.4,154.18488618070316,2025-03-07 12h01.21.023507 +0700,
1,1,2,5,letter/letten041.png,letter/lettth152.png,9,9,0,x,0.4627534999999625,None,0,9,9,9,30.017323799999758,,,,,,,30.017323799999758,31.002764599999864,31.007795700000315,31.007795700000315,31.475636299999678,x,0.4627534999999625,None,31.475848000000042,31.48167250000006,31.662011800000073,31.007795700000315,,,,,,,,NU_th,001,2025-03-07_12h01.04.322,MainFlow,2024.2.4,154.18488618070316,2025-03-07 12h01.21.023507 +0700,
1,2,2,6,letter/lettkh033.png,letter/lettth161.png,10,10,0,x,0.5477820000005522,None,0,10,10,10,31.685235699999794,,,,,,,31.685235699999794,32.66948779999984,32.67466890000014,32.67466890000014,33.22574700000041,x,0.5477820000005522,None,33.22595840000031,33.23233679999976,33.4120469999998,32.67466890000014,,,,,,,,NU_th,001,2025-03-07_12h01.04.322,MainFlow,2024.2.4,154.18488618070316,2025-03-07 12h01.21.023507 +0700,
1,3,2,7,letter/lettgr072.png,letter/lettth025.png,11,11,0,x,0.53966919999948,None,0,11,11,11,33.4342244999998,,,,,,,33.4342244999998,34.419513599999846,34.42512869999973,34.42512869999973,34.968635399999584,x,0.53966919999948,None,34.96884950000003,34.97700989999976,35.15414049999981,34.42512869999973,,,,,,,,NU_th,001,2025-03-07_12h01.04.322,MainFlow,2024.2.4,154.18488618070316,2025-03-07 12h01.21.023507 +0700,
1,1,2,2,letter/letten062.png,letter/lettth061.png,12,12,0,x,0.5855486000000383,None,0,12,12,12,35.169439299999794,,,,,,,35.169439299999794,36.155203500000425,36.16069739999966,36.16069739999966,36.75434959999984,x,0.5855486000000383,None,36.7546599999996,36.76068699999996,36.93941040000027,36.16069739999966,,,,,,,,NU_th,001,2025-03-07_12h01.04.322,MainFlow,2024.2.4,154.18488618070316,2025-03-07 12h01.21.023507 +0700,
1,2,2,8,letter/lettkh031.png,letter/lettth153.png,13,13,0,x,0.640849899999921,None,0,13,13,13,36.9634573000003,,,,,,,36.9634573000003,37.953492200000255,37.95904900000005,37.95904900000005,38.606777500000135,x,0.640849899999921,None,38.606991700000435,38.61343659999966,38.79315729999962,37.95904900000005,,,,,,,,NU_th,001,2025-03-07_12h01.04.322,MainFlow,2024.2.4,154.18488618070316,2025-03-07 12h01.21.023507 +0700,
1,2,2,2,letter/lettkh032.png,letter/lettth032.png,14,14,0,x,0.6606601000003138,None,0,14,14,14,38.81653399999959,,,,,,,38.81653399999959,39.80673449999995,39.81230839999989,39.81230839999989,40.48244950000026,x,0.6606601000003138,None,40.482662399999754,40.4889205999998,40.66774989999976,39.81230839999989,,,,,,,,NU_th,001,2025-03-07_12h01.04.322,MainFlow,2024.2.4,154.18488618070316,2025-03-07 12h01.21.023507 +0700,
1,3,2,1,letter/lettgr143.png,letter/lettth132.png,15,15,0,x,0.5424428000005719,None,0,15,15,15,40.690907100000004,,,,,,,40.690907100000004,41.67514529999971,41.68085989999963,41.68085989999963,42.231075699999565,x,0.5424428000005719,None,42.2312866000002,42.23688659999971,42.417536900000414,41.68085989999963,,,,,,,,NU_th,001,2025-03-07_12h01.04.322,MainFlow,2024.2.4,154.18488618070316,2025-03-07 12h01.21.023507 +0700,
1,3,2,6,letter/lettgr061.png,letter/lettth082.png,16,16,0,x,0.47318039999936445,None,0,16,16,16,42.441006000000016,,,,,,,42.441006000000016,43.43163170000025,43.43754179999996,43.43754179999996,43.91794539999955,x,0.47318039999936445,None,43.91807450000033,43.92252540000027,44.103745999999774,43.43754179999996,,,,,,,,NU_th,001,2025-03-07_12h01.04.322,MainFlow,2024.2.4,154.18488618070316,2025-03-07 12h01.21.023507 +0700,
1,2,2,6,letter/lettkh033.png,letter/lettth161.png,17,17,0,x,0.5030286999999589,None,0,17,17,17,44.11936659999992,,,,,,,44.11936659999992,45.104935399999704,45.11083159999998,45.11083159999998,45.61916099999962,x,0.5030286999999589,None,45.61939679999978,45.62594009999975,45.80566960000033,45.11083159999998,,,,,,,,NU_th,001,2025-03-07_12h01.04.322,MainFlow,2024.2.4,154.18488618070316,2025-03-07 12h01.21.023507 +0700,
1,3,1,3,letter/lettth155.png,letter/lettgr153.png,18,18,0,z,0.3928384000000733,None,0,18,18,18,45.82835890000024,,,,,,,45.82835890000024,46.818986700000096,46.823888900000384,46.823888900000384,47.222069100000226,z,0.3928384000000733,None,47.22228559999985,47.227928899999824,47.40856350000013,46.823888900000384,,,,,,,,NU_th,001,2025-03-07_12h01.04.322,MainFlow,2024.2.4,154.18488618070316,2025-03-07 12h01.21.023507 +0700,
1,3,2,1,letter/lettgr143.png,letter/lettth132.png,19,19,0,x,0.418450600000142,None,0,19,19,19,47.43137839999963,,,,,,,47.43137839999963,48.41504640000039,48.42071140000007,48.42071140000007,48.84683700000005,x,0.418450600000142,None,48.8470441999998,48.85228120000011,49.033345499999996,48.42071140000007,,,,,,,,NU_th,001,2025-03-07_12h01.04.322,MainFlow,2024.2.4,154.18488618070316,2025-03-07 12h01.21.023507 +0700,
1,3,1,1,letter/lettth132.png,letter/lettgr143.png,20,20,0,z,0.5744740999998612,None,0,20,20,20,49.05614380000043,,,,,,,49.05614380000043,50.04056849999961,50.04592020000018,50.04592020000018,50.62449629999992,z,0.5744740999998612,None,50.62471370000003,50.63090029999967,50.81082929999957,50.04592020000018,,,,,,,,NU_th,001,2025-03-07_12h01.04.322,MainFlow,2024.2.4,154.18488618070316,2025-03-07 12h01.21.023507 +0700,
1,1,2,8,letter/letten031.png,letter/lettth161.png,21,21,0,x,0.44314829999984795,None,0,21,21,21,50.8331134,,,,,,,50.8331134,51.818377200000214,51.82357159999992,51.82357159999992,52.270302699999775,x,0.44314829999984795,None,52.27052780000031,52.27701900000011,52.45668999999998,51.82357159999992,,,,,,,,NU_th,001,2025-03-07_12h01.04.322,MainFlow,2024.2.4,154.18488618070316,2025-03-07 12h01.21.023507 +0700,
1,1,1,5,letter/lettth152.png,letter/letten041.png,22,22,0,z,0.4056797999992341,None,0,22,22,22,52.478626500000246,,,,,,,52.478626500000246,53.46407350000027,53.46914110000034,53.46914110000034,53.8819297,z,0.4056797999992341,None,53.88214530000005,53.88752079999995,54.06787429999986,53.46914110000034,,,,,,,,NU_th,001,2025-03-07_12h01.04.322,MainFlow,2024.2.4,154.18488618070316,2025-03-07 12h01.21.023507 +0700,
1,1,2,6,letter/letten153.png,letter/lettth024.png,23,23,0,x,0.3462433999993664,None,0,23,23,23,54.09225400000014,,,,,,,54.09225400000014,55.08216150000044,55.08763660000022,55.08763660000022,55.43709349999972,x,0.3462433999993664,None,55.437303800000336,55.444360999999844,55.6230330999997,55.08763660000022,,,,,,,,NU_th,001,2025-03-07_12h01.04.322,MainFlow,2024.2.4,154.18488618070316,2025-03-07 12h01.21.023507 +0700,
1,1,1,8,letter/lettth161.png,letter/letten031.png,24,24,0,z,0.46857910000017,None,0,24,24,24,55.64746230000037,,,,,,,55.64746230000037,56.637355699999716,56.642928700000084,56.642928700000084,57.11721969999962,z,0.46857910000017,None,57.11744590000035,57.12382330000037,57.30331540000043,56.642928700000084,,,,,,,,NU_th,001,2025-03-07_12h01.04.322,MainFlow,2024.2.4,154.18488618070316,2025-03-07 12h01.21.023507 +0700,
1,3,1,1,letter/lettth132.png,letter/lettgr143.png,25,25,0,z,0.41382919999978185,None,0,25,25,25,57.327467199999774,,,,,,,57.327467199999774,58.31777150000016,58.32347889999983,58.32347889999983,58.741598599999634,z,0.41382919999978185,None,58.741812799999934,58.74817359999997,58.92703110000002,58.32347889999983,,,,,,,,NU_th,001,2025-03-07_12h01.04.322,MainFlow,2024.2.4,154.18488618070316,2025-03-07 12h01.21.023507 +0700,
1,3,2,4,letter/lettgr064.png,letter/lettth024.png,26,26,0,x,0.37290329999996175,None,0,26,26,26,58.9490237,,,,,,,58.9490237,59.93461490000027,59.93948139999975,59.93948139999975,60.31675809999979,x,0.37290329999996175,None,60.31697410000015,60.3223366000002,60.503220800000236,59.93948139999975,,,,,,,,NU_th,001,2025-03-07_12h01.04.322,MainFlow,2024.2.4,154.18488618070316,2025-03-07 12h01.21.023507 +0700,
1,2,1,6,letter/lettth161.png,letter/lettkh033.png,27,27,0,z,0.38846620000003895,None,0,27,27,27,60.52639619999991,,,,,,,60.52639619999991,61.51094430000012,61.51621410000007,61.51621410000007,61.9078499999996,z,0.38846620000003895,None,61.90810109999984,61.91427279999971,62.093127500000264,61.51621410000007,,,,,,,,NU_th,001,2025-03-07_12h01.04.322,MainFlow,2024.2.4,154.18488618070316,2025-03-07 12h01.21.023507 +0700,
1,2,1,1,letter/lettth061.png,letter/lettkh034.png,28,28,0,z,0.4211113999999725,None,0,28,28,28,62.1165461999999,,,,,,,62.1165461999999,63.100736999999754,63.10565229999975,63.10565229999975,63.53191450000031,z,0.4211113999999725,None,63.53212689999964,63.53836130000036,63.71815359999982,63.10565229999975,,,,,,,,NU_th,001,2025-03-07_12h01.04.322,MainFlow,2024.2.4,154.18488618070316,2025-03-07 12h01.21.023507 +0700,
1,1,2,7,letter/letten051.png,letter/lettth025.png,29,29,0,x,0.3128910999994332,None,0,29,29,29,63.740654999999606,,,,,,,63.740654999999606,64.72565200000008,64.73063710000042,64.73063710000042,65.04639409999982,x,0.3128910999994332,None,65.04660419999982,65.0527204,65.23217860000022,64.73063710000042,,,,,,,,NU_th,001,2025-03-07_12h01.04.322,MainFlow,2024.2.4,154.18488618070316,2025-03-07 12h01.21.023507 +0700,
1,2,2,7,letter/lettkh033.png,letter/lettth072.png,30,30,0,x,0.3081328999996913,None,0,30,30,30,65.25602460000027,,,,,,,65.25602460000027,66.24638440000035,66.25172949999978,66.25172949999978,66.56708789999993,x,0.3081328999996913,None,66.56729480000013,66.57316030000038,66.75200669999958,66.25172949999978,,,,,,,,NU_th,001,2025-03-07_12h01.04.322,MainFlow,2024.2.4,154.18488618070316,2025-03-07 12h01.21.023507 +0700,
1,2,1,8,letter/lettth153.png,letter/lettkh031.png,31,31,0,z,0.3743328000000474,None,0,31,31,31,66.76459739999973,,,,,,,66.76459739999973,67.75335319999976,67.75878900000043,67.75878900000043,68.13608730000033,z,0.3743328000000474,None,68.13629880000008,68.14291520000006,68.32199779999974,67.75878900000043,,,,,,,,NU_th,001,2025-03-07_12h01.04.322,MainFlow,2024.2.4,154.18488618070316,2025-03-07 12h01.21.023507 +0700,
1,1,1,2,letter/lettth061.png,letter/letten062.png,32,32,0,z,0.4057847000003676,None,0,32,32,32,68.3460226999996,,,,,,,68.3460226999996,69.33665560000009,69.3443798999997,69.3443798999997,69.75349480000023,z,0.4057847000003676,None,69.75374499999998,69.7607108000002,69.93981499999973,69.3443798999997,,,,,,,,NU_th,001,2025-03-07_12h01.04.322,MainFlow,2024.2.4,154.18488618070316,2025-03-07 12h01.21.023507 +0700,
1,3,1,7,letter/lettth025.png,letter/lettgr072.png,33,33,0,z,0.3898930000004839,None,0,33,33,33,69.96354640000027,,,,,,,69.96354640000027,70.95417869999983,70.95960579999974,70.95960579999974,71.35631459999968,z,0.3898930000004839,None,71.35645310000018,71.36236110000027,71.54366560000017,70.95960579999974,,,,,,,,NU_th,001,2025-03-07_12h01.04.322,MainFlow,2024.2.4,154.18488618070316,2025-03-07 12h01.21.023507 +0700,
1,1,1,3,letter/lettth092.png,letter/letten041.png,34,34,0,z,0.5149106999997457,None,0,34,34,34,71.56808639999963,,,,,,,71.56808639999963,72.55684139999994,72.5629656000001,72.5629656000001,73.0874789999998,z,0.5149106999997457,None,73.0876930000004,73.09338910000042,73.2726260999998,,,,,,,,,NU_th,001,2025-03-07_12h01.04.322,MainFlow,2024.2.4,154.18488618070316,2025-03-07 12h01.21.023507 +0700,
1,3,1,5,letter/lettth052.png,letter/lettgr141.png,35,35,0,z,0.33091570000033244,None,0,35,35,35,73.29675849999967,,,,,,,73.29675849999967,74.28674640000008,74.29241280000042,74.29241280000042,74.62748629999987,z,0.33091570000033244,None,74.62776120000035,74.63417779999963,74.81387819999964,74.29241280000042,,,,,,,,NU_th,001,2025-03-07_12h01.04.322,MainFlow,2024.2.4,154.18488618070316,2025-03-07 12h01.21.023507 +0700,
1,1,1,6,letter/lettth024.png,letter/letten153.png,36,36,0,z,0.28190300000005664,None,0,36,36,36,74.83527330000015,,,,,,,74.83527330000015,75.81981189999988,75.82505390000006,75.82505390000006,76.11208890000034,z,0.28190300000005664,None,76.11229840000033,76.11837149999974,76.29865129999962,75.82505390000006,,,,,,,,NU_th,001,2025-03-07_12h01.04.322,MainFlow,2024.2.4,154.18488618070316,2025-03-07 12h01.21.023507 +0700,
1,1,1,3,letter/lettth092.png,letter/letten041.png,37,37,0,z,0.4114745999995648,None,0,37,37,37,76.32082910000008,,,,,,,76.32082910000008,77.30605529999957,77.31111070000043,77.31111070000043,77.73010929999964,z,0.4114745999995648,None,77.73032129999956,77.73514749999958,77.91653769999994,77.31111070000043,,,,,,,,NU_th,001,2025-03-07_12h01.04.322,MainFlow,2024.2.4,154.18488618070316,2025-03-07 12h01.21.023507 +0700,
1,1,1,7,letter/lettth025.png,letter/letten051.png,38,38,0,z,0.327226200000041,None,0,38,38,38,77.93930809999983,,,,,,,77.93930809999983,78.92419460000019,78.92915999999968,78.92915999999968,79.26447350000035,z,0.327226200000041,None,79.26468229999955,79.26946190000035,79.45098260000032,78.92915999999968,,,,,,,,NU_th,001,2025-03-07_12h01.04.322,MainFlow,2024.2.4,154.18488618070316,2025-03-07 12h01.21.023507 +0700,
1,3,1,6,letter/lettth082.png,letter/lettgr061.png,39,39,0,z,0.28195080000023154,None,0,39,39,39,79.4738940999996,,,,,,,79.4738940999996,80.45835910000005,80.4631932000002,80.4631932000002,80.75049690000014,z,0.28195080000023154,None,80.75070880000021,80.75667640000029,80.93673579999995,80.4631932000002,,,,,,,,NU_th,001,2025-03-07_12h01.04.322,MainFlow,2024.2.4,154.18488618070316,2025-03-07 12h01.21.023507 +0700,
1,2,1,4,letter/lettth153.png,letter/lettkh034.png,40,40,0,z,0.3203886000001148,None,0,40,40,40,80.95841269999983,,,,,,,80.95841269999983,81.94416149999961,81.94912279999971,81.94912279999971,82.2781584000004,z,0.3203886000001148,None,82.27852840000014,82.28535069999998,82.46416150000005,81.94912279999971,,,,,,,,NU_th,001,2025-03-07_12h01.04.322,MainFlow,2024.2.4,154.18488618070316,2025-03-07 12h01.21.023507 +0700,
1,3,2,8,letter/lettgr153.png,letter/lettth013.png,41,41,0,x,0.28445990000000165,None,0,41,41,41,82.48591620000025,,,,,,,82.48591620000025,83.47187339999982,83.47683349999988,83.47683349999988,83.76435260000017,x,0.28445990000000165,None,83.76456750000034,83.77128410000023,83.95030489999954,83.47683349999988,,,,,,,,NU_th,001,2025-03-07_12h01.04.322,MainFlow,2024.2.4,154.18488618070316,2025-03-07 12h01.21.023507 +0700,
1,1,1,4,letter/lettth041.png,letter/letten091.png,42,42,0,z,0.2862081000002945,None,0,42,42,42,83.97272369999973,,,,,,,83.97272369999973,84.95703740000044,84.96246510000037,84.96246510000037,85.25850030000038,z,0.2862081000002945,None,85.25871360000019,85.26397269999961,85.44328930000029,84.96246510000037,,,,,,,,NU_th,001,2025-03-07_12h01.04.322,MainFlow,2024.2.4,154.18488618070316,2025-03-07 12h01.21.023507 +0700,
1,3,1,8,letter/lettth013.png,letter/lettgr153.png,43,43,0,z,0.3004473000000871,None,0,43,43,43,85.46588340000017,,,,,,,85.46588340000017,86.4507537999998,86.45594700000038,86.45594700000038,86.76408859999992,z,0.3004473000000871,None,86.76429780000035,86.7705919,86.95035980000011,86.45594700000038,,,,,,,,NU_th,001,2025-03-07_12h01.04.322,MainFlow,2024.2.4,154.18488618070316,2025-03-07 12h01.21.023507 +0700,
1,2,1,3,letter/lettth112.png,letter/lettkh031.png,44,44,0,z,0.3507537000004959,None,0,44,44,44,86.97262299999966,,,,,,,86.97262299999966,87.95712679999997,87.96189340000001,87.96189340000001,88.31804949999969,z,0.3507537000004959,None,88.31826449999971,88.32359869999982,88.50482000000011,87.96189340000001,,,,,,,,NU_th,001,2025-03-07_12h01.04.322,MainFlow,2024.2.4,154.18488618070316,2025-03-07 12h01.21.023507 +0700,
1,1,2,2,letter/letten062.png,letter/lettth061.png,45,45,0,x,0.3489669999999023,None,0,45,45,45,88.52623130000029,,,,,,,88.52623130000029,89.51126229999954,89.51680089999991,89.51680089999991,89.87406180000016,x,0.3489669999999023,None,89.8742728999996,89.8796040999996,90.05999229999998,89.51680089999991,,,,,,,,NU_th,001,2025-03-07_12h01.04.322,MainFlow,2024.2.4,154.18488618070316,2025-03-07 12h01.21.023507 +0700,
1,3,1,7,letter/lettth025.png,letter/lettgr072.png,46,46,0,z,0.32174940000004426,None,0,46,46,46,90.08284290000029,,,,,,,90.08284290000029,91.06765040000028,91.07252119999976,91.07252119999976,91.40138930000012,z,0.32174940000004426,None,91.40163769999981,91.40654950000044,91.58776550000039,91.07252119999976,,,,,,,,NU_th,001,2025-03-07_12h01.04.322,MainFlow,2024.2.4,154.18488618070316,2025-03-07 12h01.21.023507 +0700,
1,1,1,7,letter/lettth025.png,letter/letten051.png,47,47,0,z,0.27642179999929795,None,0,47,47,47,91.61061299999983,,,,,,,91.61061299999983,92.59478299999955,92.59975450000002,92.59975450000002,92.88000029999967,z,0.27642179999929795,None,92.88021149999986,92.88590050000039,93.06627620000017,92.59975450000002,,,,,,,,NU_th,001,2025-03-07_12h01.04.322,MainFlow,2024.2.4,154.18488618070316,2025-03-07 12h01.21.023507 +0700,
1,2,2,5,letter/lettkh023.png,letter/lettth024.png,48,48,0,x,0.35982330000024376,None,0,48,48,48,93.0883960000001,,,,,,,93.0883960000001,94.07381999999961,94.07864559999962,94.07864559999962,94.44230729999981,x,0.35982330000024376,None,94.44252010000037,94.44869699999981,94.62866149999991,94.07864559999962,,,,,,,,NU_th,001,2025-03-07_12h01.04.322,MainFlow,2024.2.4,154.18488618070316,2025-03-07 12h01.21.023507 +0700,
1,2,1,5,letter/lettth024.png,letter/lettkh023.png,49,49,0,z,0.3081626999992295,None,0,49,49,49,94.65047510000022,,,,,,,94.65047510000022,95.63586440000017,95.64093830000002,95.64093830000002,95.9559046000004,z,0.3081626999992295,None,95.95611759999974,95.9610260999998,96.14237390000017,95.64093830000002,,,,,,,,NU_th,001,2025-03-07_12h01.04.322,MainFlow,2024.2.4,154.18488618070316,2025-03-07 12h01.21.023507 +0700,
1,3,2,5,letter/lettgr141.png,letter/lettth052.png,50,50,0,x,0.2789075999999113,None,0,50,50,50,96.16488519999984,,,,,,,96.16488519999984,97.14978489999976,97.15482080000038,97.15482080000038,97.44369470000038,x,0.2789075999999113,None,97.44390399999975,97.44936839999991,97.62839859999985,97.15482080000038,,,,,,,,NU_th,001,2025-03-07_12h01.04.322,MainFlow,2024.2.4,154.18488618070316,2025-03-07 12h01.21.023507 +0700,
1,2,2,8,letter/lettkh031.png,letter/lettth153.png,51,51,0,x,0.32978710000043066,None,0,51,51,51,97.6525373000004,,,,,,,97.6525373000004,98.64291870000034,98.64800809999997,98.64800809999997,98.98482330000024,x,0.32978710000043066,None,98.9850521999997,98.99142649999976,99.17006260000016,98.64800809999997,,,,,,,,NU_th,001,2025-03-07_12h01.04.322,MainFlow,2024.2.4,154.18488618070316,2025-03-07 12h01.21.023507 +0700,
1,1,2,5,letter/letten041.png,letter/lettth152.png,52,52,0,x,0.5142305999997916,None,0,52,52,52,99.19299880000017,,,,,,,99.19299880000017,100.1835772000004,100.18849630000022,100.18849630000022,100.70558989999972,x,0.5142305999997916,None,100.70580080000036,100.71135400000003,100.89117609999994,100.18849630000022,,,,,,,,NU_th,001,2025-03-07_12h01.04.322,MainFlow,2024.2.4,154.18488618070316,2025-03-07 12h01.21.023507 +0700,
1,1,1,1,letter/lettth022.png,letter/letten092.png,53,53,0,z,0.2570049000005383,None,0,53,53,53,100.91415959999995,,,,,,,100.91415959999995,101.89868500000011,101.90349409999999,101.90349409999999,102.16360239999995,z,0.2570049000005383,None,102.16380990000016,102.16942430000017,102.34939300000042,101.90349409999999,,,,,,,,NU_th,001,2025-03-07_12h01.04.322,MainFlow,2024.2.4,154.18488618070316,2025-03-07 12h01.21.023507 +0700,
1,2,1,1,letter/lettth061.png,letter/lettkh034.png,54,54,0,z,0.35684349999974074,None,0,54,54,54,102.3716045000001,,,,,,,102.3716045000001,103.35678730000018,103.3616936999997,103.3616936999997,103.72522190000018,z,0.35684349999974074,None,103.72543620000033,103.73022479999963,103.9115695999999,103.3616936999997,,,,,,,,NU_th,001,2025-03-07_12h01.04.322,MainFlow,2024.2.4,154.18488618070316,2025-03-07 12h01.21.023507 +0700,
1,3,2,4,letter/lettgr064.png,letter/lettth024.png,55,55,0,x,0.2872469000003548,None,0,55,55,55,103.93360649999977,,,,,,,103.93360649999977,104.91881639999974,104.92400379999981,104.92400379999981,105.21850619999987,x,0.2872469000003548,None,105.21875480000017,105.22458259999985,105.40466050000032,104.92400379999981,,,,,,,,NU_th,001,2025-03-07_12h01.04.322,MainFlow,2024.2.4,154.18488618070316,2025-03-07 12h01.21.023507 +0700,
1,3,1,5,letter/lettth052.png,letter/lettgr141.png,56,56,0,z,0.277298800000608,None,0,56,56,56,105.42702519999966,,,,,,,105.42702519999966,106.41200219999973,106.41705069999989,106.41705069999989,106.69750680000016,z,0.277298800000608,None,106.69771610000043,106.70451409999987,106.8835323000003,106.41705069999989,,,,,,,,NU_th,001,2025-03-07_12h01.04.322,MainFlow,2024.2.4,154.18488618070316,2025-03-07 12h01.21.023507 +0700,
1,1,1,8,letter/lettth161.png,letter/letten031.png,57,57,0,z,0.3448206000002756,None,0,57,57,57,106.90733889999956,,,,,,,106.90733889999956,107.8913222000001,107.89670870000009,107.89670870000009,108.24631810000028,z,0.3448206000002756,None,108.24652470000001,108.25377630000003,108.43236520000028,107.89670870000009,,,,,,,,NU_th,001,2025-03-07_12h01.04.322,MainFlow,2024.2.4,154.18488618070316,2025-03-07 12h01.21.023507 +0700,
1,1,1,4,letter/lettth041.png,letter/letten091.png,58,58,0,z,0.31486410000070464,None,0,58,58,58,108.4548150999999,,,,,,,108.4548150999999,109.43975609999961,109.44523140000001,109.44523140000001,109.76709169999958,z,0.31486410000070464,None,109.7673090999997,109.7745973000001,109.95294209999975,109.44523140000001,,,,,,,,NU_th,001,2025-03-07_12h01.04.322,MainFlow,2024.2.4,154.18488618070316,2025-03-07 12h01.21.023507 +0700,
1,2,1,4,letter/lettth153.png,letter/lettkh034.png,59,59,0,z,0.2505706000001737,None,0,59,59,59,109.97544610000023,,,,,,,109.97544610000023,110.96032529999957,110.96582880000005,110.96582880000005,111.2195899999997,z,0.2505706000001737,None,111.21980650000023,111.22679530000005,111.40426879999995,110.96582880000005,,,,,,,,NU_th,001,2025-03-07_12h01.04.322,MainFlow,2024.2.4,154.18488618070316,2025-03-07 12h01.21.023507 +0700,
1,1,2,3,letter/letten041.png,letter/lettth092.png,60,60,0,x,0.174859199999446,None,0,60,60,60,111.42778720000024,,,,,,,111.42778720000024,112.41838600000028,112.42427270000007,112.42427270000007,112.60695430000033,x,0.174859199999446,None,112.60716010000033,112.61402149999958,112.79267340000024,112.42427270000007,,,,,,,,NU_th,001,2025-03-07_12h01.04.322,MainFlow,2024.2.4,154.18488618070316,2025-03-07 12h01.21.023507 +0700,
1,3,2,2,letter/lettgr072.png,letter/lettth052.png,61,61,0,x,0.27628379999987374,None,0,61,61,61,112.81540190000032,,,,,,,112.81540190000032,113.8000549999997,113.80559559999983,113.80559559999983,114.08539660000042,x,0.27628379999987374,None,114.08560949999992,114.09202269999969,114.27190210000026,113.80559559999983,,,,,,,,NU_th,001,2025-03-07_12h01.04.322,MainFlow,2024.2.4,154.18488618070316,2025-03-07 12h01.21.023507 +0700,
1,1,2,8,letter/letten031.png,letter/lettth161.png,62,62,0,x,0.2779798999999912,None,0,62,62,62,114.29542000000038,,,,,,,114.29542000000038,115.28583789999993,115.2912765000001,115.2912765000001,115.57244179999998,x,0.2779798999999912,None,115.5726722999998,115.57941889999984,115.75733330000003,115.2912765000001,,,,,,,,NU_th,001,2025-03-07_12h01.04.322,MainFlow,2024.2.4,154.18488618070316,2025-03-07 12h01.21.023507 +0700,
1,1,1,5,letter/lettth152.png,letter/letten041.png,63,63,0,z,0.2554333999996743,None,0,63,63,63,115.7810043999998,,,,,,,115.7810043999998,116.77170959999967,116.77730909999991,116.77730909999991,117.03603039999962,z,0.2554333999996743,None,117.03624049999962,117.04253059999974,117.22254040000007,116.77730909999991,,,,,,,,NU_th,001,2025-03-07_12h01.04.322,MainFlow,2024.2.4,154.18488618070316,2025-03-07 12h01.21.023507 +0700,
1,2,2,2,letter/lettkh032.png,letter/lettth032.png,64,64,0,x,0.26467090000005555,None,0,64,64,64,117.24554799999987,,,,,,,117.24554799999987,118.23186439999972,118.23755660000006,118.23755660000006,118.50889259999985,x,0.26467090000005555,None,118.50910250000015,118.51532570000018,118.69427629999973,118.23755660000006,,,,,,,,NU_th,001,2025-03-07_12h01.04.322,MainFlow,2024.2.4,154.18488618070316,2025-03-07 12h01.21.023507 +0700,
1,3,1,2,letter/lettth052.png,letter/lettgr072.png,65,65,0,z,0.2571745999994164,None,0,65,65,65,118.71765270000014,,,,,,,118.71765270000014,119.7017552999996,119.70783380000012,119.70783380000012,119.97774800000025,z,0.2571745999994164,None,119.97795179999957,119.98541279999972,120.16518160000032,119.70783380000012,,,,,,,,NU_th,001,2025-03-07_12h01.04.322,MainFlow,2024.2.4,154.18488618070316,2025-03-07 12h01.21.023507 +0700,
1,1,2,4,letter/letten091.png,letter/lettth041.png,66,66,0,x,0.37050189999990835,None,0,66,66,66,120.18828320000011,,,,,,,120.18828320000011,121.17200419999972,121.17803879999974,121.17803879999974,121.55532089999997,x,0.37050189999990835,None,121.55552379999972,121.5602802000003,121.74135819999992,121.17803879999974,,,,,,,,NU_th,001,2025-03-07_12h01.04.322,MainFlow,2024.2.4,154.18488618070316,2025-03-07 12h01.21.023507 +0700,
1,3,2,5,letter/lettgr141.png,letter/lettth052.png,67,67,0,x,0.33985219999976835,None,0,67,67,67,121.76270959999965,,,,,,,121.76270959999965,122.7488231999996,122.75387450000017,122.75387450000017,123.09737930000028,x,0.33985219999976835,None,123.09758229999989,123.10318310000002,123.28302820000044,122.75387450000017,,,,,,,,NU_th,001,2025-03-07_12h01.04.322,MainFlow,2024.2.4,154.18488618070316,2025-03-07 12h01.21.023507 +0700,
1,2,2,3,letter/lettkh031.png,letter/lettth112.png,68,68,0,x,0.24248549999992974,None,0,68,68,68,123.3079015000003,,,,,,,123.3079015000003,124.29721960000006,124.3022248999996,124.3022248999996,124.54776810000021,x,0.24248549999992974,None,124.54798029999984,124.55435359999956,124.7340893999999,124.3022248999996,,,,,,,,NU_th,001,2025-03-07_12h01.04.322,MainFlow,2024.2.4,154.18488618070316,2025-03-07 12h01.21.023507 +0700,
1,3,2,7,letter/lettgr072.png,letter/lettth025.png,69,69,0,x,0.14415660000031494,None,0,69,69,69,124.75600810000014,,,,,,,124.75600810000014,125.74150100000043,125.74661500000002,125.74661500000002,125.89486070000021,x,0.14415660000031494,None,125.89511089999996,125.9010030999998,126.08131219999996,125.74661500000002,,,,,,,,NU_th,001,2025-03-07_12h01.04.322,MainFlow,2024.2.4,154.18488618070316,2025-03-07 12h01.21.023507 +0700,
1,3,2,2,letter/lettgr072.png,letter/lettth052.png,70,70,0,x,0.37227700000039476,None,0,70,70,70,126.10348330000033,,,,,,,126.10348330000033,127.08886470000016,127.09402580000005,127.09402580000005,127.47132739999961,x,0.37227700000039476,None,127.47153689999959,127.47770450000007,127.65784559999975,127.09402580000005,,,,,,,,NU_th,001,2025-03-07_12h01.04.322,MainFlow,2024.2.4,154.18488618070316,2025-03-07 12h01.21.023507 +0700,
1,1,1,1,letter/lettth022.png,letter/letten092.png,71,71,0,z,0.3066617000004044,None,0,71,71,71,127.68119169999954,,,,,,,127.68119169999954,128.6651442000002,128.67074260000027,128.67074260000027,128.9855445000003,z,0.3066617000004044,None,128.98575689999961,128.99224239999967,129.17150409999977,128.67074260000027,,,,,,,,NU_th,001,2025-03-07_12h01.04.322,MainFlow,2024.2.4,154.18488618070316,2025-03-07 12h01.21.023507 +0700,
1,3,1,6,letter/lettth082.png,letter/lettgr061.png,72,72,0,z,0.3776893000003838,None,0,72,72,72,129.19593749999967,,,,,,,129.19593749999967,130.1856686000001,130.19114160000026,130.19114160000026,130.5766733999999,z,0.3776893000003838,None,130.5768852000001,130.58420110000043,130.7614497000004,130.19114160000026,,,,,,,,NU_th,001,2025-03-07_12h01.04.322,MainFlow,2024.2.4,154.18488618070316,2025-03-07 12h01.21.023507 +0700,
1,2,1,7,letter/lettth072.png,letter/lettkh033.png,73,73,0,z,0.39192610000009154,None,0,73,73,73,130.78564490000008,,,,,,,130.78564490000008,131.7756532000003,131.78110910000032,131.78110910000032,132.1789047000002,z,0.39192610000009154,None,132.1791175999997,132.1853288000002,132.36429260000023,131.78110910000032,,,,,,,,NU_th,001,2025-03-07_12h01.04.322,MainFlow,2024.2.4,154.18488618070316,2025-03-07 12h01.21.023507 +0700,
1,3,2,6,letter/lettgr061.png,letter/lettth082.png,74,74,0,x,0.28202840000085416,None,0,74,74,74,132.3864956999996,,,,,,,132.3864956999996,133.37176530000033,133.37656080000033,133.37656080000033,133.6635938999998,x,0.28202840000085416,None,133.66380279999976,133.66953019999983,133.85008649999963,133.37656080000033,,,,,,,,NU_th,001,2025-03-07_12h01.04.322,MainFlow,2024.2.4,154.18488618070316,2025-03-07 12h01.21.023507 +0700,
1,1,2,6,letter/letten153.png,letter/lettth024.png,75,75,0,x,0.5587458999998489,None,0,75,75,75,133.8713598000004,,,,,,,133.8713598000004,134.8575380000002,134.8627636000001,134.8627636000001,135.42812130000038,x,0.5587458999998489,None,135.4283346000002,135.43300379999982,135.61388650000026,134.8627636000001,,,,,,,,NU_th,001,2025-03-07_12h01.04.322,MainFlow,2024.2.4,154.18488618070316,2025-03-07 12h01.21.023507 +0700,
1,2,2,1,letter/lettkh034.png,letter/lettth061.png,76,76,0,x,0.4040831000002072,None,0,76,76,76,135.63639179999973,,,,,,,135.63639179999973,136.62111319999985,136.62620909999987,136.62620909999987,137.03906370000004,x,0.4040831000002072,None,137.0392738999999,137.0443134999996,137.22495549999985,136.62620909999987,,,,,,,,NU_th,001,2025-03-07_12h01.04.322,MainFlow,2024.2.4,154.18488618070316,2025-03-07 12h01.21.023507 +0700,
1,2,1,6,letter/lettth161.png,letter/lettkh033.png,77,77,0,z,0.38660370000070543,None,0,77,77,77,137.2483672999997,,,,,,,137.2483672999997,138.23234159999993,138.23736559999998,138.23736559999998,138.62862510000014,z,0.38660370000070543,None,138.6288367999996,138.63589469999988,138.81413599999996,138.23736559999998,,,,,,,,NU_th,001,2025-03-07_12h01.04.322,MainFlow,2024.2.4,154.18488618070316,2025-03-07 12h01.21.023507 +0700,
1,2,2,7,letter/lettkh033.png,letter/lettth072.png,78,78,0,x,0.3773022999994282,None,0,78,78,78,138.82588769999984,,,,,,,138.82588769999984,139.81577769999967,139.82107089999954,139.82107089999954,140.20601290000013,x,0.3773022999994282,None,140.20622989999993,140.21205480000026,140.3916234999997,139.82107089999954,,,,,,,,NU_th,001,2025-03-07_12h01.04.322,MainFlow,2024.2.4,154.18488618070316,2025-03-07 12h01.21.023507 +0700,
1,2,1,8,letter/lettth153.png,letter/lettkh031.png,79,79,0,z,0.3159253000003446,None,0,79,79,79,140.41423300000042,,,,,,,140.41423300000042,141.40503059999992,141.40976649999993,141.40976649999993,141.73160879999978,z,0.3159253000003446,None,141.73181980000027,141.73776819999966,141.9179167000002,141.40976649999993,,,,,,,,NU_th,001,2025-03-07_12h01.04.322,MainFlow,2024.2.4,154.18488618070316,2025-03-07 12h01.21.023507 +0700,
1,3,1,2,letter/lettth052.png,letter/lettgr072.png,80,80,0,z,0.38615759999993315,None,0,80,80,80,141.94001910000043,,,,,,,141.94001910000043,142.92539670000042,142.9303431999997,142.9303431999997,143.3205707999996,z,0.38615759999993315,None,143.3206984999997,143.32706899999994,143.5074652000003,142.9303431999997,,,,,,,,NU_th,001,2025-03-07_12h01.04.322,MainFlow,2024.2.4,154.18488618070316,2025-03-07 12h01.21.023507 +0700,
1,2,1,2,letter/lettth032.png,letter/lettkh032.png,81,81,0,z,0.3177629000001616,None,0,81,81,81,143.52509960000043,,,,,,,143.52509960000043,144.51555329999974,144.52077480000025,144.52077480000025,144.8425288999997,z,0.3177629000001616,None,144.8427400999999,144.8508700000002,145.02880259999984,144.52077480000025,,,,,,,,NU_th,001,2025-03-07_12h01.04.322,MainFlow,2024.2.4,154.18488618070316,2025-03-07 12h01.21.023507 +0700,
1,1,2,7,letter/letten051.png,letter/lettth025.png,82,82,0,x,0.3344684000003326,None,0,82,82,82,145.0514917999999,,,,,,,145.0514917999999,146.0362226999996,146.04129579999972,146.04129579999972,146.38534530000015,x,0.3344684000003326,None,146.38555590000033,146.39120939999975,146.5703856,146.04129579999972,,,,,,,,NU_th,001,2025-03-07_12h01.04.322,MainFlow,2024.2.4,154.18488618070316,2025-03-07 12h01.21.023507 +0700,
1,3,1,4,letter/lettth024.png,letter/lettgr064.png,83,83,0,z,0.42867149999983667,None,0,83,83,83,146.59265659999983,,,,,,,146.59265659999983,147.57786269999997,147.5829292999997,147.5829292999997,148.0160447999997,z,0.42867149999983667,None,148.01629609999964,148.02403979999963,148.20237739999993,147.5829292999997,,,,,,,,NU_th,001,2025-03-07_12h01.04.322,MainFlow,2024.2.4,154.18488618070316,2025-03-07 12h01.21.023507 +0700,
1,3,2,3,letter/lettgr153.png,letter/lettth155.png,84,84,0,x,0.40285149999999703,None,0,84,84,84,148.22465639999973,,,,,,,148.22465639999973,149.20901429999958,149.21380690000024,149.21380690000024,149.61978790000012,x,0.40285149999999703,None,149.61999959999957,149.6254385000002,149.8052318,149.21380690000024,,,,,,,,NU_th,001,2025-03-07_12h01.04.322,MainFlow,2024.2.4,154.18488618070316,2025-03-07 12h01.21.023507 +0700,
1,1,1,6,letter/lettth024.png,letter/letten153.png,85,85,0,z,0.4023552999997264,None,0,85,85,85,149.8271549000001,,,,,,,149.8271549000001,150.81286009999985,150.81775480000033,150.81775480000033,151.22352899999987,z,0.4023552999997264,None,151.22374299999956,151.2290039999998,151.40945089999968,150.81775480000033,,,,,,,,NU_th,001,2025-03-07_12h01.04.322,MainFlow,2024.2.4,154.18488618070316,2025-03-07 12h01.21.023507 +0700,
1,1,2,3,letter/letten041.png,letter/lettth092.png,86,86,0,x,0.3010685999997804,None,0,86,86,86,151.4313761000003,,,,,,,151.4313761000003,152.41621300000043,152.42177489999995,152.42177489999995,152.7296419000004,x,0.3010685999997804,None,152.72998730000018,152.7351445000004,152.91609940000035,152.42177489999995,,,,,,,,NU_th,001,2025-03-07_12h01.04.322,MainFlow,2024.2.4,154.18488618070316,2025-03-07 12h01.21.023507 +0700,
1,2,2,1,letter/lettkh034.png,letter/lettth061.png,87,87,0,x,0.38895400000001246,None,0,87,87,87,152.93852009999955,,,,,,,152.93852009999955,153.92374550000022,153.92912220000017,153.92912220000017,154.32129449999957,x,0.38895400000001246,None,154.3215124999997,154.3273882000003,154.50632060000044,153.92912220000017,,,,,,,,NU_th,001,2025-03-07_12h01.04.322,MainFlow,2024.2.4,154.18488618070316,2025-03-07 12h01.21.023507 +0700,
1,3,1,3,letter/lettth155.png,letter/lettgr153.png,88,88,0,z,0.40172359999996843,None,0,88,88,88,154.52911539999968,,,,,,,154.52911539999968,155.51393840000037,155.51939010000024,155.51939010000024,155.9247594999997,z,0.40172359999996843,None,155.92497110000022,155.9313758999997,156.11061700000027,155.51939010000024,,,,,,,,NU_th,001,2025-03-07_12h01.04.322,MainFlow,2024.2.4,154.18488618070316,2025-03-07 12h01.21.023507 +0700,
1,2,1,3,letter/lettth112.png,letter/lettkh031.png,89,89,0,z,0.30651319999924453,None,0,89,89,89,156.13384430000042,,,,,,,156.13384430000042,157.12408870000036,157.12894450000022,157.12894450000022,157.44371390000015,z,0.30651319999924453,None,157.44396229999984,157.44862319999993,157.63024490000043,157.12894450000022,,,,,,,,NU_th,001,2025-03-07_12h01.04.322,MainFlow,2024.2.4,154.18488618070316,2025-03-07 12h01.21.023507 +0700,
1,2,2,5,letter/lettkh023.png,letter/lettth024.png,90,90,0,x,0.3751353999996354,None,0,90,90,90,157.65173640000012,,,,,,,157.65173640000012,158.63694419999956,158.64243830000032,158.64243830000032,159.0195133999996,x,0.3751353999996354,None,159.0196261000001,159.02423290000024,159.20552849999967,158.64243830000032,,,,,,,,NU_th,001,2025-03-07_12h01.04.322,MainFlow,2024.2.4,154.18488618070316,2025-03-07 12h01.21.023507 +0700,
1,1,2,4,letter/letten091.png,letter/lettth041.png,91,91,0,x,0.47136219999993045,None,0,91,91,91,159.22019230000024,,,,,,,159.22019230000024,160.20785309999974,160.21245699999963,160.21245699999963,160.68682480000007,x,0.47136219999993045,None,160.68702219999977,160.6943652,160.8728203999999,160.21245699999963,,,,,,,,NU_th,001,2025-03-07_12h01.04.322,MainFlow,2024.2.4,154.18488618070316,2025-03-07 12h01.21.023507 +0700,
1,2,2,3,letter/lettkh031.png,letter/lettth112.png,92,92,0,x,0.2587521999994351,None,0,92,92,92,160.89728300000024,,,,,,,160.89728300000024,161.88701219999984,161.89193890000024,161.89193890000024,162.16062359999978,x,0.2587521999994351,None,162.1608358000003,162.16593199999988,162.3449311000004,161.89193890000024,,,,,,,,NU_th,001,2025-03-07_12h01.04.322,MainFlow,2024.2.4,154.18488618070316,2025-03-07 12h01.21.023507 +0700,
1,3,1,8,letter/lettth013.png,letter/lettgr153.png,93,93,0,z,0.3500403999996706,None,0,93,93,93,162.36710289999974,,,,,,,162.36710289999974,163.35233900000003,163.35746070000005,163.35746070000005,163.71352690000003,z,0.3500403999996706,None,163.71373349999976,163.71956539999974,163.89995400000043,163.35746070000005,,,,,,,,NU_th,001,2025-03-07_12h01.04.322,MainFlow,2024.2.4,154.18488618070316,2025-03-07 12h01.21.023507 +0700,
1,1,1,2,letter/lettth061.png,letter/letten062.png,94,94,0,z,0.32540460000018356,None,0,94,94,94,163.92284990000007,,,,,,,163.92284990000007,164.90748619999977,164.91287310000007,164.91287310000007,165.24193000000014,z,0.32540460000018356,None,165.24214409999968,165.2475819000001,165.42760259999977,164.91287310000007,,,,,,,,NU_th,001,2025-03-07_12h01.04.322,MainFlow,2024.2.4,154.18488618070316,2025-03-07 12h01.21.023507 +0700,
1,3,2,3,letter/lettgr153.png,letter/lettth155.png,95,95,0,x,0.8100907000007282,None,0,95,95,95,165.45019729999967,,,,,,,165.45019729999967,166.43499119999979,166.44011370000044,166.44011370000044,167.2553925000002,x,0.8100907000007282,None,167.2555983000002,167.26291880000008,167.44157879999966,166.44011370000044,,,,,,,,NU_th,001,2025-03-07_12h01.04.322,MainFlow,2024.2.4,154.18488618070316,2025-03-07 12h01.21.023507 +0700,
,,,,,,,,,,,,,,,,,,,,,,,,,,,,,,,,,,,167.44182499999988,167.44928470000013,167.44928470000013,171.9558920999998,space,4.501485900000262,None,NU_th,001,2025-03-07_12h01.04.322,MainFlow,2024.2.4,154.18488618070316,2025-03-07 12h01.21.023507 +0700,
