lang,langpair,sequence,pairid,firstdir,seconddir,thisN,thisTrialN,thisRepN,key_resp.keys,key_resp.rt,key_resp.duration,trials.thisRepN,trials.thisTrialN,trials.thisN,trials.thisIndex,thisRow.t,notes,tutorial.started,tutorial.stopped,key_instruct.keys,key_instruct.rt,key_instruct.duration,image_first.started,letterselect.started,instruct.started,key_resp.started,letterselect.stopped,trials.key_resp.keys,trials.key_resp.rt,trials.key_resp.duration,blanknext.started,instruct_2.started,blanknext.stopped,image_first.stopped,ending.started,text_3.started,ending_key.started,ending.stopped,ending_key.keys,ending_key.rt,ending_key.duration,participant,session,date,expName,psychopyVersion,frameRate,expStart,
,,,,,,,,,,,,,,,,,,0.00403160008136183,3.0606814000057057,space,3.0214296000776812,None,,,,,,,,,,,,,,,,,,,,PM_en,001,2025-03-07_11h30.13.102,MainFlow,2024.2.4,144.1865426979268,2025-03-07 11h30.30.945596 +0700,
2,2,1,6,letter/letten061.png,letter/lettkh155.png,0,0,0,z,0.6751646999036893,None,0,0,0,0,3.111094000050798,,,,,,,3.111094000050798,4.075553800095804,4.08051920006983,4.08051920006983,4.762711700052023,z,0.6751646999036893,None,4.767060699989088,4.772984100040048,4.9496117000235245,,,,,,,,,PM_en,001,2025-03-07_11h30.13.102,MainFlow,2024.2.4,144.1865426979268,2025-03-07 11h30.30.945596 +0700,
2,1,2,2,letter/lettth142.png,letter/letten181.png,1,1,0,x,0.29488259996287525,None,0,1,1,1,4.959275400033221,,,,,,,4.959275400033221,5.942858100053854,5.956460200017318,5.956460200017318,6.255738100036979,x,0.29488259996287525,None,6.255827900022268,6.2617034000577405,6.4430073000257835,5.949547299998812,,,,,,,,PM_en,001,2025-03-07_11h30.13.102,MainFlow,2024.2.4,144.1865426979268,2025-03-07 11h30.30.945596 +0700,
2,1,1,2,letter/letten181.png,letter/lettth142.png,2,2,0,z,0.19844039995223284,None,0,2,2,2,6.452839700039476,,,,,,,6.452839700039476,7.436389500042424,7.4492175000486895,7.4492175000486895,7.651863900013268,z,0.19844039995223284,None,7.651946200057864,7.657304699998349,7.838782400009222,7.442689400049858,,,,,,,,PM_en,001,2025-03-07_11h30.13.102,MainFlow,2024.2.4,144.1865426979268,2025-03-07 11h30.30.945596 +0700,
2,2,1,8,letter/letten051.png,letter/lettkh035.png,3,3,0,z,0.20294109999667853,None,0,3,3,3,7.8480442999862134,,,,,,,7.8480442999862134,8.83192670007702,8.845289100077935,8.845289100077935,9.054633400053717,z,0.20294109999667853,None,9.054711100063287,9.060033400077373,9.241731100017205,8.838458000100218,,,,,,,,PM_en,001,2025-03-07_11h30.13.102,MainFlow,2024.2.4,144.1865426979268,2025-03-07 11h30.30.945596 +0700,
2,3,2,2,letter/lettgr061.png,letter/letten061.png,4,4,0,x,0.2024700999027118,None,0,4,4,4,9.250848400057293,,,,,,,9.250848400057293,10.234502500039525,10.248048700043,10.248048700043,10.457021500100382,x,0.2024700999027118,None,10.457089800038375,10.46347550000064,10.644259500084445,10.241122100036591,,,,,,,,PM_en,001,2025-03-07_11h30.13.102,MainFlow,2024.2.4,144.1865426979268,2025-03-07 11h30.30.945596 +0700,
2,3,1,7,letter/letten062.png,letter/lettgr065.png,5,5,0,z,0.19493710005190223,None,0,5,5,5,10.652901599998586,,,,,,,10.652901599998586,11.637085400056094,11.650628500035964,11.650628500035964,11.852645800099708,z,0.19493710005190223,None,11.852723399992101,11.858950200024992,12.03974170004949,11.64371120010037,,,,,,,,PM_en,001,2025-03-07_11h30.13.102,MainFlow,2024.2.4,144.1865426979268,2025-03-07 11h30.30.945596 +0700,
2,2,1,7,letter/letten112.png,letter/lettkh083.png,6,6,0,z,0.19757349998690188,None,0,6,6,6,12.048170800087973,,,,,,,12.048170800087973,13.033612600062042,13.046651300042868,13.046651300042868,13.24880599998869,z,0.19757349998690188,None,13.248885600012727,13.254943100037053,13.435667400015518,13.039562400081195,,,,,,,,PM_en,001,2025-03-07_11h30.13.102,MainFlow,2024.2.4,144.1865426979268,2025-03-07 11h30.30.945596 +0700,
2,1,1,1,letter/letten041.png,letter/lettth022.png,7,7,0,z,0.06880210002418607,None,0,7,7,7,13.444696200080216,,,,,,,13.444696200080216,14.428933200077154,14.442359999986365,14.442359999986365,14.513319100020453,z,0.06880210002418607,None,14.513395600020885,14.518311900086701,14.70030270004645,14.435332600027323,,,,,,,,PM_en,001,2025-03-07_11h30.13.102,MainFlow,2024.2.4,144.1865426979268,2025-03-07 11h30.30.945596 +0700,
2,3,1,6,letter/letten061.png,letter/lettgr066.png,8,8,0,z,0.3586155999219045,None,0,8,8,8,14.7102620000951,,,,,,,14.7102620000951,15.699702500016429,15.70610440010205,15.70610440010205,16.06848480005283,z,0.3586155999219045,None,16.068560100044124,16.074175500078127,16.25542560010217,15.70610440010205,,,,,,,,PM_en,001,2025-03-07_11h30.13.102,MainFlow,2024.2.4,144.1865426979268,2025-03-07 11h30.30.945596 +0700,
2,2,2,6,letter/lettkh155.png,letter/letten061.png,9,9,0,x,0.2515989999519661,None,0,9,9,9,16.265881000086665,,,,,,,16.265881000086665,17.255205300054513,17.26166670001112,17.26166670001112,17.51980580005329,x,0.2515989999519661,None,17.519927100045606,17.525192900095135,17.706770300050266,17.26166670001112,,,,,,,,PM_en,001,2025-03-07_11h30.13.102,MainFlow,2024.2.4,144.1865426979268,2025-03-07 11h30.30.945596 +0700,
2,1,2,6,letter/lettth132.png,letter/letten091.png,10,10,0,x,0.18417749996297061,None,0,10,10,10,17.716710700071417,,,,,,,17.716710700071417,18.69965210009832,18.71329430001788,18.71329430001788,18.901864600018598,x,0.18417749996297061,None,18.90194320003502,18.907156000030227,19.088916600099765,18.705939900013618,,,,,,,,PM_en,001,2025-03-07_11h30.13.102,MainFlow,2024.2.4,144.1865426979268,2025-03-07 11h30.30.945596 +0700,
2,2,1,5,letter/letten051.png,letter/lettkh157.png,11,11,0,z,0.18641790002584457,None,0,11,11,11,19.098476400016807,,,,,,,19.098476400016807,20.08164009999018,20.094980200054124,20.094980200054124,20.283248800085858,z,0.18641790002584457,None,20.283340500085615,20.289437300059944,20.4703611000441,20.088275199988857,,,,,,,,PM_en,001,2025-03-07_11h30.13.102,MainFlow,2024.2.4,144.1865426979268,2025-03-07 11h30.30.945596 +0700,
2,3,1,3,letter/letten061.png,letter/lettgr063.png,12,12,0,z,0.1771312999771908,None,0,12,12,12,20.481981600052677,,,,,,,20.481981600052677,21.470293599995784,21.476701600011438,21.476701600011438,21.658084299997427,z,0.1771312999771908,None,21.658165900036693,21.664118500077166,21.84504550008569,21.476701600011438,,,,,,,,PM_en,001,2025-03-07_11h30.13.102,MainFlow,2024.2.4,144.1865426979268,2025-03-07 11h30.30.945596 +0700,
2,2,2,8,letter/lettkh035.png,letter/letten051.png,13,13,0,x,0.18250540003646165,None,0,13,13,13,21.853997400030494,,,,,,,21.853997400030494,22.838463800027966,22.851487200008705,22.851487200008705,23.040150600019842,x,0.18250540003646165,None,23.040241100010462,23.045698200003244,23.227276500081643,22.844589699991047,,,,,,,,PM_en,001,2025-03-07_11h30.13.102,MainFlow,2024.2.4,144.1865426979268,2025-03-07 11h30.30.945596 +0700,
2,1,2,3,letter/lettth152.png,letter/letten142.png,14,14,0,x,0.2518502000020817,None,0,14,14,14,23.23520220001228,,,,,,,23.23520220001228,24.22052510001231,24.233855600003153,24.233855600003153,24.491839100024663,x,0.2518502000020817,None,24.491939600091428,24.49746480002068,24.678601399995387,24.22685800003819,,,,,,,,PM_en,001,2025-03-07_11h30.13.102,MainFlow,2024.2.4,144.1865426979268,2025-03-07 11h30.30.945596 +0700,
2,2,2,6,letter/lettkh155.png,letter/letten061.png,15,15,0,x,0.20494339999277145,None,0,15,15,15,24.686407100060023,,,,,,,24.686407100060023,25.67130080005154,25.684814600041136,25.684814600041136,25.894005900016055,x,0.20494339999277145,None,25.894097100012004,25.90014600008726,26.080995400086977,25.67805930005852,,,,,,,,PM_en,001,2025-03-07_11h30.13.102,MainFlow,2024.2.4,144.1865426979268,2025-03-07 11h30.30.945596 +0700,
2,3,1,1,letter/letten021.png,letter/lettgr021.png,16,16,0,z,0.19648209994193166,None,0,16,16,16,26.091047500027344,,,,,,,26.091047500027344,27.074291400029324,27.08769320009742,27.08769320009742,27.289784400025383,z,0.19648209994193166,None,27.2898599000182,27.296204400015995,27.4767004000023,27.080935100093484,,,,,,,,PM_en,001,2025-03-07_11h30.13.102,MainFlow,2024.2.4,144.1865426979268,2025-03-07 11h30.30.945596 +0700,
2,3,1,3,letter/letten061.png,letter/lettgr063.png,17,17,0,z,0.173332899925299,None,0,17,17,17,27.48447730008047,,,,,,,27.48447730008047,28.47018410009332,28.48354919999838,28.48354919999838,28.658243900048546,z,0.173332899925299,None,28.65832839999348,28.663736000075005,28.845120300073177,28.476390900090337,,,,,,,,PM_en,001,2025-03-07_11h30.13.102,MainFlow,2024.2.4,144.1865426979268,2025-03-07 11h30.30.945596 +0700,
2,2,1,1,letter/letten153.png,letter/lettkh159.png,18,18,0,z,0.11376019997987896,None,0,18,18,18,28.854335400043055,,,,,,,28.854335400043055,29.838329900056124,29.851678600069135,29.851678600069135,29.970791700063273,z,0.11376019997987896,None,29.970874599996023,29.97630500001833,30.157643800019287,29.84471630002372,,,,,,,,PM_en,001,2025-03-07_11h30.13.102,MainFlow,2024.2.4,144.1865426979268,2025-03-07 11h30.30.945596 +0700,
2,1,1,6,letter/letten091.png,letter/lettth132.png,19,19,0,z,0.07608649996109307,None,0,19,19,19,30.16700040001888,,,,,,,30.16700040001888,31.150765900034457,31.164217000012286,31.164217000012286,31.241602200083435,z,0.07608649996109307,None,31.241682399995625,31.247074700077064,31.428141899988987,31.157165000098757,,,,,,,,PM_en,001,2025-03-07_11h30.13.102,MainFlow,2024.2.4,144.1865426979268,2025-03-07 11h30.30.945596 +0700,
2,3,2,5,letter/lettgr012.png,letter/letten011.png,20,20,0,x,0.22832340002059937,None,0,20,20,20,31.439229700015858,,,,,,,31.439229700015858,32.42833370005246,32.43481330003124,32.43481330003124,32.66515550005715,x,0.22832340002059937,None,32.665225700009614,32.67124320007861,32.851944699999876,32.43481330003124,,,,,,,,PM_en,001,2025-03-07_11h30.13.102,MainFlow,2024.2.4,144.1865426979268,2025-03-07 11h30.30.945596 +0700,
2,1,1,2,letter/letten181.png,letter/lettth142.png,21,21,0,z,0.37411420000717044,None,0,21,21,21,32.861252100090496,,,,,,,32.861252100090496,33.845199300092645,33.85866860009264,33.85866860009264,34.23455829999875,z,0.37411420000717044,None,34.23466740001459,34.24005870008841,34.421263099997304,33.85164150001947,,,,,,,,PM_en,001,2025-03-07_11h30.13.102,MainFlow,2024.2.4,144.1865426979268,2025-03-07 11h30.30.945596 +0700,
2,2,1,5,letter/letten051.png,letter/lettkh157.png,22,22,0,z,0.11255720001645386,None,0,22,22,22,34.43018550006673,,,,,,,34.43018550006673,35.414739400031976,35.427641100017354,35.427641100017354,35.54672580002807,z,0.11255720001645386,None,35.54680990008637,35.55247510003392,35.733732699998654,35.42068770003971,,,,,,,,PM_en,001,2025-03-07_11h30.13.102,MainFlow,2024.2.4,144.1865426979268,2025-03-07 11h30.30.945596 +0700,
2,3,1,4,letter/letten062.png,letter/lettgr063.png,23,23,0,z,0.1836285999743268,None,0,23,23,23,35.74354820000008,,,,,,,35.74354820000008,36.727232700097375,36.74013010005001,36.74013010005001,36.92872510000598,z,0.1836285999743268,None,36.92880090000108,36.93437840009574,37.11587000009604,36.73316800000612,,,,,,,,PM_en,001,2025-03-07_11h30.13.102,MainFlow,2024.2.4,144.1865426979268,2025-03-07 11h30.30.945596 +0700,
2,3,2,3,letter/lettgr063.png,letter/letten061.png,24,24,0,x,0.09101979993283749,None,0,24,24,24,37.127960200072266,,,,,,,37.127960200072266,38.11603020003531,38.122357800020836,38.122357800020836,38.22062440006994,x,0.09101979993283749,None,38.22069820004981,38.226466500083916,38.40748080005869,38.122357800020836,,,,,,,,PM_en,001,2025-03-07_11h30.13.102,MainFlow,2024.2.4,144.1865426979268,2025-03-07 11h30.30.945596 +0700,
2,2,2,5,letter/lettkh157.png,letter/letten051.png,25,25,0,x,0.2083449000492692,None,0,25,25,25,38.41892650001682,,,,,,,38.41892650001682,39.40746010001749,39.41412630002014,39.41412630002014,39.62345690000802,x,0.2083449000492692,None,39.62355200003367,39.62866779998876,39.810122000053525,39.41412630002014,,,,,,,,PM_en,001,2025-03-07_11h30.13.102,MainFlow,2024.2.4,144.1865426979268,2025-03-07 11h30.30.945596 +0700,
2,3,1,5,letter/letten011.png,letter/lettgr012.png,26,26,0,z,0.11816779989749193,None,0,26,26,26,39.81995410006493,,,,,,,39.81995410006493,40.803589100018144,40.8171232000459,40.8171232000459,40.94249070005026,z,0.11816779989749193,None,40.94257920002565,40.94868020003196,41.12962210003752,40.80964520003181,,,,,,,,PM_en,001,2025-03-07_11h30.13.102,MainFlow,2024.2.4,144.1865426979268,2025-03-07 11h30.30.945596 +0700,
2,3,1,1,letter/letten021.png,letter/lettgr021.png,27,27,0,z,0.10856010008137673,None,0,27,27,27,41.13917700003367,,,,,,,41.13917700003367,42.12283530004788,42.136074500042014,42.136074500042014,42.24807640002109,z,0.10856010008137673,None,42.248163400101475,42.25414149998687,42.435153000056744,42.12958080007229,,,,,,,,PM_en,001,2025-03-07_11h30.13.102,MainFlow,2024.2.4,144.1865426979268,2025-03-07 11h30.30.945596 +0700,
2,2,1,8,letter/letten051.png,letter/lettkh035.png,28,28,0,z,0.10079659998882562,None,0,28,28,28,42.44491469999775,,,,,,,42.44491469999775,43.428471000050195,43.44170630001463,43.44170630001463,43.54679980000947,z,0.10079659998882562,None,43.546880800044164,43.552798700053245,43.73376060009468,43.43462110008113,,,,,,,,PM_en,001,2025-03-07_11h30.13.102,MainFlow,2024.2.4,144.1865426979268,2025-03-07 11h30.30.945596 +0700,
2,3,1,4,letter/letten062.png,letter/lettgr063.png,29,29,0,z,0.18635410000570118,None,0,29,29,29,43.74273830000311,,,,,,,43.74273830000311,44.7270290000597,44.740170200006105,44.740170200006105,44.9287116000196,z,0.18635410000570118,None,44.928803400020115,44.93416520010214,45.11579760001041,44.733173400047235,,,,,,,,PM_en,001,2025-03-07_11h30.13.102,MainFlow,2024.2.4,144.1865426979268,2025-03-07 11h30.30.945596 +0700,
2,1,2,8,letter/lettth022.png,letter/letten131.png,30,30,0,x,0.06352319999132305,None,0,30,30,30,45.125224900082685,,,,,,,45.125224900082685,46.108665300067514,46.12199410004541,46.12199410004541,46.19228389998898,x,0.06352319999132305,None,46.19236910005566,46.198057100060396,46.37968150002416,46.115021000034176,,,,,,,,PM_en,001,2025-03-07_11h30.13.102,MainFlow,2024.2.4,144.1865426979268,2025-03-07 11h30.30.945596 +0700,
2,2,1,1,letter/letten153.png,letter/lettkh159.png,31,31,0,z,0.017913800082169473,None,0,31,31,31,46.38866300007794,,,,,,,46.38866300007794,47.3725729000289,47.3859977000393,47.3859977000393,47.40751779999118,z,0.017913800082169473,None,47.40759409999009,47.413294200086966,47.59451690001879,47.379217999987304,,,,,,,,PM_en,001,2025-03-07_11h30.13.102,MainFlow,2024.2.4,144.1865426979268,2025-03-07 11h30.30.945596 +0700,
2,2,1,4,letter/letten071.png,letter/lettkh055.png,32,32,0,z,0.13187089993152767,None,0,32,32,32,47.60406600008719,,,,,,,47.60406600008719,48.587953000096604,48.601335100014694,48.601335100014694,48.74050930002704,z,0.13187089993152767,None,48.74059750000015,48.74691089999396,48.92815100005828,48.59441040002275,,,,,,,,PM_en,001,2025-03-07_11h30.13.102,MainFlow,2024.2.4,144.1865426979268,2025-03-07 11h30.30.945596 +0700,
2,1,1,5,letter/letten121.png,letter/lettth101.png,33,33,0,z,0.07687730004545301,None,0,33,33,33,48.93958550004754,,,,,,,48.93958550004754,49.928029200062156,49.93446120002773,49.93446120002773,50.0183427000884,z,0.07687730004545301,None,50.01845690002665,50.024665600038134,50.20585450006183,49.93446120002773,,,,,,,,PM_en,001,2025-03-07_11h30.13.102,MainFlow,2024.2.4,144.1865426979268,2025-03-07 11h30.30.945596 +0700,
2,2,2,4,letter/lettkh055.png,letter/letten071.png,34,34,0,x,0.461908399942331,None,0,34,34,34,50.21736620005686,,,,,,,50.21736620005686,51.20601830002852,51.21253290004097,51.21253290004097,51.678386000101455,x,0.461908399942331,None,51.67847550008446,51.68438230000902,51.86564710002858,51.21253290004097,,,,,,,,PM_en,001,2025-03-07_11h30.13.102,MainFlow,2024.2.4,144.1865426979268,2025-03-07 11h30.30.945596 +0700,
2,1,1,5,letter/letten121.png,letter/lettth101.png,35,35,0,z,0.20124600001145154,None,0,35,35,35,51.87532840005588,,,,,,,51.87532840005588,52.85853299999144,52.871928700013086,52.871928700013086,53.07433650002349,z,0.20124600001145154,None,53.07441710005514,53.079847300075926,53.261885500047356,52.86506400001235,,,,,,,,PM_en,001,2025-03-07_11h30.13.102,MainFlow,2024.2.4,144.1865426979268,2025-03-07 11h30.30.945596 +0700,
2,2,2,3,letter/lettkh091.png,letter/letten071.png,36,36,0,x,0.26456869998946786,None,0,36,36,36,53.273656200035475,,,,,,,53.273656200035475,54.26125940005295,54.267657899996266,54.267657899996266,54.53896969999187,x,0.26456869998946786,None,54.53904950001743,54.54521830007434,54.72669430007227,54.267657899996266,,,,,,,,PM_en,001,2025-03-07_11h30.13.102,MainFlow,2024.2.4,144.1865426979268,2025-03-07 11h30.30.945596 +0700,
2,2,1,6,letter/letten061.png,letter/lettkh155.png,37,37,0,z,0.018227400025352836,None,0,37,37,37,54.73626090004109,,,,,,,54.73626090004109,55.71971650002524,55.73307650000788,55.73307650000788,55.75433700007852,z,0.018227400025352836,None,55.75441060005687,55.7605007000966,55.94203300005756,55.72609310003463,,,,,,,,PM_en,001,2025-03-07_11h30.13.102,MainFlow,2024.2.4,144.1865426979268,2025-03-07 11h30.30.945596 +0700,
2,1,1,4,letter/letten101.png,letter/lettth011.png,38,38,0,z,0.07078790001105517,None,0,38,38,38,55.95339909999166,,,,,,,55.95339909999166,56.94186530006118,56.948526400025,56.948526400025,57.02544120000675,z,0.07078790001105517,None,57.02554980001878,57.03156390006188,57.21241570007987,56.948526400025,,,,,,,,PM_en,001,2025-03-07_11h30.13.102,MainFlow,2024.2.4,144.1865426979268,2025-03-07 11h30.30.945596 +0700,
2,3,2,4,letter/lettgr063.png,letter/letten062.png,39,39,0,x,0.18114739994052798,None,0,39,39,39,57.22071190003771,,,,,,,57.22071190003771,58.20544220006559,58.218849200056866,58.218849200056866,58.407001100014895,x,0.18114739994052798,None,58.407110000029206,58.413258200045675,58.59470220003277,58.211908400058746,,,,,,,,PM_en,001,2025-03-07_11h30.13.102,MainFlow,2024.2.4,144.1865426979268,2025-03-07 11h30.30.945596 +0700,
2,3,1,2,letter/letten061.png,letter/lettgr061.png,40,40,0,z,0.08634269994217902,None,0,40,40,40,58.6029493000824,,,,,,,58.6029493000824,59.58734700002242,59.60087150009349,59.60087150009349,59.691824400098994,z,0.08634269994217902,None,59.691903900005855,59.69796670007054,59.879037800012156,59.5937596000731,,,,,,,,PM_en,001,2025-03-07_11h30.13.102,MainFlow,2024.2.4,144.1865426979268,2025-03-07 11h30.30.945596 +0700,
2,2,2,7,letter/lettkh083.png,letter/letten112.png,41,41,0,x,0.19008959992788732,None,0,41,41,41,59.88875710009597,,,,,,,59.88875710009597,60.872551200096495,60.885381900006905,60.885381900006905,61.080784699996,x,0.19008959992788732,None,61.080864700023085,61.086667900090106,61.2682498000795,60.878480500075966,,,,,,,,PM_en,001,2025-03-07_11h30.13.102,MainFlow,2024.2.4,144.1865426979268,2025-03-07 11h30.30.945596 +0700,
2,1,2,2,letter/lettth142.png,letter/letten181.png,42,42,0,x,0.21437059994786978,None,0,42,42,42,61.277584800031036,,,,,,,61.277584800031036,62.261403499986045,62.274704699986614,62.274704699986614,62.49068080005236,x,0.21437059994786978,None,62.490768200019374,62.49625740002375,62.67782310000621,62.2677132000681,,,,,,,,PM_en,001,2025-03-07_11h30.13.102,MainFlow,2024.2.4,144.1865426979268,2025-03-07 11h30.30.945596 +0700,
2,2,1,7,letter/letten112.png,letter/lettkh083.png,43,43,0,z,0.07875310000963509,None,0,43,43,43,62.68827120005153,,,,,,,62.68827120005153,63.67781320004724,63.68423310003709,63.68423310003709,63.768403300084174,z,0.07875310000963509,None,63.76848080009222,63.7744010000024,63.95533810008783,63.68423310003709,,,,,,,,PM_en,001,2025-03-07_11h30.13.102,MainFlow,2024.2.4,144.1865426979268,2025-03-07 11h30.30.945596 +0700,
2,2,2,3,letter/lettkh091.png,letter/letten071.png,44,44,0,x,None,None,0,44,44,44,63.96513670007698,,,,,,,63.96513670007698,64.94865620008204,64.96225199999753,64.96225199999753,65.10224080004264,x,None,None,65.10233840008732,65.10732519999146,65.28885690006427,64.95507440005895,,,,,,,,PM_en,001,2025-03-07_11h30.13.102,MainFlow,2024.2.4,144.1865426979268,2025-03-07 11h30.30.945596 +0700,
2,2,2,5,letter/lettkh157.png,letter/letten051.png,45,45,0,x,0.9747331000398844,None,0,45,45,45,65.29878300009295,,,,,,,65.29878300009295,66.2818596001016,66.29529620008543,66.29529620008543,67.2750688000815,x,0.9747331000398844,None,67.27515310002491,67.28125030000228,67.46199250000063,66.28916410007514,,,,,,,,PM_en,001,2025-03-07_11h30.13.102,MainFlow,2024.2.4,144.1865426979268,2025-03-07 11h30.30.945596 +0700,
2,1,2,3,letter/lettth152.png,letter/letten142.png,46,46,0,x,0.15937690006103367,None,0,46,46,46,67.47066750004888,,,,,,,67.47066750004888,68.4550647001015,68.46860780008137,68.46860780008137,68.62920600001235,x,0.15937690006103367,None,68.62929820001591,68.6355571000604,68.81645909999497,68.46193950006273,,,,,,,,PM_en,001,2025-03-07_11h30.13.102,MainFlow,2024.2.4,144.1865426979268,2025-03-07 11h30.30.945596 +0700,
2,2,2,2,letter/lettkh013.png,letter/letten121.png,47,47,0,x,0.1387546999612823,None,0,47,47,47,68.82536300003994,,,,,,,68.82536300003994,69.80948050005827,69.82294780004304,69.82294780004304,69.96275840001181,x,0.1387546999612823,None,69.96284390008077,69.96855470002629,70.1498442000011,69.81597150000744,,,,,,,,PM_en,001,2025-03-07_11h30.13.102,MainFlow,2024.2.4,144.1865426979268,2025-03-07 11h30.30.945596 +0700,
2,1,2,6,letter/lettth132.png,letter/letten091.png,48,48,0,x,0.23008430004119873,None,0,48,48,48,70.16140550002456,,,,,,,70.16140550002456,71.14952000009362,71.15602590003982,71.15602590003982,71.39359530003276,x,0.23008430004119873,None,71.39367110002786,71.39925340004265,71.58012450009119,71.15602590003982,,,,,,,,PM_en,001,2025-03-07_11h30.13.102,MainFlow,2024.2.4,144.1865426979268,2025-03-07 11h30.30.945596 +0700,
2,1,2,1,letter/lettth022.png,letter/letten041.png,49,49,0,x,0.011900600045919418,None,0,49,49,49,71.59018180007115,,,,,,,71.59018180007115,72.5733461000491,72.58684060000814,72.58684060000814,72.60152960009873,x,0.011900600045919418,None,72.60160669998731,72.60748780006543,72.78871450002771,72.57971910003107,,,,,,,,PM_en,001,2025-03-07_11h30.13.102,MainFlow,2024.2.4,144.1865426979268,2025-03-07 11h30.30.945596 +0700,
2,1,1,3,letter/letten142.png,letter/lettth152.png,50,50,0,z,0.1176710999570787,None,0,50,50,50,72.80039480002597,,,,,,,72.80039480002597,73.78855380008463,73.79499850003049,73.79499850003049,73.91404490009882,z,0.1176710999570787,None,73.91412380000111,73.91995820007287,74.1009610000765,73.79499850003049,,,,,,,,PM_en,001,2025-03-07_11h30.13.102,MainFlow,2024.2.4,144.1865426979268,2025-03-07 11h30.30.945596 +0700,
2,1,2,8,letter/lettth022.png,letter/letten131.png,51,51,0,x,0.17856140004005283,None,0,51,51,51,74.1102904001018,,,,,,,74.1102904001018,75.093841599999,75.10737129999325,75.10737129999325,75.28899880009703,x,0.17856140004005283,None,75.28907609998714,75.29461370001081,75.47588120005094,75.10039170004893,,,,,,,,PM_en,001,2025-03-07_11h30.13.102,MainFlow,2024.2.4,144.1865426979268,2025-03-07 11h30.30.945596 +0700,
2,2,1,2,letter/letten121.png,letter/lettkh013.png,52,52,0,z,0.14272430003620684,None,0,52,52,52,75.48552109999582,,,,,,,75.48552109999582,76.46915760007687,76.48222420003731,76.48222420003731,76.62954340002034,z,0.14272430003620684,None,76.62965280003846,76.63480560004245,76.81620400003158,76.47518800001126,,,,,,,,PM_en,001,2025-03-07_11h30.13.102,MainFlow,2024.2.4,144.1865426979268,2025-03-07 11h30.30.945596 +0700,
2,3,1,2,letter/letten061.png,letter/lettgr061.png,53,53,0,z,0.12060749996453524,None,0,53,53,53,76.82547330006491,,,,,,,76.82547330006491,77.80935060000047,77.82298400008585,77.82298400008585,77.94890680001117,z,0.12060749996453524,None,77.94898079999257,77.95471200009342,78.13572610006668,77.81573570007458,,,,,,,,PM_en,001,2025-03-07_11h30.13.102,MainFlow,2024.2.4,144.1865426979268,2025-03-07 11h30.30.945596 +0700,
2,2,2,1,letter/lettkh159.png,letter/letten153.png,54,54,0,x,0.16066040005534887,None,0,54,54,54,78.14595280005597,,,,,,,78.14595280005597,79.13588730001356,79.14202080003452,79.14202080003452,79.30972580006346,x,0.16066040005534887,None,79.30979720002506,79.31526210007723,79.49664830008987,79.14202080003452,,,,,,,,PM_en,001,2025-03-07_11h30.13.102,MainFlow,2024.2.4,144.1865426979268,2025-03-07 11h30.30.945596 +0700,
2,1,1,4,letter/letten101.png,letter/lettth011.png,55,55,0,z,0.1933789000613615,None,0,55,55,55,79.50512700004037,,,,,,,79.50512700004037,80.48991810006555,80.50287430000026,80.50287430000026,80.69812080007978,z,0.1933789000613615,None,80.69819520006422,80.70422190008685,80.88555870007258,80.49634100007825,,,,,,,,PM_en,001,2025-03-07_11h30.13.102,MainFlow,2024.2.4,144.1865426979268,2025-03-07 11h30.30.945596 +0700,
2,3,1,8,letter/letten152.png,letter/lettgr152.png,56,56,0,z,0.10770459997002035,None,0,56,56,56,80.89569350006059,,,,,,,80.89569350006059,81.8787060000468,81.89213799999561,81.89213799999561,82.00380030006636,z,0.10770459997002035,None,82.00388430000748,82.00993490009569,82.19080390001182,81.88514310005121,,,,,,,,PM_en,001,2025-03-07_11h30.13.102,MainFlow,2024.2.4,144.1865426979268,2025-03-07 11h30.30.945596 +0700,
2,3,2,1,letter/lettgr021.png,letter/letten021.png,57,57,0,x,0.2706340999575332,None,0,57,57,57,82.2016406999901,,,,,,,82.2016406999901,83.19105560006574,83.19763370009605,83.19763370009605,83.46974950004369,x,0.2706340999575332,None,83.4698369000107,83.47482540004421,83.65606120007578,83.19763370009605,,,,,,,,PM_en,001,2025-03-07_11h30.13.102,MainFlow,2024.2.4,144.1865426979268,2025-03-07 11h30.30.945596 +0700,
2,1,2,7,letter/lettth132.png,letter/letten062.png,58,58,0,x,0.11932600010186434,None,0,58,58,58,83.66474510007538,,,,,,,83.66474510007538,84.65009360003751,84.66266500006896,84.66266500006896,84.78856600006111,x,0.11932600010186434,None,84.78864859999157,84.79466740007047,84.97546770004556,84.65572849998716,,,,,,,,PM_en,001,2025-03-07_11h30.13.102,MainFlow,2024.2.4,144.1865426979268,2025-03-07 11h30.30.945596 +0700,
2,3,2,2,letter/lettgr061.png,letter/letten061.png,59,59,0,x,0.14338219992350787,None,0,59,59,59,84.98387970007025,,,,,,,84.98387970007025,85.96925730002113,85.98239120002836,85.98239120002836,86.12857480009552,x,0.14338219992350787,None,86.12865349999629,86.13484620000236,86.31581749999896,85.97554990008939,,,,,,,,PM_en,001,2025-03-07_11h30.13.102,MainFlow,2024.2.4,144.1865426979268,2025-03-07 11h30.30.945596 +0700,
2,2,2,4,letter/lettkh055.png,letter/letten071.png,60,60,0,x,0.10135509993415326,None,0,60,60,60,86.32595760002732,,,,,,,86.32595760002732,87.30922590009868,87.32258100004401,87.32258100004401,87.42762810003478,x,0.10135509993415326,None,87.42771710001398,87.4336054000305,87.61458749999292,87.3155584000051,,,,,,,,PM_en,001,2025-03-07_11h30.13.102,MainFlow,2024.2.4,144.1865426979268,2025-03-07 11h30.30.945596 +0700,
2,1,2,5,letter/lettth101.png,letter/letten121.png,61,61,0,x,0.016692899982444942,None,0,61,61,61,87.62591549998615,,,,,,,87.62591549998615,88.6147079000948,88.6211282000877,88.6211282000877,88.64302870002575,x,0.016692899982444942,None,88.6431322999997,88.64839159999974,88.82991610001773,88.6211282000877,,,,,,,,PM_en,001,2025-03-07_11h30.13.102,MainFlow,2024.2.4,144.1865426979268,2025-03-07 11h30.30.945596 +0700,
2,3,1,8,letter/letten152.png,letter/lettgr152.png,62,62,0,z,0.10551649995613843,None,0,62,62,62,88.8389931001002,,,,,,,88.8389931001002,89.82299510005396,89.83645130007062,89.83645130007062,89.94795260007959,z,0.10551649995613843,None,89.94803830003366,89.9539478000952,90.1351853000233,89.82949270005338,,,,,,,,PM_en,001,2025-03-07_11h30.13.102,MainFlow,2024.2.4,144.1865426979268,2025-03-07 11h30.30.945596 +0700,
2,1,2,5,letter/lettth101.png,letter/letten121.png,63,63,0,x,0.07418780005536973,None,0,63,63,63,90.14378620008938,,,,,,,90.14378620008938,91.12860480009113,91.14197800005786,91.14197800005786,91.21878420002759,x,0.07418780005536973,None,91.2188910000259,91.22517450002488,91.40624879999086,91.13494250003714,,,,,,,,PM_en,001,2025-03-07_11h30.13.102,MainFlow,2024.2.4,144.1865426979268,2025-03-07 11h30.30.945596 +0700,
2,3,2,8,letter/lettgr152.png,letter/letten152.png,64,64,0,x,0.08166020002681762,None,0,64,64,64,91.41475270001683,,,,,,,91.41475270001683,92.39893880009186,92.41245260008145,92.41245260008145,92.49670490005519,x,0.08166020002681762,None,92.49679840006866,92.50273700000253,92.68381439999212,92.40546260005794,,,,,,,,PM_en,001,2025-03-07_11h30.13.102,MainFlow,2024.2.4,144.1865426979268,2025-03-07 11h30.30.945596 +0700,
2,2,1,2,letter/letten121.png,letter/lettkh013.png,65,65,0,z,0.13760600006207824,None,0,65,65,65,92.69200889999047,,,,,,,92.69200889999047,93.67689220001921,93.6903724001022,93.6903724001022,93.83002860005945,z,0.13760600006207824,None,93.83012100006454,93.83630500000436,94.01728460006416,93.68344390008133,,,,,,,,PM_en,001,2025-03-07_11h30.13.102,MainFlow,2024.2.4,144.1865426979268,2025-03-07 11h30.30.945596 +0700,
2,3,1,5,letter/letten011.png,letter/lettgr012.png,66,66,0,z,0.023467999999411404,None,0,66,66,66,94.02631950005889,,,,,,,94.02631950005889,95.01010010007303,95.02356720005628,95.02356720005628,95.0523308000993,z,0.023467999999411404,None,95.0524322000565,95.05784150003456,95.23980079998728,95.01705650007352,,,,,,,,PM_en,001,2025-03-07_11h30.13.102,MainFlow,2024.2.4,144.1865426979268,2025-03-07 11h30.30.945596 +0700,
2,2,1,3,letter/letten071.png,letter/lettkh091.png,67,67,0,z,0.09976100001949817,None,0,67,67,67,95.24945180001669,,,,,,,95.24945180001669,96.23223190009594,96.24601310002618,96.24601310002618,96.35056719998829,z,0.09976100001949817,None,96.35063480003737,96.3572664000094,96.53781230002642,96.2388792000711,,,,,,,,PM_en,001,2025-03-07_11h30.13.102,MainFlow,2024.2.4,144.1865426979268,2025-03-07 11h30.30.945596 +0700,
2,1,1,8,letter/letten131.png,letter/lettth022.png,68,68,0,z,0.4396333999466151,None,0,68,68,68,96.5480944000883,,,,,,,96.5480944000883,97.5312957999995,97.54432550002821,97.54432550002821,97.98936260002665,z,0.4396333999466151,None,97.98943300009705,97.99546550004743,98.17664690001402,97.53739980002865,,,,,,,,PM_en,001,2025-03-07_11h30.13.102,MainFlow,2024.2.4,144.1865426979268,2025-03-07 11h30.30.945596 +0700,
2,3,2,4,letter/lettgr063.png,letter/letten062.png,69,69,0,x,0.16393010003957897,None,0,69,69,69,98.18466860009357,,,,,,,98.18466860009357,99.16987320000771,99.18334530002903,99.18334530002903,99.35073130007368,x,0.16393010003957897,None,99.35080830007792,99.35681450006086,99.53779920004308,99.17636650009081,,,,,,,,PM_en,001,2025-03-07_11h30.13.102,MainFlow,2024.2.4,144.1865426979268,2025-03-07 11h30.30.945596 +0700,
2,1,1,6,letter/letten091.png,letter/lettth132.png,70,70,0,z,0.04605369991622865,None,0,70,70,70,99.54779420001432,,,,,,,99.54779420001432,100.53105009999126,100.54466210003011,100.54466210003011,100.59392810007557,z,0.04605369991622865,None,100.59401740005706,100.59953240002505,100.78087820007931,100.53734830010217,,,,,,,,PM_en,001,2025-03-07_11h30.13.102,MainFlow,2024.2.4,144.1865426979268,2025-03-07 11h30.30.945596 +0700,
2,3,2,3,letter/lettgr063.png,letter/letten061.png,71,71,0,x,0.19271539989858866,None,0,71,71,71,100.79072050005198,,,,,,,100.79072050005198,101.77398330008145,101.78735690005124,101.78735690005124,101.98270620009862,x,0.19271539989858866,None,101.98278740001842,101.98870129999705,102.16964129998814,101.7807538000634,,,,,,,,PM_en,001,2025-03-07_11h30.13.102,MainFlow,2024.2.4,144.1865426979268,2025-03-07 11h30.30.945596 +0700,
2,3,2,6,letter/lettgr066.png,letter/letten061.png,72,72,0,x,0.16692790004890412,None,0,72,72,72,102.1789310000604,,,,,,,102.1789310000604,103.16289320006035,103.17641380010173,103.17641380010173,103.35095490003005,x,0.16692790004890412,None,103.35103250003885,103.35678820009343,103.53744740004186,103.16933760000393,,,,,,,,PM_en,001,2025-03-07_11h30.13.102,MainFlow,2024.2.4,144.1865426979268,2025-03-07 11h30.30.945596 +0700,
2,3,2,7,letter/lettgr065.png,letter/letten062.png,73,73,0,x,0.06279350002296269,None,0,73,73,73,103.54850850009825,,,,,,,103.54850850009825,104.5380989999976,104.54436500009615,104.54436500009615,104.6082493000431,x,0.06279350002296269,None,104.60832410003059,104.61328789999243,104.79468689998612,104.54436500009615,,,,,,,,PM_en,001,2025-03-07_11h30.13.102,MainFlow,2024.2.4,144.1865426979268,2025-03-07 11h30.30.945596 +0700,
2,2,2,2,letter/lettkh013.png,letter/letten121.png,74,74,0,x,0.004917300073429942,None,0,74,74,74,104.80402859998867,,,,,,,104.80402859998867,105.78791360009927,105.80114250001498,105.80114250001498,105.80888830008917,x,0.004917300073429942,None,105.80897290003486,105.81500160007272,105.99595460004639,105.79414720006753,,,,,,,,PM_en,001,2025-03-07_11h30.13.102,MainFlow,2024.2.4,144.1865426979268,2025-03-07 11h30.30.945596 +0700,
2,3,2,7,letter/lettgr065.png,letter/letten062.png,75,75,0,x,0.11801509989891201,None,0,75,75,75,106.00461770000402,,,,,,,106.00461770000402,106.98927420005202,107.00238399999216,107.00238399999216,107.12180120008998,x,0.11801509989891201,None,107.1219186000526,107.12713730009273,107.30849339999259,106.99540170002729,,,,,,,,PM_en,001,2025-03-07_11h30.13.102,MainFlow,2024.2.4,144.1865426979268,2025-03-07 11h30.30.945596 +0700,
2,2,2,7,letter/lettkh083.png,letter/letten112.png,76,76,0,x,0.18868769996333867,None,0,76,76,76,107.31661820004229,,,,,,,107.31661820004229,108.30170350009575,108.31498290004674,108.31498290004674,108.51033180009108,x,0.18868769996333867,None,108.51040830009151,108.51637060008943,108.69774239999242,108.30811000009999,,,,,,,,PM_en,001,2025-03-07_11h30.13.102,MainFlow,2024.2.4,144.1865426979268,2025-03-07 11h30.30.945596 +0700,
2,3,2,8,letter/lettgr152.png,letter/letten152.png,77,77,0,x,0.44493670004885644,None,0,77,77,77,108.70757110009436,,,,,,,108.70757110009436,109.6975394000765,109.70451840001624,109.70451840001624,110.15617360000033,x,0.44493670004885644,None,110.15625210001599,110.16218770004343,110.34318670001812,109.70451840001624,,,,,,,,PM_en,001,2025-03-07_11h30.13.102,MainFlow,2024.2.4,144.1865426979268,2025-03-07 11h30.30.945596 +0700,
2,1,2,4,letter/lettth011.png,letter/letten101.png,78,78,0,x,0.21641999995335937,None,0,78,78,78,110.35423689999152,,,,,,,110.35423689999152,111.34311290003825,111.3495949000353,111.3495949000353,111.57308220001869,x,0.21641999995335937,None,111.57320109999273,111.57916050008498,111.75989510002546,111.3495949000353,,,,,,,,PM_en,001,2025-03-07_11h30.13.102,MainFlow,2024.2.4,144.1865426979268,2025-03-07 11h30.30.945596 +0700,
2,3,2,1,letter/lettgr021.png,letter/letten021.png,79,79,0,x,0.13310840004123747,None,0,79,79,79,111.76964390010107,,,,,,,111.76964390010107,112.75320080004167,112.76652030006517,112.76652030006517,112.90630220004823,x,0.13310840004123747,None,112.90638280007988,112.91162650007755,113.0931177000748,112.75930090004113,,,,,,,,PM_en,001,2025-03-07_11h30.13.102,MainFlow,2024.2.4,144.1865426979268,2025-03-07 11h30.30.945596 +0700,
2,3,2,6,letter/lettgr066.png,letter/letten061.png,80,80,0,x,0.13927980000153184,None,0,80,80,80,113.10289620002732,,,,,,,113.10289620002732,114.08626820007339,114.09951690002345,114.09951690002345,114.24611680000089,x,0.13927980000153184,None,114.24622780003119,114.25231190002523,114.43317650002427,114.09269540000241,,,,,,,,PM_en,001,2025-03-07_11h30.13.102,MainFlow,2024.2.4,144.1865426979268,2025-03-07 11h30.30.945596 +0700,
2,1,2,7,letter/lettth132.png,letter/letten062.png,81,81,0,x,0.35206590010784566,None,0,81,81,81,114.44177240005229,,,,,,,114.44177240005229,115.42628270003479,115.43960560008418,115.43960560008418,115.7944950000383,x,0.35206590010784566,None,115.79456310009118,115.80102260003332,115.982100800029,115.43264150002506,,,,,,,,PM_en,001,2025-03-07_11h30.13.102,MainFlow,2024.2.4,144.1865426979268,2025-03-07 11h30.30.945596 +0700,
2,2,1,4,letter/letten071.png,letter/lettkh055.png,82,82,0,z,0.37602179998066276,None,0,82,82,82,115.99113460001536,,,,,,,115.99113460001536,116.97509490000084,116.98852510005236,116.98852510005236,117.37146540009417,z,0.37602179998066276,None,117.37156150001101,117.37721609999426,117.55802080000285,116.98153089999687,,,,,,,,PM_en,001,2025-03-07_11h30.13.102,MainFlow,2024.2.4,144.1865426979268,2025-03-07 11h30.30.945596 +0700,
2,1,2,4,letter/lettth011.png,letter/letten101.png,83,83,0,x,0.6783339000539854,None,0,83,83,83,117.56620770005975,,,,,,,117.56620770005975,118.5511845999863,118.56459710001945,118.56459710001945,119.24562589998823,x,0.6783339000539854,None,119.24568650010042,119.25209030008409,119.43336360005196,118.55787960009184,,,,,,,,PM_en,001,2025-03-07_11h30.13.102,MainFlow,2024.2.4,144.1865426979268,2025-03-07 11h30.30.945596 +0700,
2,1,1,7,letter/letten062.png,letter/lettth132.png,84,84,0,z,0.18750560004264116,None,0,84,84,84,119.44190120010171,,,,,,,119.44190120010171,120.42663290002383,120.43972660007421,120.43972660007421,120.63496470008977,z,0.18750560004264116,None,120.63503950007726,120.64108560001478,120.82217950001359,120.43273300002329,,,,,,,,PM_en,001,2025-03-07_11h30.13.102,MainFlow,2024.2.4,144.1865426979268,2025-03-07 11h30.30.945596 +0700,
2,1,1,1,letter/letten041.png,letter/lettth022.png,85,85,0,z,0.10135160002391785,None,0,85,85,85,120.8317441000836,,,,,,,120.8317441000836,121.81521180004347,121.82864990003873,121.82864990003873,121.93378820002545,z,0.10135160002391785,None,121.93388890009373,121.93975580006372,122.12059480010066,121.8216760000214,,,,,,,,PM_en,001,2025-03-07_11h30.13.102,MainFlow,2024.2.4,144.1865426979268,2025-03-07 11h30.30.945596 +0700,
2,1,1,7,letter/letten062.png,letter/lettth132.png,86,86,0,z,0.2713899000082165,None,0,86,86,86,122.12995100009721,,,,,,,122.12995100009721,123.11376340000425,123.12718330009375,123.12718330009375,123.40581030002795,z,0.2713899000082165,None,123.40588720003143,123.41187790001277,123.59272000007331,123.12019330007024,,,,,,,,PM_en,001,2025-03-07_11h30.13.102,MainFlow,2024.2.4,144.1865426979268,2025-03-07 11h30.30.945596 +0700,
2,3,1,6,letter/letten061.png,letter/lettgr066.png,87,87,0,z,0.08757989993318915,None,0,87,87,87,123.60232000006363,,,,,,,123.60232000006363,124.58589340001345,124.59977570001502,124.59977570001502,124.69029340008274,z,0.08757989993318915,None,124.69037080009002,124.69638050009962,124.87813470000401,124.5923555000918,,,,,,,,PM_en,001,2025-03-07_11h30.13.102,MainFlow,2024.2.4,144.1865426979268,2025-03-07 11h30.30.945596 +0700,
2,1,1,3,letter/letten142.png,letter/lettth152.png,88,88,0,z,0.1682499999878928,None,0,88,88,88,124.88757370004896,,,,,,,124.88757370004896,125.87105280009564,125.88381480006501,125.88381480006501,126.0584212000249,z,0.1682499999878928,None,126.05850030004513,126.06461780006066,126.24574980000034,125.87690690008458,,,,,,,,PM_en,001,2025-03-07_11h30.13.102,MainFlow,2024.2.4,144.1865426979268,2025-03-07 11h30.30.945596 +0700,
2,3,2,5,letter/lettgr012.png,letter/letten011.png,89,89,0,x,0.1978894000640139,None,0,89,89,89,126.25476490007713,,,,,,,126.25476490007713,127.23884080001153,127.25217700004578,127.25217700004578,127.45515480008908,x,0.1978894000640139,None,127.45523250009865,127.45998630009126,127.64165590004995,127.24533639999572,,,,,,,,PM_en,001,2025-03-07_11h30.13.102,MainFlow,2024.2.4,144.1865426979268,2025-03-07 11h30.30.945596 +0700,
2,2,2,8,letter/lettkh035.png,letter/letten051.png,90,90,0,x,0.12204669998027384,None,0,90,90,90,127.65126660000533,,,,,,,127.65126660000533,128.63438940001652,128.64780490007252,128.64780490007252,128.7738295000745,x,0.12204669998027384,None,128.77390630007721,128.7797993000131,128.96101430000272,128.64082209998742,,,,,,,,PM_en,001,2025-03-07_11h30.13.102,MainFlow,2024.2.4,144.1865426979268,2025-03-07 11h30.30.945596 +0700,
2,1,1,8,letter/letten131.png,letter/lettth022.png,91,91,0,z,0.03591570002026856,None,0,91,91,91,128.96996430004947,,,,,,,128.96996430004947,129.95383900008164,129.9673490000423,129.9673490000423,130.0095628000563,z,0.03591570002026856,None,130.00963980006054,130.01575390005019,130.1971310999943,129.96059170004446,,,,,,,,PM_en,001,2025-03-07_11h30.13.102,MainFlow,2024.2.4,144.1865426979268,2025-03-07 11h30.30.945596 +0700,
2,1,2,1,letter/lettth022.png,letter/letten041.png,92,92,0,x,0.15830909996293485,None,0,92,92,92,130.20650950004347,,,,,,,130.20650950004347,131.19018949999008,131.20345140004065,131.20345140004065,131.36401410005055,x,0.15830909996293485,None,131.36411090008914,131.36999570007902,131.55144290009048,131.19626650004648,,,,,,,,PM_en,001,2025-03-07_11h30.13.102,MainFlow,2024.2.4,144.1865426979268,2025-03-07 11h30.30.945596 +0700,
2,3,1,7,letter/letten062.png,letter/lettgr065.png,93,93,0,z,0.10217239998746663,None,0,93,93,93,131.55999540002085,,,,,,,131.55999540002085,132.5442730000941,132.55778040003497,132.55778040003497,132.66241740004625,z,0.10217239998746663,None,132.66251060005743,132.6684774000896,132.84931409999263,132.55044150003232,,,,,,,,PM_en,001,2025-03-07_11h30.13.102,MainFlow,2024.2.4,144.1865426979268,2025-03-07 11h30.30.945596 +0700,
2,2,1,3,letter/letten071.png,letter/lettkh091.png,94,94,0,z,None,None,0,94,94,94,132.85726800002158,,,,,,,132.85726800002158,133.84259540005587,133.85588670009747,133.85588670009747,134.0096096000634,z,None,None,134.00968350004405,134.01590450003278,134.1966873999918,133.84900839999318,,,,,,,,PM_en,001,2025-03-07_11h30.13.102,MainFlow,2024.2.4,144.1865426979268,2025-03-07 11h30.30.945596 +0700,
2,2,2,1,letter/lettkh159.png,letter/letten153.png,95,95,0,x,0.024804700049571693,None,0,95,95,95,134.2049917000113,,,,,,,134.2049917000113,135.18972990009934,135.20321230008267,135.20321230008267,135.2315376000479,x,0.024804700049571693,None,135.23163580009714,135.23764010006562,135.41894480003975,135.19643730006646,,,,,,,,PM_en,001,2025-03-07_11h30.13.102,MainFlow,2024.2.4,144.1865426979268,2025-03-07 11h30.30.945596 +0700,
,,,,,,,,,,,,,,,,,,,,,,,,,,,,,,,,,,,135.4190360000357,135.42549550009426,135.42549550009426,152.0369531000033,space,16.60568440007046,None,PM_en,001,2025-03-07_11h30.13.102,MainFlow,2024.2.4,144.1865426979268,2025-03-07 11h30.30.945596 +0700,
