lang,langpair,sequence,pairid,firstdir,seconddir,thisN,thisTrialN,thisRepN,key_resp.keys,key_resp.rt,key_resp.duration,trials.thisRepN,trials.thisTrialN,trials.thisN,trials.thisIndex,thisRow.t,notes,tutorial.started,tutorial.stopped,key_instruct.keys,key_instruct.rt,key_instruct.duration,image_first.started,letterselect.started,instruct.started,key_resp.started,letterselect.stopped,trials.key_resp.keys,trials.key_resp.rt,trials.key_resp.duration,blanknext.started,instruct_2.started,blanknext.stopped,image_first.stopped,ending.started,text_3.started,ending_key.started,ending.stopped,ending_key.keys,ending_key.rt,ending_key.duration,participant,session,date,expName,psychopyVersion,frameRate,expStart,
,,,,,,,,,,,,,,,,,,0.003001099999892176,2.7043139999987034,space,2.6765116000005946,None,,,,,,,,,,,,,,,,,,,,PT_en,001,2025-03-12_16h33.33.334,MainFlow,2024.2.4,130.0884080797367,2025-03-12 16h33.43.481640 +0700,
2,2,1,6,letter/letten061.png,letter/lettkh155.png,0,0,0,z,0.16401369999948656,None,0,0,0,0,2.734491799999887,,,,,,,2.734491799999887,3.7114791000003606,3.7155431999999564,3.7155431999999564,3.8811354999998002,z,0.16401369999948656,None,3.8833335999988776,3.8881923999997525,4.068280499999673,,,,,,,,,PT_en,001,2025-03-12_16h33.33.334,MainFlow,2024.2.4,130.0884080797367,2025-03-12 16h33.43.481640 +0700,
2,1,2,2,letter/lettth142.png,letter/letten181.png,1,1,0,x,0.21908869999970193,None,0,1,1,1,4.075617099999363,,,,,,,4.075617099999363,5.061190999998871,5.074942999999621,5.074942999999621,5.297837799998888,x,0.21908869999970193,None,5.297912899999574,5.304226199999903,5.48491759999888,5.067973499999425,,,,,,,,PT_en,001,2025-03-12_16h33.33.334,MainFlow,2024.2.4,130.0884080797367,2025-03-12 16h33.43.481640 +0700,
2,1,1,2,letter/letten181.png,letter/lettth142.png,2,2,0,z,0.2059800000006362,None,0,2,2,2,5.493885399999272,,,,,,,5.493885399999272,6.477938699999868,6.491579399998955,6.491579399998955,6.700658300000214,z,0.2059800000006362,None,6.70072429999891,6.70702429999983,6.887615699999515,6.484535599998708,,,,,,,,PT_en,001,2025-03-12_16h33.33.334,MainFlow,2024.2.4,130.0884080797367,2025-03-12 16h33.43.481640 +0700,
2,2,1,8,letter/letten051.png,letter/lettkh035.png,3,3,0,z,0.20829330000015034,None,0,3,3,3,6.8945523999991565,,,,,,,6.8945523999991565,7.880769999999757,7.894317500000398,7.894317500000398,8.103438399999504,z,0.20829330000015034,None,8.103500499999427,8.109627099998761,8.290380799999184,7.88739539999915,,,,,,,,PT_en,001,2025-03-12_16h33.33.334,MainFlow,2024.2.4,130.0884080797367,2025-03-12 16h33.43.481640 +0700,
2,3,2,2,letter/lettgr061.png,letter/letten061.png,4,4,0,x,0.17947040000035486,None,0,4,4,4,8.297311099999206,,,,,,,8.297311099999206,9.28341089999958,9.29702929999985,9.29702929999985,9.478102999999464,x,0.17947040000035486,None,9.47815989999981,9.484459600000264,9.665144599999621,9.290065699999104,,,,,,,,PT_en,001,2025-03-12_16h33.33.334,MainFlow,2024.2.4,130.0884080797367,2025-03-12 16h33.43.481640 +0700,
2,3,1,7,letter/letten062.png,letter/lettgr065.png,5,5,0,z,0.2391816999988805,None,0,5,5,5,9.672016299999086,,,,,,,9.672016299999086,10.658698399998684,10.671815300000162,10.671815300000162,10.915589199999886,z,0.2391816999988805,None,10.915649499998835,10.92201810000006,11.102684499999668,10.664840899999035,,,,,,,,PT_en,001,2025-03-12_16h33.33.334,MainFlow,2024.2.4,130.0884080797367,2025-03-12 16h33.43.481640 +0700,
2,2,1,7,letter/letten112.png,letter/lettkh083.png,6,6,0,z,0.20023140000012063,None,0,6,6,6,11.109877999999298,,,,,,,11.109877999999298,12.095755399999689,12.109415900000386,12.109415900000386,12.311318199999732,z,0.20023140000012063,None,12.311378299998978,12.317785899998853,12.498501099998975,12.102409400000397,,,,,,,,PT_en,001,2025-03-12_16h33.33.334,MainFlow,2024.2.4,130.0884080797367,2025-03-12 16h33.43.481640 +0700,
2,1,1,1,letter/letten041.png,letter/lettth022.png,7,7,0,z,0.11386970000057772,None,0,7,7,7,12.505213399999775,,,,,,,12.505213399999775,13.491579100000308,13.505134799999723,13.505134799999723,13.623892800000249,z,0.11386970000057772,None,13.62396549999903,13.630186499998672,13.810935499999687,13.498136099999101,,,,,,,,PT_en,001,2025-03-12_16h33.33.334,MainFlow,2024.2.4,130.0884080797367,2025-03-12 16h33.43.481640 +0700,
2,3,1,6,letter/letten061.png,letter/lettgr066.png,8,8,0,z,0.18631789999926696,None,0,8,8,8,13.817796799999996,,,,,,,13.817796799999996,14.804151199999978,14.817659099999219,14.817659099999219,15.005577599999015,z,0.18631789999926696,None,15.005634999999529,15.01199479999923,15.192679599998883,14.810682699999234,,,,,,,,PT_en,001,2025-03-12_16h33.33.334,MainFlow,2024.2.4,130.0884080797367,2025-03-12 16h33.43.481640 +0700,
2,2,2,6,letter/lettkh155.png,letter/letten061.png,9,9,0,x,0.18363460000000487,None,0,9,9,9,15.199870499998724,,,,,,,15.199870499998724,16.1862172000001,16.199350999999297,16.199350999999297,16.3878124999992,x,0.18363460000000487,None,16.387874199999715,16.394305599998916,16.575008399999206,16.192940400000225,,,,,,,,PT_en,001,2025-03-12_16h33.33.334,MainFlow,2024.2.4,130.0884080797367,2025-03-12 16h33.43.481640 +0700,
2,1,2,6,letter/lettth132.png,letter/letten091.png,10,10,0,x,0.14083449999998265,None,0,10,10,10,16.58201949999966,,,,,,,16.58201949999966,17.56803190000028,17.58168669999941,17.58168669999941,17.72771939999984,x,0.14083449999998265,None,17.727780600000187,17.734199700000318,17.914987299998756,17.574680399999124,,,,,,,,PT_en,001,2025-03-12_16h33.33.334,MainFlow,2024.2.4,130.0884080797367,2025-03-12 16h33.43.481640 +0700,
2,2,1,5,letter/letten051.png,letter/lettkh157.png,11,11,0,z,0.17693619999954535,None,0,11,11,11,17.92217359999995,,,,,,,17.92217359999995,18.90850639999917,18.921560499999032,18.921560499999032,19.1030482999995,z,0.17693619999954535,None,19.103110500000184,19.109493699999803,19.29019630000039,18.914520000000266,,,,,,,,PT_en,001,2025-03-12_16h33.33.334,MainFlow,2024.2.4,130.0884080797367,2025-03-12 16h33.43.481640 +0700,
2,3,1,3,letter/letten061.png,letter/lettgr063.png,12,12,0,z,0.1893034999993688,None,0,12,12,12,19.297183900000164,,,,,,,19.297183900000164,20.2831769000004,20.296852299999955,20.296852299999955,20.491758299998764,z,0.1893034999993688,None,20.49181899999894,20.49825719999899,20.678958700000294,20.28985130000001,,,,,,,,PT_en,001,2025-03-12_16h33.33.334,MainFlow,2024.2.4,130.0884080797367,2025-03-12 16h33.43.481640 +0700,
2,2,2,8,letter/lettkh035.png,letter/letten051.png,13,13,0,x,0.2349565000004077,None,0,13,13,13,20.68797579999955,,,,,,,20.68797579999955,21.671992199999295,21.685561399999642,21.685561399999642,21.922425499999008,x,0.2349565000004077,None,21.922484099999565,21.928869499999564,22.109536099998877,21.678623199999492,,,,,,,,PT_en,001,2025-03-12_16h33.33.334,MainFlow,2024.2.4,130.0884080797367,2025-03-12 16h33.43.481640 +0700,
2,1,2,3,letter/lettth152.png,letter/letten142.png,14,14,0,x,0.2586148000009416,None,0,14,14,14,22.116413899999316,,,,,,,22.116413899999316,23.102582699999402,23.116205099999206,23.116205099999206,23.380443000000014,x,0.2586148000009416,None,23.38050359999943,23.386870700000145,23.56762489999892,23.10922489999939,,,,,,,,PT_en,001,2025-03-12_16h33.33.334,MainFlow,2024.2.4,130.0884080797367,2025-03-12 16h33.43.481640 +0700,
2,2,2,6,letter/lettkh155.png,letter/letten061.png,15,15,0,x,0.2067332999995415,None,0,15,15,15,23.574621099998694,,,,,,,23.574621099998694,24.560727000000043,24.57427490000009,24.57427490000009,24.783199499999682,x,0.2067332999995415,None,24.783260500000324,24.789612399999896,24.970352899999853,24.567298899999514,,,,,,,,PT_en,001,2025-03-12_16h33.33.334,MainFlow,2024.2.4,130.0884080797367,2025-03-12 16h33.43.481640 +0700,
2,3,1,1,letter/letten021.png,letter/lettgr021.png,16,16,0,z,0.15792160000091826,None,0,16,16,16,24.97892899999897,,,,,,,24.97892899999897,25.9632330000004,25.976921499999662,25.976921499999662,26.137502100000347,z,0.15792160000091826,None,26.137561599998662,26.143957999998747,26.324648300000263,25.969897499999206,,,,,,,,PT_en,001,2025-03-12_16h33.33.334,MainFlow,2024.2.4,130.0884080797367,2025-03-12 16h33.43.481640 +0700,
2,3,1,3,letter/letten061.png,letter/lettgr063.png,17,17,0,z,0.18190750000030675,None,0,17,17,17,26.331594799999948,,,,,,,26.331594799999948,27.317704899998716,27.33133590000034,27.33133590000034,27.519195499999114,z,0.18190750000030675,None,27.519255399998656,27.525714499999594,27.70650089999981,27.324483399999735,,,,,,,,PT_en,001,2025-03-12_16h33.33.334,MainFlow,2024.2.4,130.0884080797367,2025-03-12 16h33.43.481640 +0700,
2,2,1,1,letter/letten153.png,letter/lettkh159.png,18,18,0,z,0.17037730000083684,None,0,18,18,18,27.713262699999177,,,,,,,27.713262699999177,28.699477599999227,28.713147399999798,28.713147399999798,28.887101000000257,z,0.17037730000083684,None,28.8871597999987,28.893581999998787,29.074153999999908,28.706141900000148,,,,,,,,PT_en,001,2025-03-12_16h33.33.334,MainFlow,2024.2.4,130.0884080797367,2025-03-12 16h33.43.481640 +0700,
2,1,1,6,letter/letten091.png,letter/lettth132.png,19,19,0,z,0.27082879999943543,None,0,19,19,19,29.08164939999915,,,,,,,29.08164939999915,30.067776399999275,30.08144859999993,30.08144859999993,30.352949299998727,z,0.27082879999943543,None,30.353005299999495,30.358985799999573,30.53975829999945,30.07472190000044,,,,,,,,PT_en,001,2025-03-12_16h33.33.334,MainFlow,2024.2.4,130.0884080797367,2025-03-12 16h33.43.481640 +0700,
2,3,2,5,letter/lettgr012.png,letter/letten011.png,20,20,0,x,0.2509952999989764,None,0,20,20,20,30.54789989999881,,,,,,,30.54789989999881,31.53273040000022,31.546406800000113,31.546406800000113,31.803660199999285,x,0.2509952999989764,None,31.803712999999334,31.810121399999844,31.991291000000274,31.539417899999535,,,,,,,,PT_en,001,2025-03-12_16h33.33.334,MainFlow,2024.2.4,130.0884080797367,2025-03-12 16h33.43.481640 +0700,
2,1,1,2,letter/letten181.png,letter/lettth142.png,21,21,0,z,0.24415419999968435,None,0,21,21,21,31.997889199999918,,,,,,,31.997889199999918,32.98440909999954,32.99740799999927,32.99740799999927,33.248282200000176,z,0.24415419999968435,None,33.24834170000031,33.25465489999988,33.43539349999992,32.99105739999868,,,,,,,,PT_en,001,2025-03-12_16h33.33.334,MainFlow,2024.2.4,130.0884080797367,2025-03-12 16h33.43.481640 +0700,
2,2,1,5,letter/letten051.png,letter/lettkh157.png,22,22,0,z,0.16857279999931052,None,0,22,22,22,33.44219829999929,,,,,,,33.44219829999929,34.4285018999999,34.4420726999997,34.4420726999997,34.61601559999872,z,0.16857279999931052,None,34.61606819999906,34.62246149999919,34.80376199999955,34.43507779999891,,,,,,,,PT_en,001,2025-03-12_16h33.33.334,MainFlow,2024.2.4,130.0884080797367,2025-03-12 16h33.43.481640 +0700,
2,3,1,4,letter/letten062.png,letter/lettgr063.png,23,23,0,z,0.13999299999886716,None,0,23,23,23,34.81075090000013,,,,,,,34.81075090000013,35.796790799999144,35.810395499998776,35.810395499998776,35.956595699999525,z,0.13999299999886716,None,35.9566722999989,35.96291719999863,36.14377280000008,35.80340609999985,,,,,,,,PT_en,001,2025-03-12_16h33.33.334,MainFlow,2024.2.4,130.0884080797367,2025-03-12 16h33.43.481640 +0700,
2,3,2,3,letter/lettgr063.png,letter/letten061.png,24,24,0,x,0.21933030000036524,None,0,24,24,24,36.15154970000003,,,,,,,36.15154970000003,37.13673989999916,37.15027589999954,37.15027589999954,37.37305269999888,x,0.21933030000036524,None,37.373111199998675,37.379560800000036,37.56023800000003,37.1432922999993,,,,,,,,PT_en,001,2025-03-12_16h33.33.334,MainFlow,2024.2.4,130.0884080797367,2025-03-12 16h33.43.481640 +0700,
2,2,2,5,letter/lettkh157.png,letter/letten051.png,25,25,0,x,0.15771249999852444,None,0,25,25,25,37.56806779999897,,,,,,,37.56806779999897,38.55324939999991,38.56692899999871,38.56692899999871,38.72748429999956,x,0.15771249999852444,None,38.7276211999997,38.733459400000356,38.91466589999982,38.55992289999995,,,,,,,,PT_en,001,2025-03-12_16h33.33.334,MainFlow,2024.2.4,130.0884080797367,2025-03-12 16h33.43.481640 +0700,
2,3,1,5,letter/letten011.png,letter/lettgr012.png,26,26,0,z,0.2081228999995801,None,0,26,26,26,38.92343769999934,,,,,,,38.92343769999934,39.90763869999864,39.921307599999636,39.921307599999636,40.130516699999134,z,0.2081228999995801,None,40.13057320000007,40.13663059999999,40.31744599999911,39.91431779999948,,,,,,,,PT_en,001,2025-03-12_16h33.33.334,MainFlow,2024.2.4,130.0884080797367,2025-03-12 16h33.43.481640 +0700,
2,3,1,1,letter/letten021.png,letter/lettgr021.png,27,27,0,z,0.2495643000002019,None,0,27,27,27,40.32447729999876,,,,,,,40.32447729999876,41.310338299999785,41.32396009999866,41.32396009999866,41.57481369999914,z,0.2495643000002019,None,41.574875899999824,41.580704899999546,41.761440199999925,41.31699329999901,,,,,,,,PT_en,001,2025-03-12_16h33.33.334,MainFlow,2024.2.4,130.0884080797367,2025-03-12 16h33.43.481640 +0700,
2,2,1,8,letter/letten051.png,letter/lettkh035.png,28,28,0,z,0.27977129999999306,None,0,28,28,28,41.768069800000376,,,,,,,41.768069800000376,42.75494040000012,42.768037199999526,42.768037199999526,43.05382490000011,z,0.27977129999999306,None,43.05387929999961,43.060217599999305,43.24093569999968,42.76108039999963,,,,,,,,PT_en,001,2025-03-12_16h33.33.334,MainFlow,2024.2.4,130.0884080797367,2025-03-12 16h33.43.481640 +0700,
2,3,1,4,letter/letten062.png,letter/lettgr063.png,29,29,0,z,0.13961439999911818,None,0,29,29,29,43.247877800000424,,,,,,,43.247877800000424,44.23397709999881,44.24757940000018,44.24757940000018,44.39381440000034,z,0.13961439999911818,None,44.39387580000039,44.40014390000033,44.58075139999892,44.240615400000024,,,,,,,,PT_en,001,2025-03-12_16h33.33.334,MainFlow,2024.2.4,130.0884080797367,2025-03-12 16h33.43.481640 +0700,
2,1,2,8,letter/lettth022.png,letter/letten131.png,30,30,0,x,0.20878079999965848,None,0,30,30,30,44.58751339999981,,,,,,,44.58751339999981,45.5743051999998,45.58747889999904,45.58747889999904,45.80331719999958,x,0.20878079999965848,None,45.803377099999125,45.80977499999972,45.99046569999882,45.58039519999875,,,,,,,,PT_en,001,2025-03-12_16h33.33.334,MainFlow,2024.2.4,130.0884080797367,2025-03-12 16h33.43.481640 +0700,
2,2,1,1,letter/letten153.png,letter/lettkh159.png,31,31,0,z,0.02848670000093989,None,0,31,31,31,45.99724359999891,,,,,,,45.99724359999891,46.98344290000023,46.99712229999932,46.99712229999932,47.032537400000365,z,0.02848670000093989,None,47.03259729999991,47.039021099999445,47.219714199998634,46.9901876999993,,,,,,,,PT_en,001,2025-03-12_16h33.33.334,MainFlow,2024.2.4,130.0884080797367,2025-03-12 16h33.43.481640 +0700,
2,2,1,4,letter/letten071.png,letter/lettkh055.png,32,32,0,z,0.16911179999988235,None,0,32,32,32,47.22733479999988,,,,,,,47.22733479999988,48.21276869999929,48.22639749999871,48.22639749999871,48.40044990000024,z,0.16911179999988235,None,48.4005116999997,48.40683849999914,48.58806910000021,48.21940220000033,,,,,,,,PT_en,001,2025-03-12_16h33.33.334,MainFlow,2024.2.4,130.0884080797367,2025-03-12 16h33.43.481640 +0700,
2,1,1,5,letter/letten121.png,letter/lettth101.png,33,33,0,z,0.19504720000077214,None,0,33,33,33,48.59518169999865,,,,,,,48.59518169999865,49.58112919999985,49.594740999998976,49.594740999998976,49.79661809999925,z,0.19504720000077214,None,49.796677199999976,49.8025306999989,49.98376499999904,49.58775330000026,,,,,,,,PT_en,001,2025-03-12_16h33.33.334,MainFlow,2024.2.4,130.0884080797367,2025-03-12 16h33.43.481640 +0700,
2,2,2,4,letter/lettkh055.png,letter/letten071.png,34,34,0,x,0.19845290000012028,None,0,34,34,34,49.99096129999998,,,,,,,49.99096129999998,50.9767654999996,50.990437099999326,50.990437099999326,51.19241089999923,x,0.19845290000012028,None,51.192470399999365,51.19875320000028,51.37948200000028,50.983454999999594,,,,,,,,PT_en,001,2025-03-12_16h33.33.334,MainFlow,2024.2.4,130.0884080797367,2025-03-12 16h33.43.481640 +0700,
2,1,1,5,letter/letten121.png,letter/lettth101.png,35,35,0,z,0.20234979999986535,None,0,35,35,35,51.38688849999926,,,,,,,51.38688849999926,52.37249659999907,52.386147499999424,52.386147499999424,52.59511679999923,z,0.20234979999986535,None,52.595170399999915,52.60157099999924,52.782200399999056,52.379170899999735,,,,,,,,PT_en,001,2025-03-12_16h33.33.334,MainFlow,2024.2.4,130.0884080797367,2025-03-12 16h33.43.481640 +0700,
2,2,2,3,letter/lettkh091.png,letter/letten071.png,36,36,0,x,0.204008700000486,None,0,36,36,36,52.78957889999947,,,,,,,52.78957889999947,53.77525179999975,53.7888853000004,53.7888853000004,53.99784009999894,x,0.204008700000486,None,53.99790169999869,54.00419349999902,54.18490129999918,53.7818546999988,,,,,,,,PT_en,001,2025-03-12_16h33.33.334,MainFlow,2024.2.4,130.0884080797367,2025-03-12 16h33.43.481640 +0700,
2,2,1,6,letter/letten061.png,letter/lettkh155.png,37,37,0,z,0.1853899999987334,None,0,37,37,37,54.1917670999992,,,,,,,54.1917670999992,55.17790969999987,55.19156629999998,55.19156629999998,55.37958769999932,z,0.1853899999987334,None,55.37965989999975,55.38599559999966,55.56668449999961,55.18457859999944,,,,,,,,PT_en,001,2025-03-12_16h33.33.334,MainFlow,2024.2.4,130.0884080797367,2025-03-12 16h33.43.481640 +0700,
2,1,1,4,letter/letten101.png,letter/lettth011.png,38,38,0,z,0.10914989999946556,None,0,38,38,38,55.57400469999993,,,,,,,55.57400469999993,56.559684599998945,56.57334189999892,56.57334189999892,56.68511690000014,z,0.10914989999946556,None,56.68517849999989,56.6915398000001,56.87216289999924,56.56636900000012,,,,,,,,PT_en,001,2025-03-12_16h33.33.334,MainFlow,2024.2.4,130.0884080797367,2025-03-12 16h33.43.481640 +0700,
2,3,2,4,letter/lettgr063.png,letter/letten062.png,39,39,0,x,0.18778840000049968,None,0,39,39,39,56.87897940000039,,,,,,,56.87897940000039,57.865399199999956,57.87891920000038,57.87891920000038,58.07370559999981,x,0.18778840000049968,None,58.07376629999999,58.08022379999966,58.26093519999995,57.87192909999976,,,,,,,,PT_en,001,2025-03-12_16h33.33.334,MainFlow,2024.2.4,130.0884080797367,2025-03-12 16h33.43.481640 +0700,
2,3,1,2,letter/letten061.png,letter/lettgr061.png,40,40,0,z,0.1985568999989482,None,0,40,40,40,58.26781750000009,,,,,,,58.26781750000009,59.25449089999893,59.26757240000006,59.26757240000006,59.46958029999951,z,0.1985568999989482,None,59.46963589999905,59.47596069999963,59.65714819999994,59.26070280000022,,,,,,,,PT_en,001,2025-03-12_16h33.33.334,MainFlow,2024.2.4,130.0884080797367,2025-03-12 16h33.43.481640 +0700,
2,2,2,7,letter/lettkh083.png,letter/letten112.png,41,41,0,x,0.2964150999996491,None,0,41,41,41,59.66441229999873,,,,,,,59.66441229999873,60.6502373000003,60.663819899999,60.663819899999,60.96302719999949,x,0.2964150999996491,None,60.963088999998945,60.96938079999927,61.15007879999939,60.65680579999935,,,,,,,,PT_en,001,2025-03-12_16h33.33.334,MainFlow,2024.2.4,130.0884080797367,2025-03-12 16h33.43.481640 +0700,
2,1,2,2,letter/lettth142.png,letter/letten181.png,42,42,0,x,0.29733090000081575,None,0,42,42,42,61.157096299999466,,,,,,,61.157096299999466,62.14309919999869,62.15678359999947,62.15678359999947,62.455822300000364,x,0.29733090000081575,None,62.45587720000003,62.46231649999936,62.64297669999905,62.149854100000084,,,,,,,,PT_en,001,2025-03-12_16h33.33.334,MainFlow,2024.2.4,130.0884080797367,2025-03-12 16h33.43.481640 +0700,
2,2,1,7,letter/letten112.png,letter/lettkh083.png,43,43,0,z,0.2837128000010125,None,0,43,43,43,62.6499391999987,,,,,,,62.6499391999987,63.636017799999536,63.64965159999883,63.64965159999883,63.93485589999909,z,0.2837128000010125,None,63.93491009999889,63.941302899998846,64.12201569999888,63.64267149999978,,,,,,,,PT_en,001,2025-03-12_16h33.33.334,MainFlow,2024.2.4,130.0884080797367,2025-03-12 16h33.43.481640 +0700,
2,2,2,3,letter/lettkh091.png,letter/letten071.png,44,44,0,x,0.2141018999991502,None,0,44,44,44,64.12895969999954,,,,,,,64.12895969999954,65.11502669999936,65.12861799999882,65.12861799999882,65.34452409999903,x,0.2141018999991502,None,65.34458549999908,65.35096109999904,65.53167149999899,65.12164800000028,,,,,,,,PT_en,001,2025-03-12_16h33.33.334,MainFlow,2024.2.4,130.0884080797367,2025-03-12 16h33.43.481640 +0700,
2,2,2,5,letter/lettkh157.png,letter/letten051.png,45,45,0,x,0.1995547999995324,None,0,45,45,45,65.53858629999922,,,,,,,65.53858629999922,66.5250047999998,66.5383540999992,66.5383540999992,66.74020360000031,x,0.1995547999995324,None,66.74026330000015,66.74670779999906,66.92753549999907,66.53137499999866,,,,,,,,PT_en,001,2025-03-12_16h33.33.334,MainFlow,2024.2.4,130.0884080797367,2025-03-12 16h33.43.481640 +0700,
2,1,2,3,letter/lettth152.png,letter/letten142.png,46,46,0,x,0.2880205000001297,None,0,46,46,46,66.93442659999891,,,,,,,66.93442659999891,67.92058449999968,67.93411419999939,67.93411419999939,68.22617549999995,x,0.2880205000001297,None,68.2262369,68.23268649999955,68.41331069999978,67.9271133000002,,,,,,,,PT_en,001,2025-03-12_16h33.33.334,MainFlow,2024.2.4,130.0884080797367,2025-03-12 16h33.43.481640 +0700,
2,2,2,2,letter/lettkh013.png,letter/letten121.png,47,47,0,x,0.25685210000119696,None,0,47,47,47,68.4207439999991,,,,,,,68.4207439999991,69.40714839999964,69.41998039999999,69.41998039999999,69.67781689999902,x,0.25685210000119696,None,69.6778777999989,69.68423719999919,69.86491120000028,69.41357659999994,,,,,,,,PT_en,001,2025-03-12_16h33.33.334,MainFlow,2024.2.4,130.0884080797367,2025-03-12 16h33.43.481640 +0700,
2,1,2,6,letter/lettth132.png,letter/letten091.png,48,48,0,x,0.29384510000090813,None,0,48,48,48,69.87213639999936,,,,,,,69.87213639999936,70.85790280000037,70.8715745999998,70.8715745999998,71.1707482999991,x,0.29384510000090813,None,71.17080960000021,71.17722909999975,71.35783959999935,70.86470159999953,,,,,,,,PT_en,001,2025-03-12_16h33.33.334,MainFlow,2024.2.4,130.0884080797367,2025-03-12 16h33.43.481640 +0700,
2,1,2,1,letter/lettth022.png,letter/letten041.png,49,49,0,x,0.1861471000011079,None,0,49,49,49,71.36462459999893,,,,,,,71.36462459999893,72.3508769,72.36455019999994,72.36455019999994,72.55255949999992,x,0.1861471000011079,None,72.55262140000013,72.55893579999974,72.73957630000041,72.35748579999927,,,,,,,,PT_en,001,2025-03-12_16h33.33.334,MainFlow,2024.2.4,130.0884080797367,2025-03-12 16h33.43.481640 +0700,
2,1,1,3,letter/letten142.png,letter/lettth152.png,50,50,0,z,0.17885490000116988,None,0,50,50,50,72.75000109999928,,,,,,,72.75000109999928,73.73315840000032,73.74625259999993,73.74625259999993,73.92779179999889,z,0.17885490000116988,None,73.92785229999936,73.93422800000008,74.11494029999994,73.73980739999934,,,,,,,,PT_en,001,2025-03-12_16h33.33.334,MainFlow,2024.2.4,130.0884080797367,2025-03-12 16h33.43.481640 +0700,
2,1,2,8,letter/lettth022.png,letter/letten131.png,51,51,0,x,0.2078427999986161,None,0,51,51,51,74.12181039999996,,,,,,,74.12181039999996,75.10795839999992,75.12157699999989,75.12157699999989,75.33056159999978,x,0.2078427999986161,None,75.33062499999869,75.33693099999982,75.51763519999986,75.11460069999885,,,,,,,,PT_en,001,2025-03-12_16h33.33.334,MainFlow,2024.2.4,130.0884080797367,2025-03-12 16h33.43.481640 +0700,
2,2,1,2,letter/letten121.png,letter/lettkh013.png,52,52,0,z,0.17399829999885696,None,0,52,52,52,75.52461389999917,,,,,,,75.52461389999917,76.51067390000026,76.52430920000006,76.52430920000006,76.70539859999917,z,0.17399829999885696,None,76.70546009999998,76.71172560000014,76.89248450000014,76.51741219999894,,,,,,,,PT_en,001,2025-03-12_16h33.33.334,MainFlow,2024.2.4,130.0884080797367,2025-03-12 16h33.43.481640 +0700,
2,3,1,2,letter/letten061.png,letter/lettgr061.png,53,53,0,z,0.16973589999906835,None,0,53,53,53,76.89939959999901,,,,,,,76.89939959999901,77.88562339999953,77.8991907999989,77.8991907999989,78.07310229999894,z,0.16973589999906835,None,78.07315709999966,78.0795010999991,78.26076099999955,77.89220829999977,,,,,,,,PT_en,001,2025-03-12_16h33.33.334,MainFlow,2024.2.4,130.0884080797367,2025-03-12 16h33.43.481640 +0700,
2,2,2,1,letter/lettkh159.png,letter/letten153.png,54,54,0,x,0.2000049999987823,None,0,54,54,54,78.27260620000015,,,,,,,78.27260620000015,79.26075010000022,79.26741199999924,79.26741199999924,79.46950069999912,x,0.2000049999987823,None,79.46955799999887,79.47572860000037,79.65652260000024,79.26741199999924,,,,,,,,PT_en,001,2025-03-12_16h33.33.334,MainFlow,2024.2.4,130.0884080797367,2025-03-12 16h33.43.481640 +0700,
2,1,1,4,letter/letten101.png,letter/lettth011.png,55,55,0,z,0.19413729999905627,None,0,55,55,55,79.66335590000017,,,,,,,79.66335590000017,80.64955550000013,80.66311479999968,80.66311479999968,80.8581178000004,z,0.19413729999905627,None,80.85817299999871,80.86450739999964,81.04516639999929,80.65613699999994,,,,,,,,PT_en,001,2025-03-12_16h33.33.334,MainFlow,2024.2.4,130.0884080797367,2025-03-12 16h33.43.481640 +0700,
2,3,1,8,letter/letten152.png,letter/lettgr152.png,56,56,0,z,0.1291153000001941,None,0,56,56,56,81.05534149999949,,,,,,,81.05534149999949,82.03828570000042,82.0518247,82.0518247,82.18448499999977,z,0.1291153000001941,None,82.18453799999952,82.19096439999885,82.37163890000011,82.04487739999968,,,,,,,,PT_en,001,2025-03-12_16h33.33.334,MainFlow,2024.2.4,130.0884080797367,2025-03-12 16h33.43.481640 +0700,
2,3,2,1,letter/lettgr021.png,letter/letten021.png,57,57,0,x,0.2969360000006418,None,0,57,57,57,82.38265769999998,,,,,,,82.38265769999998,83.37179949999882,83.37842730000011,83.37842730000011,83.67752399999881,x,0.2969360000006418,None,83.6775861999995,83.6840358999998,83.86463619999995,83.37842730000011,,,,,,,,PT_en,001,2025-03-12_16h33.33.334,MainFlow,2024.2.4,130.0884080797367,2025-03-12 16h33.43.481640 +0700,
2,1,2,7,letter/lettth132.png,letter/letten062.png,58,58,0,x,0.1589285000009113,None,0,58,58,58,83.8715231999995,,,,,,,83.8715231999995,84.85773530000006,84.87134329999935,84.87134329999935,85.03190890000042,x,0.1589285000009113,None,85.03197059999911,85.03778330000023,85.21912349999911,84.8643462,,,,,,,,PT_en,001,2025-03-12_16h33.33.334,MainFlow,2024.2.4,130.0884080797367,2025-03-12 16h33.43.481640 +0700,
2,3,2,2,letter/lettgr061.png,letter/letten061.png,59,59,0,x,0.12445819999993546,None,0,59,59,59,85.22612579999986,,,,,,,85.22612579999986,86.21204829999988,86.22567789999994,86.22567789999994,86.35098209999887,x,0.12445819999993546,None,86.35104379999939,86.35732110000026,86.5387140999992,86.21869119999974,,,,,,,,PT_en,001,2025-03-12_16h33.33.334,MainFlow,2024.2.4,130.0884080797367,2025-03-12 16h33.43.481640 +0700,
2,2,2,4,letter/lettkh055.png,letter/letten071.png,60,60,0,x,0.30414639999980864,None,0,60,60,60,86.54568979999931,,,,,,,86.54568979999931,87.53175589999955,87.54516440000043,87.54516440000043,87.85125589999916,x,0.30414639999980864,None,87.85131349999938,87.85720260000016,88.03839630000039,87.53830679999919,,,,,,,,PT_en,001,2025-03-12_16h33.33.334,MainFlow,2024.2.4,130.0884080797367,2025-03-12 16h33.43.481640 +0700,
2,1,2,5,letter/lettth101.png,letter/letten121.png,61,61,0,x,0.9386244999986957,None,0,61,61,61,88.0457996999994,,,,,,,88.0457996999994,89.03140279999934,89.04505359999894,89.04505359999894,89.98965549999957,x,0.9386244999986957,None,89.98971659999916,89.99616629999946,90.17682830000012,89.03808869999921,,,,,,,,PT_en,001,2025-03-12_16h33.33.334,MainFlow,2024.2.4,130.0884080797367,2025-03-12 16h33.43.481640 +0700,
2,3,1,8,letter/letten152.png,letter/lettgr152.png,62,62,0,z,0.27932289999989734,None,0,62,62,62,90.18354589999944,,,,,,,90.18354589999944,91.16992260000006,91.18352309999864,91.18352309999864,91.46920979999959,z,0.27932289999989734,None,91.46927219999998,91.47566339999867,91.65632779999942,91.17727939999895,,,,,,,,PT_en,001,2025-03-12_16h33.33.334,MainFlow,2024.2.4,130.0884080797367,2025-03-12 16h33.43.481640 +0700,
2,1,2,5,letter/lettth101.png,letter/letten121.png,63,63,0,x,0.3737364000007801,None,0,63,63,63,91.66347080000014,,,,,,,91.66347080000014,92.64937519999876,92.66300769999907,92.66300769999907,93.03833949999898,x,0.3737364000007801,None,93.03839189999962,93.04483099999925,93.22553069999958,92.65602509999917,,,,,,,,PT_en,001,2025-03-12_16h33.33.334,MainFlow,2024.2.4,130.0884080797367,2025-03-12 16h33.43.481640 +0700,
2,3,2,8,letter/lettgr152.png,letter/letten152.png,64,64,0,x,0.2293790000003355,None,0,64,64,64,93.23558989999947,,,,,,,93.23558989999947,94.21863610000037,94.23224549999941,94.23224549999941,94.46239129999958,x,0.2293790000003355,None,94.4624531999998,94.4683385999997,94.64921460000005,94.22519699999975,,,,,,,,PT_en,001,2025-03-12_16h33.33.334,MainFlow,2024.2.4,130.0884080797367,2025-03-12 16h33.43.481640 +0700,
2,2,1,2,letter/letten121.png,letter/lettkh013.png,65,65,0,z,0.32967099999950733,None,0,65,65,65,94.65617810000003,,,,,,,94.65617810000003,95.6422451999988,95.6558299999997,95.6558299999997,95.98990129999947,z,0.32967099999950733,None,95.98995429999923,95.99631959999897,96.17698579999887,95.64889109999967,,,,,,,,PT_en,001,2025-03-12_16h33.33.334,MainFlow,2024.2.4,130.0884080797367,2025-03-12 16h33.43.481640 +0700,
2,3,1,5,letter/letten011.png,letter/lettgr012.png,66,66,0,z,0.362049899998965,None,0,66,66,66,96.18392529999983,,,,,,,96.18392529999983,97.16997989999982,97.18366369999967,97.18366369999967,97.55202780000036,z,0.362049899998965,None,97.55208859999948,97.55853849999949,97.73918570000023,97.17667849999998,,,,,,,,PT_en,001,2025-03-12_16h33.33.334,MainFlow,2024.2.4,130.0884080797367,2025-03-12 16h33.43.481640 +0700,
2,2,1,3,letter/letten071.png,letter/lettkh091.png,67,67,0,z,0.3251557000003231,None,0,67,67,67,97.74595249999948,,,,,,,97.74595249999948,98.73223409999991,98.74591299999884,98.74591299999884,99.07296409999981,z,0.3251557000003231,None,99.07302340000024,99.0794248000002,99.26008050000019,98.7389192999999,,,,,,,,PT_en,001,2025-03-12_16h33.33.334,MainFlow,2024.2.4,130.0884080797367,2025-03-12 16h33.43.481640 +0700,
2,1,1,8,letter/letten131.png,letter/lettth022.png,68,68,0,z,0.25742189999982656,None,0,68,68,68,99.26722129999871,,,,,,,99.26722129999871,100.25308199999927,100.26673449999907,100.26673449999907,100.53137749999951,z,0.25742189999982656,None,100.53144049999901,100.53731829999924,100.71864279999863,100.25973150000027,,,,,,,,PT_en,001,2025-03-12_16h33.33.334,MainFlow,2024.2.4,130.0884080797367,2025-03-12 16h33.43.481640 +0700,
2,3,2,4,letter/lettgr063.png,letter/letten062.png,69,69,0,x,0.23295510000025388,None,0,69,69,69,100.72550509999928,,,,,,,100.72550509999928,101.71182059999956,101.72530679999909,101.72530679999909,101.96150399999897,x,0.23295510000025388,None,101.96156519999931,101.96808429999874,102.14888549999887,101.71832879999965,,,,,,,,PT_en,001,2025-03-12_16h33.33.334,MainFlow,2024.2.4,130.0884080797367,2025-03-12 16h33.43.481640 +0700,
2,1,1,6,letter/letten091.png,letter/lettth132.png,70,70,0,z,0.29267950000030396,None,0,70,70,70,102.15567539999938,,,,,,,102.15567539999938,103.14231440000003,103.15535369999998,103.15535369999998,103.45449899999949,z,0.29267950000030396,None,103.45455949999996,103.46095539999988,103.64215189999959,103.14837179999995,,,,,,,,PT_en,001,2025-03-12_16h33.33.334,MainFlow,2024.2.4,130.0884080797367,2025-03-12 16h33.43.481640 +0700,
2,3,2,3,letter/lettgr063.png,letter/letten061.png,71,71,0,x,0.19366249999984575,None,0,71,71,71,103.6492363999987,,,,,,,103.6492363999987,104.63518209999893,104.64884139999958,104.64884139999958,104.8438127999998,x,0.19366249999984575,None,104.84387309999875,104.85017399999924,105.03093859999899,104.641856799999,,,,,,,,PT_en,001,2025-03-12_16h33.33.334,MainFlow,2024.2.4,130.0884080797367,2025-03-12 16h33.43.481640 +0700,
2,3,2,6,letter/lettgr066.png,letter/letten061.png,72,72,0,x,0.20469640000010259,None,0,72,72,72,105.03799789999903,,,,,,,105.03799789999903,106.02396079999926,106.03757949999999,106.03757949999999,106.24655659999917,x,0.20469640000010259,None,106.24663369999871,106.25292869999976,106.43358459999945,106.03060809999988,,,,,,,,PT_en,001,2025-03-12_16h33.33.334,MainFlow,2024.2.4,130.0884080797367,2025-03-12 16h33.43.481640 +0700,
2,3,2,7,letter/lettgr065.png,letter/letten062.png,73,73,0,x,0.21164689999932307,None,0,73,73,73,106.44183609999891,,,,,,,106.44183609999891,107.42657709999912,107.4402983,107.4402983,107.6561528000002,x,0.21164689999932307,None,107.65620599999966,107.66259790000004,107.84333510000033,107.43326969999907,,,,,,,,PT_en,001,2025-03-12_16h33.33.334,MainFlow,2024.2.4,130.0884080797367,2025-03-12 16h33.43.481640 +0700,
2,2,2,2,letter/lettkh013.png,letter/letten121.png,74,74,0,x,0.24267259999942326,None,0,74,74,74,107.85036789999867,,,,,,,107.85036789999867,108.83633269999882,108.84999280000011,108.84999280000011,109.09340410000004,x,0.24267259999942326,None,109.09345670000039,109.09969710000041,109.28089609999915,108.84309360000043,,,,,,,,PT_en,001,2025-03-12_16h33.33.334,MainFlow,2024.2.4,130.0884080797367,2025-03-12 16h33.43.481640 +0700,
2,3,2,7,letter/lettgr065.png,letter/letten062.png,75,75,0,x,0.22805279999920458,None,0,75,75,75,109.28742869999951,,,,,,,109.28742869999951,110.27406949999931,110.28761080000004,110.28761080000004,110.5169893000002,x,0.22805279999920458,None,110.51704379999865,110.52332690000003,110.70421059999899,110.28063669999938,,,,,,,,PT_en,001,2025-03-12_16h33.33.334,MainFlow,2024.2.4,130.0884080797367,2025-03-12 16h33.43.481640 +0700,
2,2,2,7,letter/lettkh083.png,letter/letten112.png,76,76,0,x,0.22411810000085097,None,0,76,76,76,110.71117309999863,,,,,,,110.71117309999863,111.69700620000003,111.71075159999964,111.71075159999964,111.94049660000019,x,0.22411810000085097,None,111.9405556999991,111.94696920000024,112.12773299999935,111.70378329999949,,,,,,,,PT_en,001,2025-03-12_16h33.33.334,MainFlow,2024.2.4,130.0884080797367,2025-03-12 16h33.43.481640 +0700,
2,3,2,8,letter/lettgr152.png,letter/letten152.png,77,77,0,x,0.3247370000008232,None,0,77,77,77,112.13466519999929,,,,,,,112.13466519999929,113.12102239999876,113.13439289999951,113.13439289999951,113.46146869999939,x,0.3247370000008232,None,113.46154190000016,113.46787719999884,113.64857399999892,113.12742389999949,,,,,,,,PT_en,001,2025-03-12_16h33.33.334,MainFlow,2024.2.4,130.0884080797367,2025-03-12 16h33.43.481640 +0700,
2,1,2,4,letter/lettth011.png,letter/letten101.png,78,78,0,x,0.2684669999998732,None,0,78,78,78,113.65725439999915,,,,,,,113.65725439999915,114.64154570000028,114.65519709999899,114.65519709999899,114.92637850000028,x,0.2684669999998732,None,114.92643649999991,114.93280539999978,115.1141435999998,114.64823109999998,,,,,,,,PT_en,001,2025-03-12_16h33.33.334,MainFlow,2024.2.4,130.0884080797367,2025-03-12 16h33.43.481640 +0700,
2,3,2,1,letter/lettgr021.png,letter/letten021.png,79,79,0,x,0.24795239999912155,None,0,79,79,79,115.12125469999955,,,,,,,115.12125469999955,116.1070667999993,116.12074790000042,116.12074790000042,116.37097859999994,x,0.24795239999912155,None,116.37104910000016,116.37746639999932,116.55814949999876,116.11378849999892,,,,,,,,PT_en,001,2025-03-12_16h33.33.334,MainFlow,2024.2.4,130.0884080797367,2025-03-12 16h33.43.481640 +0700,
2,3,2,6,letter/lettgr066.png,letter/letten061.png,80,80,0,x,0.18281890000071144,None,0,80,80,80,116.56497920000038,,,,,,,116.56497920000038,117.55125229999976,117.56485269999939,117.56485269999939,117.75283189999936,x,0.18281890000071144,None,117.75289639999937,117.75925949999873,117.94013129999985,117.55782819999877,,,,,,,,PT_en,001,2025-03-12_16h33.33.334,MainFlow,2024.2.4,130.0884080797367,2025-03-12 16h33.43.481640 +0700,
2,1,2,7,letter/lettth132.png,letter/letten062.png,81,81,0,x,0.17679639999914798,None,0,81,81,81,117.9475012999992,,,,,,,117.9475012999992,118.93354999999974,118.94665669999995,118.94665669999995,119.12806289999935,x,0.17679639999914798,None,119.12813909999932,119.13444899999922,119.3152011000002,118.9400558999987,,,,,,,,PT_en,001,2025-03-12_16h33.33.334,MainFlow,2024.2.4,130.0884080797367,2025-03-12 16h33.43.481640 +0700,
2,2,1,4,letter/letten071.png,letter/lettkh055.png,82,82,0,z,0.6098017999993317,None,0,82,82,82,119.32221539999955,,,,,,,119.32221539999955,120.30824740000025,120.32192450000002,120.32192450000002,120.93369789999997,z,0.6098017999993317,None,120.93376239999998,120.93994989999919,121.12062909999986,120.31495899999936,,,,,,,,PT_en,001,2025-03-12_16h33.33.334,MainFlow,2024.2.4,130.0884080797367,2025-03-12 16h33.43.481640 +0700,
2,1,2,4,letter/lettth011.png,letter/letten101.png,83,83,0,x,0.24940789999891422,None,0,83,83,83,121.1274642999997,,,,,,,121.1274642999997,122.11367069999869,122.12733029999981,122.12733029999981,122.37769669999943,x,0.24940789999891422,None,122.37775010000041,122.38405760000023,122.56471520000014,122.12034270000004,,,,,,,,PT_en,001,2025-03-12_16h33.33.334,MainFlow,2024.2.4,130.0884080797367,2025-03-12 16h33.43.481640 +0700,
2,1,1,7,letter/letten062.png,letter/lettth132.png,84,84,0,z,0.21922509999967588,None,0,84,84,84,122.57158410000011,,,,,,,122.57158410000011,123.5582730999995,123.57134729999962,123.57134729999962,123.79424889999973,z,0.21922509999967588,None,123.79430799999864,123.80071059999864,123.98136030000023,123.56492470000012,,,,,,,,PT_en,001,2025-03-12_16h33.33.334,MainFlow,2024.2.4,130.0884080797367,2025-03-12 16h33.43.481640 +0700,
2,1,1,1,letter/letten041.png,letter/lettth022.png,85,85,0,z,0.19726660000014817,None,0,85,85,85,123.98805360000006,,,,,,,123.98805360000006,124.97493889999896,124.98808209999879,124.98808209999879,125.18999540000004,z,0.19726660000014817,None,125.19004820000009,125.19642430000022,125.37767419999909,124.98107150000033,,,,,,,,PT_en,001,2025-03-12_16h33.33.334,MainFlow,2024.2.4,130.0884080797367,2025-03-12 16h33.43.481640 +0700,
2,1,1,7,letter/letten062.png,letter/lettth132.png,86,86,0,z,0.19634949999999662,None,0,86,86,86,125.38464799999929,,,,,,,125.38464799999929,126.37066509999931,126.38385430000017,126.38385430000017,126.58621940000012,z,0.19634949999999662,None,126.58627869999873,126.5921402999993,126.773533399999,126.37734099999943,,,,,,,,PT_en,001,2025-03-12_16h33.33.334,MainFlow,2024.2.4,130.0884080797367,2025-03-12 16h33.43.481640 +0700,
2,3,1,6,letter/letten061.png,letter/lettgr066.png,87,87,0,z,0.1741081000000122,None,0,87,87,87,126.7806741000004,,,,,,,126.7806741000004,127.76646559999972,127.78008169999885,127.78008169999885,127.96102470000005,z,0.1741081000000122,None,127.96108739999909,127.96744369999942,128.14814409999963,127.77308359999915,,,,,,,,PT_en,001,2025-03-12_16h33.33.334,MainFlow,2024.2.4,130.0884080797367,2025-03-12 16h33.43.481640 +0700,
2,1,1,3,letter/letten142.png,letter/lettth152.png,88,88,0,z,0.169061700000384,None,0,88,88,88,128.15507210000033,,,,,,,128.15507210000033,129.1411135999988,129.15481699999873,129.15481699999873,129.32884299999932,z,0.169061700000384,None,129.32890459999908,129.33531719999883,129.5160563999998,129.14785779999875,,,,,,,,PT_en,001,2025-03-12_16h33.33.334,MainFlow,2024.2.4,130.0884080797367,2025-03-12 16h33.43.481640 +0700,
2,3,2,5,letter/lettgr012.png,letter/letten011.png,89,89,0,x,0.25116779999916616,None,0,89,89,89,129.52286060000006,,,,,,,129.52286060000006,130.5095655999994,130.5226165999993,130.5226165999993,130.78039890000036,x,0.25116779999916616,None,130.78045159999965,130.7868466,130.96862809999948,130.5156793999995,,,,,,,,PT_en,001,2025-03-12_16h33.33.334,MainFlow,2024.2.4,130.0884080797367,2025-03-12 16h33.43.481640 +0700,
2,2,2,8,letter/lettkh035.png,letter/letten051.png,90,90,0,x,0.2033332999999402,None,0,90,90,90,130.97761059999902,,,,,,,130.97761059999902,131.9605720999989,131.97428219999892,131.97428219999892,132.18304399999943,x,0.2033332999999402,None,132.18309709999994,132.18955490000008,132.3702099000002,131.96726429999944,,,,,,,,PT_en,001,2025-03-12_16h33.33.334,MainFlow,2024.2.4,130.0884080797367,2025-03-12 16h33.43.481640 +0700,
2,1,1,8,letter/letten131.png,letter/lettth022.png,91,91,0,z,0.06513629999972181,None,0,91,91,91,132.3772255999993,,,,,,,132.3772255999993,133.36322469999868,133.3768925000004,133.3768925000004,133.44667019999906,z,0.06513629999972181,None,133.44673030000013,133.4532354999992,133.63391319999937,133.36993640000037,,,,,,,,PT_en,001,2025-03-12_16h33.33.334,MainFlow,2024.2.4,130.0884080797367,2025-03-12 16h33.43.481640 +0700,
2,1,2,1,letter/lettth022.png,letter/letten041.png,92,92,0,x,0.7263724999993428,None,0,92,92,92,133.64088479999918,,,,,,,133.64088479999918,134.62744139999995,134.6405453999996,134.6405453999996,135.37037669999881,x,0.7263724999993428,None,135.37043489999996,135.37677839999924,135.55750780000017,134.6340779000002,,,,,,,,PT_en,001,2025-03-12_16h33.33.334,MainFlow,2024.2.4,130.0884080797367,2025-03-12 16h33.43.481640 +0700,
2,3,1,7,letter/letten062.png,letter/lettgr065.png,93,93,0,z,0.20160029999897233,None,0,93,93,93,135.5643848999989,,,,,,,135.5643848999989,136.55058289999943,136.56416499999978,136.56416499999978,136.7664380999995,z,0.20160029999897233,None,136.7664936000001,136.77258919999986,136.9532865000001,136.55716629999915,,,,,,,,PT_en,001,2025-03-12_16h33.33.334,MainFlow,2024.2.4,130.0884080797367,2025-03-12 16h33.43.481640 +0700,
2,2,1,3,letter/letten071.png,letter/lettkh091.png,94,94,0,z,0.2111031999993429,None,0,94,94,94,136.96009029999914,,,,,,,136.96009029999914,137.9467636999998,137.95997709999938,137.95997709999938,138.17566520000037,z,0.2111031999993429,None,138.17572039999868,138.1822116000003,138.36289959999885,137.9535240999994,,,,,,,,PT_en,001,2025-03-12_16h33.33.334,MainFlow,2024.2.4,130.0884080797367,2025-03-12 16h33.43.481640 +0700,
2,2,2,1,letter/lettkh159.png,letter/letten153.png,95,95,0,x,0.24523450000015146,None,0,95,95,95,138.36998719999974,,,,,,,138.36998719999974,139.3564607999997,139.36956719999944,139.36956719999944,139.62031319999915,x,0.24523450000015146,None,139.62037189999864,139.62679169999865,139.8075147999989,139.36310400000002,,,,,,,,PT_en,001,2025-03-12_16h33.33.334,MainFlow,2024.2.4,130.0884080797367,2025-03-12 16h33.43.481640 +0700,
,,,,,,,,,,,,,,,,,,,,,,,,,,,,,,,,,,,139.80761449999954,139.81417689999944,139.81417689999944,140.98136630000045,space,1.1609595999998419,None,PT_en,001,2025-03-12_16h33.33.334,MainFlow,2024.2.4,130.0884080797367,2025-03-12 16h33.43.481640 +0700,
