lang,langpair,sequence,pairid,firstdir,seconddir,thisN,thisTrialN,thisRepN,key_resp.keys,key_resp.rt,key_resp.duration,trials.thisRepN,trials.thisTrialN,trials.thisN,trials.thisIndex,thisRow.t,notes,tutorial.started,tutorial.stopped,key_instruct.keys,key_instruct.rt,key_instruct.duration,image_first.started,letterselect.started,instruct.started,key_resp.started,letterselect.stopped,trials.key_resp.keys,trials.key_resp.rt,trials.key_resp.duration,blanknext.started,instruct_2.started,blanknext.stopped,image_first.stopped,ending.started,text_3.started,ending_key.started,ending.stopped,ending_key.keys,ending_key.rt,ending_key.duration,participant,session,date,expName,psychopyVersion,frameRate,expStart,
,,,,,,,,,,,,,,,,,,0.0027692000148817897,3.87125319999177,space,3.850661000004038,None,,,,,,,,,,,,,,,,,,,,SC_en,001,2025-03-07_12h20.15.630,MainFlow,2024.2.4,136.3756001871964,2025-03-07 12h20.27.648994 +0700,
2,2,1,6,letter/letten061.png,letter/lettkh155.png,0,0,0,z,2.597645099973306,None,0,0,0,0,3.903137999936007,,,,,,,3.903137999936007,4.878997599938884,4.882791199954227,4.882791199954227,7.485881399945356,z,2.597645099973306,None,7.488168900017627,7.492109399987385,7.672905700048432,,,,,,,,,SC_en,001,2025-03-07_12h20.15.630,MainFlow,2024.2.4,136.3756001871964,2025-03-07 12h20.27.648994 +0700,
2,1,2,2,letter/lettth142.png,letter/letten181.png,1,1,0,x,0.7992380999494344,None,0,1,1,1,7.67979219998233,,,,,,,7.67979219998233,8.665861699962988,8.679537900025025,8.679537900025025,9.485741800046526,x,0.7992380999494344,None,9.485802600043826,9.49205969995819,9.672746800002642,8.67260049993638,,,,,,,,SC_en,001,2025-03-07_12h20.15.630,MainFlow,2024.2.4,136.3756001871964,2025-03-07 12h20.27.648994 +0700,
2,1,1,2,letter/letten181.png,letter/lettth142.png,2,2,0,z,1.0382647000951692,None,0,2,2,2,9.679538700031117,,,,,,,9.679538700031117,10.666357300011441,10.679384700022638,10.679384700022638,11.721736600040458,z,1.0382647000951692,None,11.721792800002731,11.728225799975917,11.909016199992038,10.672952099936083,,,,,,,,SC_en,001,2025-03-07_12h20.15.630,MainFlow,2024.2.4,136.3756001871964,2025-03-07 12h20.27.648994 +0700,
2,2,1,8,letter/letten051.png,letter/lettkh035.png,3,3,0,z,0.4504459999734536,None,0,3,3,3,11.915959000005387,,,,,,,11.915959000005387,12.901927300030366,12.915608800016344,12.915608800016344,13.367709600017406,z,0.4504459999734536,None,13.367763599962927,13.374235900002532,13.554858000017703,12.908656200044788,,,,,,,,SC_en,001,2025-03-07_12h20.15.630,MainFlow,2024.2.4,136.3756001871964,2025-03-07 12h20.27.648994 +0700,
2,3,2,2,letter/lettgr061.png,letter/letten061.png,4,4,0,x,0.3691152000101283,None,0,4,4,4,13.56176069995854,,,,,,,13.56176069995854,14.547888200031593,14.561505599995144,14.561505599995144,14.936873099999502,x,0.3691152000101283,None,14.936928299954161,14.94346169999335,15.124138599960133,14.554564999998547,,,,,,,,SC_en,001,2025-03-07_12h20.15.630,MainFlow,2024.2.4,136.3756001871964,2025-03-07 12h20.27.648994 +0700,
2,3,1,7,letter/letten062.png,letter/lettgr065.png,5,5,0,x,0.19357150001451373,None,0,5,5,5,15.13090959994588,,,,,,,15.13090959994588,16.117228299961425,16.13078939996194,16.13078939996194,16.325802100007422,x,0.19357150001451373,None,16.32586560002528,16.332217799965292,16.51288159994874,16.123828600044362,,,,,,,,SC_en,001,2025-03-07_12h20.15.630,MainFlow,2024.2.4,136.3756001871964,2025-03-07 12h20.27.648994 +0700,
2,2,1,7,letter/letten112.png,letter/lettkh083.png,6,6,0,x,0.2936741999583319,None,0,6,6,6,16.51967660000082,,,,,,,16.51967660000082,17.50645949994214,17.51951110002119,17.51951110002119,17.818612799979746,x,0.2936741999583319,None,17.81868000002578,17.825075699947774,18.006681500002742,17.51307949994225,,,,,,,,SC_en,001,2025-03-07_12h20.15.630,MainFlow,2024.2.4,136.3756001871964,2025-03-07 12h20.27.648994 +0700,
2,1,1,1,letter/letten041.png,letter/lettth022.png,7,7,0,z,0.5440938000101596,None,0,7,7,7,18.013532700017095,,,,,,,18.013532700017095,18.99930859997403,19.012978099985048,19.012978099985048,19.561804799945094,z,0.5440938000101596,None,19.561863900045864,19.568242999957874,19.749041700037196,19.00605560000986,,,,,,,,SC_en,001,2025-03-07_12h20.15.630,MainFlow,2024.2.4,136.3756001871964,2025-03-07 12h20.27.648994 +0700,
2,3,1,6,letter/letten061.png,letter/lettgr066.png,8,8,0,x,1.404551799991168,None,0,8,8,8,19.755944399978034,,,,,,,19.755944399978034,20.741919599939138,20.755612800014205,20.755612800014205,22.165890499949455,x,1.404551799991168,None,22.165954799973406,22.17241440003272,22.353124400018714,20.748573699966073,,,,,,,,SC_en,001,2025-03-07_12h20.15.630,MainFlow,2024.2.4,136.3756001871964,2025-03-07 12h20.27.648994 +0700,
2,2,2,6,letter/lettkh155.png,letter/letten061.png,9,9,0,x,0.26959809998515993,None,0,9,9,9,22.360138899995945,,,,,,,22.360138899995945,23.34660349995829,23.359633599990048,23.359633599990048,23.631473599933088,x,0.26959809998515993,None,23.631529600010253,23.637892000027932,23.8185000999365,23.352792499936186,,,,,,,,SC_en,001,2025-03-07_12h20.15.630,MainFlow,2024.2.4,136.3756001871964,2025-03-07 12h20.27.648994 +0700,
2,1,2,6,letter/lettth132.png,letter/letten091.png,10,10,0,x,0.20841819990891963,None,0,10,10,10,23.825355799985118,,,,,,,23.825355799985118,24.81154849997256,24.825286000035703,24.825286000035703,25.034377999952994,x,0.20841819990891963,None,25.034442799980752,25.040566900046542,25.22121710004285,24.818229499971494,,,,,,,,SC_en,001,2025-03-07_12h20.15.630,MainFlow,2024.2.4,136.3756001871964,2025-03-07 12h20.27.648994 +0700,
2,2,1,5,letter/letten051.png,letter/lettkh157.png,11,11,0,z,0.2340844999998808,None,0,11,11,11,25.22817350004334,,,,,,,25.22817350004334,26.214326599962078,26.22794889996294,26.22794889996294,26.464767799945548,z,0.2340844999998808,None,26.464827599935234,26.471185600035824,26.65190870000515,26.220957200042903,,,,,,,,SC_en,001,2025-03-07_12h20.15.630,MainFlow,2024.2.4,136.3756001871964,2025-03-07 12h20.27.648994 +0700,
2,3,1,3,letter/letten061.png,letter/lettgr063.png,12,12,0,z,0.22288330004084855,None,0,12,12,12,26.65871290001087,,,,,,,26.65871290001087,27.645040299976245,27.658567399950698,27.658567399950698,27.887825799989514,z,0.22288330004084855,None,27.887886799988337,27.894329700036906,28.07599859999027,27.651567599968985,,,,,,,,SC_en,001,2025-03-07_12h20.15.630,MainFlow,2024.2.4,136.3756001871964,2025-03-07 12h20.27.648994 +0700,
2,2,2,8,letter/lettkh035.png,letter/letten051.png,13,13,0,x,0.18341240007430315,None,0,13,13,13,28.083417700021528,,,,,,,28.083417700021528,29.068517899955623,29.082462399965152,29.082462399965152,29.270221899962053,x,0.18341240007430315,None,29.27028249995783,29.27663500001654,29.45734069996979,29.075265899999067,,,,,,,,SC_en,001,2025-03-07_12h20.15.630,MainFlow,2024.2.4,136.3756001871964,2025-03-07 12h20.27.648994 +0700,
2,1,2,3,letter/lettth152.png,letter/letten142.png,14,14,0,x,0.20081730000674725,None,0,14,14,14,29.46588409994729,,,,,,,29.46588409994729,30.450395399937406,30.46402419998776,30.46402419998776,30.665977100026794,x,0.20081730000674725,None,30.66603480000049,30.672415500041097,30.853055499959737,30.45706359995529,,,,,,,,SC_en,001,2025-03-07_12h20.15.630,MainFlow,2024.2.4,136.3756001871964,2025-03-07 12h20.27.648994 +0700,
2,2,2,6,letter/lettkh155.png,letter/letten061.png,15,15,0,x,0.21457760001067072,None,0,15,15,15,30.860278200008906,,,,,,,30.860278200008906,31.84614249994047,31.85983099997975,31.85983099997975,32.07564519997686,x,0.21457760001067072,None,32.07570309995208,32.082060100045055,32.26273920002859,31.8527762000449,,,,,,,,SC_en,001,2025-03-07_12h20.15.630,MainFlow,2024.2.4,136.3756001871964,2025-03-07 12h20.27.648994 +0700,
2,3,1,1,letter/letten021.png,letter/lettgr021.png,16,16,0,x,0.3627780999522656,None,0,16,16,16,32.269612699979916,,,,,,,32.269612699979916,33.25578050001059,33.269391800044104,33.269391800044104,33.63799560000189,x,0.3627780999522656,None,33.638050699955784,33.644299200037494,33.82508650003001,33.262430700007826,,,,,,,,SC_en,001,2025-03-07_12h20.15.630,MainFlow,2024.2.4,136.3756001871964,2025-03-07 12h20.27.648994 +0700,
2,3,1,3,letter/letten061.png,letter/lettgr063.png,17,17,0,x,0.3948779000202194,None,0,17,17,17,33.83203859999776,,,,,,,33.83203859999776,34.81849850004073,34.83166899997741,34.83166899997741,35.22810089995619,x,0.3948779000202194,None,35.228169100009836,35.23435949999839,35.415654200012796,34.82466809998732,,,,,,,,SC_en,001,2025-03-07_12h20.15.630,MainFlow,2024.2.4,136.3756001871964,2025-03-07 12h20.27.648994 +0700,
2,2,1,1,letter/letten153.png,letter/lettkh159.png,18,18,0,z,0.3482969000469893,None,0,18,18,18,35.42245800001547,,,,,,,35.42245800001547,36.40869379998185,36.42230560001917,36.42230560001917,36.77665709995199,z,0.3482969000469893,None,36.77670919999946,36.78345859993715,36.96395460003987,36.415317600010894,,,,,,,,SC_en,001,2025-03-07_12h20.15.630,MainFlow,2024.2.4,136.3756001871964,2025-03-07 12h20.27.648994 +0700,
2,1,1,6,letter/letten091.png,letter/lettth132.png,19,19,0,z,0.3486731000011787,None,0,19,19,19,36.971024699974805,,,,,,,36.971024699974805,37.95681520004291,37.97058429999743,37.97058429999743,38.32545629993547,z,0.3486731000011787,None,38.32551819994114,38.33195150003303,38.512895999941975,37.96362950000912,,,,,,,,SC_en,001,2025-03-07_12h20.15.630,MainFlow,2024.2.4,136.3756001871964,2025-03-07 12h20.27.648994 +0700,
2,3,2,5,letter/lettgr012.png,letter/letten011.png,20,20,0,x,0.25387879996560514,None,0,20,20,20,38.520277700037695,,,,,,,38.520277700037695,39.50571219995618,39.519381399964914,39.519381399964914,39.77656270004809,x,0.25387879996560514,None,39.776624000049196,39.783028200035915,39.96370740002021,39.51237240002956,,,,,,,,SC_en,001,2025-03-07_12h20.15.630,MainFlow,2024.2.4,136.3756001871964,2025-03-07 12h20.27.648994 +0700,
2,1,1,2,letter/letten181.png,letter/lettth142.png,21,21,0,z,0.2016555001027882,None,0,21,21,21,39.97054989996832,,,,,,,39.97054989996832,40.95670939993579,40.97037380002439,40.97037380002439,41.17918430001009,z,0.2016555001027882,None,41.17924850003328,41.185741499997675,41.366540999966674,40.96343929995783,,,,,,,,SC_en,001,2025-03-07_12h20.15.630,MainFlow,2024.2.4,136.3756001871964,2025-03-07 12h20.27.648994 +0700,
2,2,1,5,letter/letten051.png,letter/lettkh157.png,22,22,0,z,0.27310420002322644,None,0,22,22,22,41.37341070000548,,,,,,,41.37341070000548,42.35992009995971,42.37304199999198,42.37304199999198,42.651794699952006,z,0.27310420002322644,None,42.65185130003374,42.65825929993298,42.83894990000408,42.36660099995788,,,,,,,,SC_en,001,2025-03-07_12h20.15.630,MainFlow,2024.2.4,136.3756001871964,2025-03-07 12h20.27.648994 +0700,
2,3,1,4,letter/letten062.png,letter/lettgr063.png,23,23,0,x,0.2695341999642551,None,0,23,23,23,42.8458299000049,,,,,,,42.8458299000049,43.83191029995214,43.845559900044464,43.845559900044464,44.116828899946995,x,0.2695341999642551,None,44.11688999994658,44.123271099990234,44.30412420001812,43.83860180003103,,,,,,,,SC_en,001,2025-03-07_12h20.15.630,MainFlow,2024.2.4,136.3756001871964,2025-03-07 12h20.27.648994 +0700,
2,3,2,3,letter/lettgr063.png,letter/letten061.png,24,24,0,x,0.21835640002973378,None,0,24,24,24,44.31084249995183,,,,,,,44.31084249995183,45.29701640002895,45.31063029996585,45.31063029996585,45.53345919994172,x,0.21835640002973378,None,45.53351959993597,45.53991699998733,45.720616700011306,45.30363919993397,,,,,,,,SC_en,001,2025-03-07_12h20.15.630,MainFlow,2024.2.4,136.3756001871964,2025-03-07 12h20.27.648994 +0700,
2,2,2,5,letter/lettkh157.png,letter/letten051.png,25,25,0,x,0.24612289993092418,None,0,25,25,25,45.72763330000453,,,,,,,45.72763330000453,46.71373229997698,46.72730359993875,46.72730359993875,46.97827049996704,x,0.24612289993092418,None,46.97834829997737,46.984649599995464,47.16521859995555,46.72036359994672,,,,,,,,SC_en,001,2025-03-07_12h20.15.630,MainFlow,2024.2.4,136.3756001871964,2025-03-07 12h20.27.648994 +0700,
2,3,1,5,letter/letten011.png,letter/lettgr012.png,26,26,0,z,0.27961600001435727,None,0,26,26,26,47.17248529999051,,,,,,,47.17248529999051,48.15826089994516,48.17188579996582,48.17188579996582,48.456983700045384,z,0.27961600001435727,None,48.45703799999319,48.46354509994853,48.644307899987325,48.16488619998563,,,,,,,,SC_en,001,2025-03-07_12h20.15.630,MainFlow,2024.2.4,136.3756001871964,2025-03-07 12h20.27.648994 +0700,
2,3,1,1,letter/letten021.png,letter/lettgr021.png,27,27,0,z,0.31466699996963143,None,0,27,27,27,48.65150419995189,,,,,,,48.65150419995189,49.63720779994037,49.65095429995563,49.65095429995563,49.97096029995009,z,0.31466699996963143,None,49.97102009993978,49.97743159998208,50.15822710003704,49.64393939997535,,,,,,,,SC_en,001,2025-03-07_12h20.15.630,MainFlow,2024.2.4,136.3756001871964,2025-03-07 12h20.27.648994 +0700,
2,2,1,8,letter/letten051.png,letter/lettkh035.png,28,28,0,z,0.19584479997865856,None,0,28,28,28,50.16528269997798,,,,,,,50.16528269997798,51.15115459996741,51.16477819997817,51.16477819997817,51.366661999956705,z,0.19584479997865856,None,51.36672249995172,51.373119800002314,51.55386540002655,51.15782389999367,,,,,,,,SC_en,001,2025-03-07_12h20.15.630,MainFlow,2024.2.4,136.3756001871964,2025-03-07 12h20.27.648994 +0700,
2,3,1,4,letter/letten062.png,letter/lettgr063.png,29,29,0,z,0.9179585999809206,None,0,29,29,29,51.56089369999245,,,,,,,51.56089369999245,52.54711839999072,52.560518000042066,52.560518000042066,53.484653200022876,z,0.9179585999809206,None,53.4847116000019,53.49112010002136,53.671832900028676,52.55353739997372,,,,,,,,SC_en,001,2025-03-07_12h20.15.630,MainFlow,2024.2.4,136.3756001871964,2025-03-07 12h20.27.648994 +0700,
2,1,2,8,letter/lettth022.png,letter/letten131.png,30,30,0,x,0.32924899994395673,None,0,30,30,30,53.67881950002629,,,,,,,53.67881950002629,54.66491049993783,54.67851130000781,54.67851130000781,55.012502799974754,x,0.32924899994395673,None,55.01256559998728,55.018983499961905,55.199707399937324,54.671535999979824,,,,,,,,SC_en,001,2025-03-07_12h20.15.630,MainFlow,2024.2.4,136.3756001871964,2025-03-07 12h20.27.648994 +0700,
2,2,1,1,letter/letten153.png,letter/lettkh159.png,31,31,0,z,0.2761547000845894,None,0,31,31,31,55.20655959995929,,,,,,,55.20655959995929,56.192866700002924,56.206343599944375,56.206343599944375,56.48455409996677,z,0.2761547000845894,None,56.484617799986154,56.491022799978964,56.67165030003525,56.19938799994998,,,,,,,,SC_en,001,2025-03-07_12h20.15.630,MainFlow,2024.2.4,136.3756001871964,2025-03-07 12h20.27.648994 +0700,
2,2,1,4,letter/letten071.png,letter/lettkh055.png,32,32,0,z,0.7714742000680417,None,0,32,32,32,56.67843410000205,,,,,,,56.67843410000205,57.66477599996142,57.67830739996862,57.67830739996862,58.45058369997423,z,0.7714742000680417,None,58.4506424999563,58.456493900041096,58.63718830002472,57.67134919995442,,,,,,,,SC_en,001,2025-03-07_12h20.15.630,MainFlow,2024.2.4,136.3756001871964,2025-03-07 12h20.27.648994 +0700,
2,1,1,5,letter/letten121.png,letter/lettth101.png,33,33,0,z,0.25531439995393157,None,0,33,33,33,58.6441279000137,,,,,,,58.6441279000137,59.63026310002897,59.6439115999965,59.6439115999965,59.901137199951336,z,0.25531439995393157,None,59.90120159997605,59.90757279994432,60.088221900048666,59.63689490000252,,,,,,,,SC_en,001,2025-03-07_12h20.15.630,MainFlow,2024.2.4,136.3756001871964,2025-03-07 12h20.27.648994 +0700,
2,2,2,4,letter/lettkh055.png,letter/letten071.png,34,34,0,x,0.22793779999483377,None,0,34,34,34,60.09531140001491,,,,,,,60.09531140001491,61.08179329999257,61.09493939997628,61.09493939997628,61.324800699949265,x,0.22793779999483377,None,61.32487450004555,61.33123040001374,61.51183490001131,61.08790099993348,,,,,,,,SC_en,001,2025-03-07_12h20.15.630,MainFlow,2024.2.4,136.3756001871964,2025-03-07 12h20.27.648994 +0700,
2,1,1,5,letter/letten121.png,letter/lettth101.png,35,35,0,z,0.33328770007938147,None,0,35,35,35,61.51873000001069,,,,,,,61.51873000001069,62.5050365999341,62.518680199980736,62.518680199980736,62.852793099940754,z,0.33328770007938147,None,62.85285839997232,62.85902450000867,63.03971919999458,62.51164349995088,,,,,,,,SC_en,001,2025-03-07_12h20.15.630,MainFlow,2024.2.4,136.3756001871964,2025-03-07 12h20.27.648994 +0700,
2,2,2,3,letter/lettkh091.png,letter/letten071.png,36,36,0,x,0.42958579992409796,None,0,36,36,36,63.04667790001258,,,,,,,63.04667790001258,64.03266439994331,64.04638900002465,64.04638900002465,64.47773159993812,x,0.42958579992409796,None,64.4777960999636,64.484037599992,64.66480949998368,64.03942129993811,,,,,,,,SC_en,001,2025-03-07_12h20.15.630,MainFlow,2024.2.4,136.3756001871964,2025-03-07 12h20.27.648994 +0700,
2,2,1,6,letter/letten061.png,letter/lettkh155.png,37,37,0,z,0.5880898999748752,None,0,37,37,37,64.67180929996539,,,,,,,64.67180929996539,65.65783149993513,65.67147119995207,65.67147119995207,66.262097000028,z,0.5880898999748752,None,66.26215970003977,66.26862440002151,66.44935270003043,65.66450670000631,,,,,,,,SC_en,001,2025-03-07_12h20.15.630,MainFlow,2024.2.4,136.3756001871964,2025-03-07 12h20.27.648994 +0700,
2,1,1,4,letter/letten101.png,letter/lettth011.png,38,38,0,z,0.22794839995913208,None,0,38,38,38,66.45613599999342,,,,,,,66.45613599999342,67.4423704999499,67.45600330003072,67.45600330003072,67.68574929994065,z,0.22794839995913208,None,67.68581189995166,67.69222790002823,67.87299389997497,67.44901919993572,,,,,,,,SC_en,001,2025-03-07_12h20.15.630,MainFlow,2024.2.4,136.3756001871964,2025-03-07 12h20.27.648994 +0700,
2,3,2,4,letter/lettgr063.png,letter/letten062.png,39,39,0,x,0.3083781999303028,None,0,39,39,39,67.8800330000231,,,,,,,67.8800330000231,68.86602019995917,68.87972119997721,68.87972119997721,69.1927480000304,x,0.3083781999303028,None,69.19282690004911,69.19919970002957,69.37988170003518,68.87269879993983,,,,,,,,SC_en,001,2025-03-07_12h20.15.630,MainFlow,2024.2.4,136.3756001871964,2025-03-07 12h20.27.648994 +0700,
2,3,1,2,letter/letten061.png,letter/lettgr061.png,40,40,0,z,0.25506470003165305,None,0,40,40,40,69.38670180004556,,,,,,,69.38670180004556,70.37290479999501,70.38651089998893,70.38651089998893,70.64379899995402,z,0.25506470003165305,None,70.64386339997873,70.65016159997322,70.83154219994321,70.37967940000817,,,,,,,,SC_en,001,2025-03-07_12h20.15.630,MainFlow,2024.2.4,136.3756001871964,2025-03-07 12h20.27.648994 +0700,
2,2,2,7,letter/lettkh083.png,letter/letten112.png,41,41,0,x,0.2479940999764949,None,0,41,41,41,70.8388540999731,,,,,,,70.8388540999731,71.82438550004736,71.83817530004308,71.83817530004308,72.08868859999347,x,0.2479940999764949,None,72.08874969999306,72.09493999998085,72.27558300003875,71.8311455999501,,,,,,,,SC_en,001,2025-03-07_12h20.15.630,MainFlow,2024.2.4,136.3756001871964,2025-03-07 12h20.27.648994 +0700,
2,1,2,2,letter/lettth142.png,letter/letten181.png,42,42,0,x,0.24732129997573793,None,0,42,42,42,72.28237020003144,,,,,,,72.28237020003144,73.2686186999781,73.28226789995097,73.28226789995097,73.53299910004716,x,0.24732129997573793,None,73.53306289995089,73.53942849999294,73.72008919995278,73.27520160004497,,,,,,,,SC_en,001,2025-03-07_12h20.15.630,MainFlow,2024.2.4,136.3756001871964,2025-03-07 12h20.27.648994 +0700,
2,2,1,7,letter/letten112.png,letter/lettkh083.png,43,43,0,z,0.1973513999255374,None,0,43,43,43,73.72690360003617,,,,,,,73.72690360003617,74.71316549996845,74.72678080003243,74.72678080003243,74.92865110002458,z,0.1973513999255374,None,74.92871619993821,74.93515249993652,75.11585029994603,74.71995659999084,,,,,,,,SC_en,001,2025-03-07_12h20.15.630,MainFlow,2024.2.4,136.3756001871964,2025-03-07 12h20.27.648994 +0700,
2,2,2,3,letter/lettkh091.png,letter/letten071.png,44,44,0,x,0.20589599991217256,None,0,44,44,44,75.12278780003544,,,,,,,75.12278780003544,76.10886599996593,76.12252640002407,76.12252640002407,76.33140499994624,x,0.20589599991217256,None,76.33145800000057,76.3378931999905,76.51859670004342,76.115562699968,,,,,,,,SC_en,001,2025-03-07_12h20.15.630,MainFlow,2024.2.4,136.3756001871964,2025-03-07 12h20.27.648994 +0700,
2,2,2,5,letter/lettkh157.png,letter/letten051.png,45,45,0,x,0.1974715000251308,None,0,45,45,45,76.52558949997183,,,,,,,76.52558949997183,77.51166530000046,77.52526569995098,77.52526569995098,77.72722909995355,x,0.1974715000251308,None,77.72729169996455,77.73362199997064,77.91439139994327,77.51833710004576,,,,,,,,SC_en,001,2025-03-07_12h20.15.630,MainFlow,2024.2.4,136.3756001871964,2025-03-07 12h20.27.648994 +0700,
2,1,2,3,letter/lettth152.png,letter/letten142.png,46,46,0,x,None,None,0,46,46,46,77.92107489996124,,,,,,,77.92107489996124,78.90733499999624,78.92104459996335,78.92104459996335,79.01907209993806,x,None,None,79.0191397999879,79.02516379998997,79.20586989994626,78.91408240003511,,,,,,,,SC_en,001,2025-03-07_12h20.15.630,MainFlow,2024.2.4,136.3756001871964,2025-03-07 12h20.27.648994 +0700,
2,2,2,2,letter/lettkh013.png,letter/letten121.png,47,47,0,x,0.8135154999326915,None,0,47,47,47,79.21275700000115,,,,,,,79.21275700000115,80.19938809995074,80.2126631999854,80.2126631999854,81.03263439994771,x,0.8135154999326915,None,81.03270029998384,81.03896349994466,81.21962640003767,80.20548659993801,,,,,,,,SC_en,001,2025-03-07_12h20.15.630,MainFlow,2024.2.4,136.3756001871964,2025-03-07 12h20.27.648994 +0700,
2,1,2,6,letter/lettth132.png,letter/letten091.png,48,48,0,x,0.2475243000080809,None,0,48,48,48,81.2264038999565,,,,,,,81.2264038999565,82.21268480003346,82.22635929996613,82.22635929996613,82.47715009993408,x,0.2475243000080809,None,82.47721050004475,82.4835617999779,82.664462500019,82.2193518000422,,,,,,,,SC_en,001,2025-03-07_12h20.15.630,MainFlow,2024.2.4,136.3756001871964,2025-03-07 12h20.27.648994 +0700,
2,1,2,1,letter/lettth022.png,letter/letten041.png,49,49,0,x,0.47708179999608546,None,0,49,49,49,82.67209500004537,,,,,,,82.67209500004537,83.65735739993397,83.6709841999691,83.6709841999691,84.15051910001785,x,0.47708179999608546,None,84.15058160002809,84.15703899995424,84.33765909995418,83.66404149995651,,,,,,,,SC_en,001,2025-03-07_12h20.15.630,MainFlow,2024.2.4,136.3756001871964,2025-03-07 12h20.27.648994 +0700,
2,1,1,3,letter/letten142.png,letter/lettth152.png,50,50,0,z,0.17254049994517118,None,0,50,50,50,84.34429909999017,,,,,,,84.34429909999017,85.33074390003458,85.34432150004432,85.34432150004432,85.51883509999607,z,0.17254049994517118,None,85.51889309997205,85.52528409997467,85.70600260002539,85.33733919996303,,,,,,,,SC_en,001,2025-03-07_12h20.15.630,MainFlow,2024.2.4,136.3756001871964,2025-03-07 12h20.27.648994 +0700,
2,1,2,8,letter/lettth022.png,letter/letten131.png,51,51,0,x,0.18402749998494983,None,0,51,51,51,85.71292459999677,,,,,,,85.71292459999677,86.69902639999054,86.71267499995884,86.71267499995884,86.90062640001997,x,0.18402749998494983,None,86.90070450003259,86.90708170004655,87.08781289996114,86.70578920003027,,,,,,,,SC_en,001,2025-03-07_12h20.15.630,MainFlow,2024.2.4,136.3756001871964,2025-03-07 12h20.27.648994 +0700,
2,2,1,2,letter/letten121.png,letter/lettkh013.png,52,52,0,z,0.14626209996640682,None,0,52,52,52,87.094899800024,,,,,,,87.094899800024,88.08082499995362,88.0945292999968,88.0945292999968,88.24787710001692,z,0.14626209996640682,None,88.2479390000226,88.25389930000529,88.43512569996528,88.08752149995416,,,,,,,,SC_en,001,2025-03-07_12h20.15.630,MainFlow,2024.2.4,136.3756001871964,2025-03-07 12h20.27.648994 +0700,
2,3,1,2,letter/letten061.png,letter/lettgr061.png,53,53,0,z,0.13305720000062138,None,0,53,53,53,88.44191199995112,,,,,,,88.44191199995112,89.42817830003332,89.44184330001008,89.44184330001008,89.5809878000291,z,0.13305720000062138,None,89.58104149997234,89.58738589996938,89.76799359999131,89.43487410002854,,,,,,,,SC_en,001,2025-03-07_12h20.15.630,MainFlow,2024.2.4,136.3756001871964,2025-03-07 12h20.27.648994 +0700,
2,2,2,1,letter/lettkh159.png,letter/letten153.png,54,54,0,x,0.13954970007762313,None,0,54,54,54,89.77475029998459,,,,,,,89.77475029998459,90.7616304999683,90.77486460004002,90.77486460004002,90.92134869995061,x,0.13954970007762313,None,90.92140939994715,90.92778579995502,91.10856510000303,90.76775050000288,,,,,,,,SC_en,001,2025-03-07_12h20.15.630,MainFlow,2024.2.4,136.3756001871964,2025-03-07 12h20.27.648994 +0700,
2,1,1,4,letter/letten101.png,letter/lettth011.png,55,55,0,z,0.18813489994499832,None,0,55,55,55,91.11537919996772,,,,,,,91.11537919996772,92.10154409997631,92.11516479996499,92.11516479996499,92.3101024000207,z,0.18813489994499832,None,92.31015609996393,92.31660799996462,92.49737350002397,92.10817170003429,,,,,,,,SC_en,001,2025-03-07_12h20.15.630,MainFlow,2024.2.4,136.3756001871964,2025-03-07 12h20.27.648994 +0700,
2,3,1,8,letter/letten152.png,letter/lettgr152.png,56,56,0,z,0.2437872999580577,None,0,56,56,56,92.50398299994413,,,,,,,92.50398299994413,93.49038049997762,93.50394339999184,93.50394339999184,93.75473980000243,z,0.2437872999580577,None,93.75480049999896,93.76106489996891,93.94180929998402,93.49689159996342,,,,,,,,SC_en,001,2025-03-07_12h20.15.630,MainFlow,2024.2.4,136.3756001871964,2025-03-07 12h20.27.648994 +0700,
2,3,2,1,letter/lettgr021.png,letter/letten021.png,57,57,0,x,0.1976952999830246,None,0,57,57,57,93.94869470002595,,,,,,,93.94869470002595,94.93480499996804,94.9484722999623,94.9484722999623,95.15035160002299,x,0.1976952999830246,None,95.15040609997232,95.15686919994187,95.33756390004419,94.9414985999465,,,,,,,,SC_en,001,2025-03-07_12h20.15.630,MainFlow,2024.2.4,136.3756001871964,2025-03-07 12h20.27.648994 +0700,
2,1,2,7,letter/lettth132.png,letter/letten062.png,58,58,0,x,0.19129709992557764,None,0,58,58,58,95.34454980003648,,,,,,,95.34454980003648,96.33062979998067,96.34425950003788,96.34425950003788,96.53928399994038,x,0.19129709992557764,None,96.53933820000384,96.54564799997024,96.72631169995293,96.3372631999664,,,,,,,,SC_en,001,2025-03-07_12h20.15.630,MainFlow,2024.2.4,136.3756001871964,2025-03-07 12h20.27.648994 +0700,
2,3,2,2,letter/lettgr061.png,letter/letten061.png,59,59,0,x,0.18158229999244213,None,0,59,59,59,96.73310539999511,,,,,,,96.73310539999511,97.71972119994462,97.7330493000336,97.7330493000336,97.9208881999366,x,0.18158229999244213,None,97.92094889993314,97.92737199994735,98.1080264999764,97.72608139994554,,,,,,,,SC_en,001,2025-03-07_12h20.15.630,MainFlow,2024.2.4,136.3756001871964,2025-03-07 12h20.27.648994 +0700,
2,2,2,4,letter/lettkh055.png,letter/letten071.png,60,60,0,x,0.16367819998413324,None,0,60,60,60,98.11474809993524,,,,,,,98.11474809993524,99.10168920003343,99.1148141999729,99.1148141999729,99.28231999999844,x,0.16367819998413324,None,99.28238370001782,99.28877119999379,99.46954309998546,99.10828069993295,,,,,,,,SC_en,001,2025-03-07_12h20.15.630,MainFlow,2024.2.4,136.3756001871964,2025-03-07 12h20.27.648994 +0700,
2,1,2,5,letter/lettth101.png,letter/letten121.png,61,61,0,x,0.24237829993944615,None,0,61,61,61,99.47655280004255,,,,,,,99.47655280004255,100.46256829996128,100.47607600002084,100.47607600002084,100.71999360003974,x,0.24237829993944615,None,100.72008440003265,100.72575999994297,100.90707229997497,100.46916560002137,,,,,,,,SC_en,001,2025-03-07_12h20.15.630,MainFlow,2024.2.4,136.3756001871964,2025-03-07 12h20.27.648994 +0700,
2,3,1,8,letter/letten152.png,letter/lettgr152.png,62,62,0,z,0.1782123000593856,None,0,62,62,62,100.91348989994731,,,,,,,100.91348989994731,101.90002439997625,101.9137514999602,101.9137514999602,102.09468189999461,z,0.1782123000593856,None,102.094743499998,102.10112999996636,102.28184499999043,101.9067474999465,,,,,,,,SC_en,001,2025-03-07_12h20.15.630,MainFlow,2024.2.4,136.3756001871964,2025-03-07 12h20.27.648994 +0700,
2,1,2,5,letter/lettth101.png,letter/letten121.png,63,63,0,x,0.24799860001076013,None,0,63,63,63,102.28938339999877,,,,,,,102.28938339999877,103.27488129993435,103.28853889997117,103.28853889997117,103.53873359994031,x,0.24799860001076013,None,103.5387937000487,103.54587309993804,103.72646429995075,103.28156200004742,,,,,,,,SC_en,001,2025-03-07_12h20.15.630,MainFlow,2024.2.4,136.3756001871964,2025-03-07 12h20.27.648994 +0700,
2,3,2,8,letter/lettgr152.png,letter/letten152.png,64,64,0,x,0.17680820007808506,None,0,64,64,64,103.73335280001629,,,,,,,103.73335280001629,104.71945259999484,104.73316589999013,104.73316589999013,104.91401079995558,x,0.17680820007808506,None,104.91407139995135,104.92051359999459,105.10136590001639,104.72612440004013,,,,,,,,SC_en,001,2025-03-07_12h20.15.630,MainFlow,2024.2.4,136.3756001871964,2025-03-07 12h20.27.648994 +0700,
2,2,1,2,letter/letten121.png,letter/lettkh013.png,65,65,0,z,0.4912193000782281,None,0,65,65,65,105.10814339993522,,,,,,,105.10814339993522,106.09425650001504,106.10797909996472,106.10797909996472,106.6014382999856,z,0.4912193000782281,None,106.60150119999889,106.60833229997661,106.78861309995409,106.10095260001253,,,,,,,,SC_en,001,2025-03-07_12h20.15.630,MainFlow,2024.2.4,136.3756001871964,2025-03-07 12h20.27.648994 +0700,
2,3,1,5,letter/letten011.png,letter/lettgr012.png,66,66,0,z,0.253625400015153,None,0,66,66,66,106.79579370003194,,,,,,,106.79579370003194,107.78193099994678,107.79529020003974,107.79529020003974,108.05298439995386,z,0.253625400015153,None,108.05304759996943,108.05944460001774,108.2401146000484,107.78833060001489,,,,,,,,SC_en,001,2025-03-07_12h20.15.630,MainFlow,2024.2.4,136.3756001871964,2025-03-07 12h20.27.648994 +0700,
2,2,1,3,letter/letten071.png,letter/lettkh091.png,67,67,0,z,0.17002489999867976,None,0,67,67,67,108.24719439994078,,,,,,,108.24719439994078,109.2331475999672,109.2468231000239,109.2468231000239,109.42075970000587,z,0.17002489999867976,None,109.42081169993617,109.42729389993474,109.60796609998215,109.23985170002561,,,,,,,,SC_en,001,2025-03-07_12h20.15.630,MainFlow,2024.2.4,136.3756001871964,2025-03-07 12h20.27.648994 +0700,
2,1,1,8,letter/letten131.png,letter/lettth022.png,68,68,0,z,0.17140700004529208,None,0,68,68,68,109.61470989999361,,,,,,,109.61470989999361,110.60098740004469,110.61464279994834,110.61464279994834,110.78871130000334,z,0.17140700004529208,None,110.78877069998998,110.79512829997111,110.97630700003356,110.6076554999454,,,,,,,,SC_en,001,2025-03-07_12h20.15.630,MainFlow,2024.2.4,136.3756001871964,2025-03-07 12h20.27.648994 +0700,
2,3,2,4,letter/lettgr063.png,letter/letten062.png,69,69,0,x,0.16264350002165884,None,0,69,69,69,110.98310369998217,,,,,,,110.98310369998217,111.96935299993493,111.98296419996768,111.98296419996768,112.15017779998016,x,0.16264350002165884,None,112.15024149999954,112.15649229998235,112.3371962000383,111.97603729995899,,,,,,,,SC_en,001,2025-03-07_12h20.15.630,MainFlow,2024.2.4,136.3756001871964,2025-03-07 12h20.27.648994 +0700,
2,1,1,6,letter/letten091.png,letter/lettth132.png,70,70,0,z,0.12122790003195405,None,0,70,70,70,112.34414459997788,,,,,,,112.34414459997788,113.33016889996361,113.34381769993342,113.34381769993342,113.46948580001481,z,0.12122790003195405,None,113.46954890002962,113.47585509996861,113.65651859994978,113.33689100004267,,,,,,,,SC_en,001,2025-03-07_12h20.15.630,MainFlow,2024.2.4,136.3756001871964,2025-03-07 12h20.27.648994 +0700,
2,3,2,3,letter/lettgr063.png,letter/letten061.png,71,71,0,x,0.17558489996008575,None,0,71,71,71,113.66343139996752,,,,,,,113.66343139996752,114.64962669997476,114.66329980001319,114.66329980001319,114.84435999998823,x,0.17558489996008575,None,114.84443489997648,114.8507179999724,115.03145210002549,114.65635830000974,,,,,,,,SC_en,001,2025-03-07_12h20.15.630,MainFlow,2024.2.4,136.3756001871964,2025-03-07 12h20.27.648994 +0700,
2,3,2,6,letter/lettgr066.png,letter/letten061.png,72,72,0,x,0.15952709992416203,None,0,72,72,72,115.0384200999979,,,,,,,115.0384200999979,116.02443869994022,116.03812959999777,116.03812959999777,116.19871699996293,x,0.15952709992416203,None,116.19877909997012,116.20505909994245,116.38577109994367,116.03110220003873,,,,,,,,SC_en,001,2025-03-07_12h20.15.630,MainFlow,2024.2.4,136.3756001871964,2025-03-07 12h20.27.648994 +0700,
2,3,2,7,letter/lettgr065.png,letter/letten062.png,73,73,0,x,0.10922430001664907,None,0,73,73,73,116.39287310000509,,,,,,,116.39287310000509,117.37877099995967,117.39243540004827,117.39243540004827,117.50413060002029,x,0.10922430001664907,None,117.50419480004348,117.51059079996776,117.69135440001264,117.3854435000103,,,,,,,,SC_en,001,2025-03-07_12h20.15.630,MainFlow,2024.2.4,136.3756001871964,2025-03-07 12h20.27.648994 +0700,
2,2,2,2,letter/lettkh013.png,letter/letten121.png,74,74,0,x,0.16321810008957982,None,0,74,74,74,117.69860679993872,,,,,,,117.69860679993872,118.6844152000267,118.69791859993711,118.69791859993711,118.86502559995279,x,0.16321810008957982,None,118.86508579994552,118.87144040002022,119.0520854999777,118.69099239993375,,,,,,,,SC_en,001,2025-03-07_12h20.15.630,MainFlow,2024.2.4,136.3756001871964,2025-03-07 12h20.27.648994 +0700,
2,3,2,7,letter/lettgr065.png,letter/letten062.png,75,75,0,x,0.26130770007148385,None,0,75,75,75,119.05891699995846,,,,,,,119.05891699995846,120.04521430004388,120.05872620001901,120.05872620001901,120.32358029996976,x,0.26130770007148385,None,120.32364449999295,120.32999420003034,120.51071970001794,120.05176099995151,,,,,,,,SC_en,001,2025-03-07_12h20.15.630,MainFlow,2024.2.4,136.3756001871964,2025-03-07 12h20.27.648994 +0700,
2,2,2,7,letter/lettkh083.png,letter/letten112.png,76,76,0,x,0.1674986999714747,None,0,76,76,76,120.51752909994684,,,,,,,120.51752909994684,121.5038213999942,121.51747650001198,121.51747650001198,121.69168329995591,x,0.1674986999714747,None,121.69174629996996,121.69776320003439,121.87847989995498,121.51041170000099,,,,,,,,SC_en,001,2025-03-07_12h20.15.630,MainFlow,2024.2.4,136.3756001871964,2025-03-07 12h20.27.648994 +0700,
2,3,2,8,letter/lettgr152.png,letter/letten152.png,77,77,0,x,0.28329159994609654,None,0,77,77,77,121.88521079998463,,,,,,,121.88521079998463,122.87144629994873,122.88510940002743,122.88510940002743,123.1702290000394,x,0.28329159994609654,None,123.17028439999558,123.17669140000362,123.3580348000396,122.87812030001078,,,,,,,,SC_en,001,2025-03-07_12h20.15.630,MainFlow,2024.2.4,136.3756001871964,2025-03-07 12h20.27.648994 +0700,
2,1,2,4,letter/lettth011.png,letter/letten101.png,78,78,0,x,0.28284010000061244,None,0,78,78,78,123.3649494999554,,,,,,,123.3649494999554,124.35102780000307,124.36465360003058,124.36465360003058,124.64990620000754,x,0.28284010000061244,None,124.6499710000353,124.65625899995212,124.83686999999918,124.35763869993389,,,,,,,,SC_en,001,2025-03-07_12h20.15.630,MainFlow,2024.2.4,136.3756001871964,2025-03-07 12h20.27.648994 +0700,
2,3,2,1,letter/lettgr021.png,letter/letten021.png,79,79,0,x,0.2130365000339225,None,0,79,79,79,124.84388509998098,,,,,,,124.84388509998098,125.82998359994963,125.84355779993348,125.84355779993348,126.05950880004093,x,0.2130365000339225,None,126.0595623999834,126.06597510003485,126.24663920002058,125.83664690004662,,,,,,,,SC_en,001,2025-03-07_12h20.15.630,MainFlow,2024.2.4,136.3756001871964,2025-03-07 12h20.27.648994 +0700,
2,3,2,6,letter/lettgr066.png,letter/letten061.png,80,80,0,x,0.23267200007103384,None,0,80,80,80,126.25347049999982,,,,,,,126.25347049999982,127.23966039996594,127.25334119994659,127.25334119994659,127.48969750001561,x,0.23267200007103384,None,127.48976140003651,127.4959925999865,127.67729240003973,127.24633520003408,,,,,,,,SC_en,001,2025-03-07_12h20.15.630,MainFlow,2024.2.4,136.3756001871964,2025-03-07 12h20.27.648994 +0700,
2,1,2,7,letter/lettth132.png,letter/letten062.png,81,81,0,x,0.3623733000131324,None,0,81,81,81,127.68412400002126,,,,,,,127.68412400002126,128.67030769994017,128.68391959997825,128.68391959997825,129.05233650002629,x,0.3623733000131324,None,129.0523891999619,129.05879110004753,129.2396912999684,128.67695630004164,,,,,,,,SC_en,001,2025-03-07_12h20.15.630,MainFlow,2024.2.4,136.3756001871964,2025-03-07 12h20.27.648994 +0700,
2,2,1,4,letter/letten071.png,letter/lettkh055.png,82,82,0,z,0.1629536000546068,None,0,82,82,82,129.2463125999784,,,,,,,129.2463125999784,130.2324951000046,130.2461702999426,130.2461702999426,130.41322879993822,z,0.1629536000546068,None,130.41328690003138,130.41967049997766,130.600851999945,130.23919600003865,,,,,,,,SC_en,001,2025-03-07_12h20.15.630,MainFlow,2024.2.4,136.3756001871964,2025-03-07 12h20.27.648994 +0700,
2,1,2,4,letter/lettth011.png,letter/letten101.png,83,83,0,x,0.6103587999241427,None,0,83,83,83,130.60736639995594,,,,,,,130.60736639995594,131.59395270003006,131.60757440002635,131.60757440002635,132.21886969998013,x,0.6103587999241427,None,132.21893700002693,132.2250968000153,132.40633659996092,131.6006016000174,,,,,,,,SC_en,001,2025-03-07_12h20.15.630,MainFlow,2024.2.4,136.3756001871964,2025-03-07 12h20.27.648994 +0700,
2,1,1,7,letter/letten062.png,letter/lettth132.png,84,84,0,z,0.11973400006536394,None,0,84,84,84,132.41311760002282,,,,,,,132.41311760002282,133.39934570004698,133.41303139994852,133.41303139994852,133.5382563000312,z,0.11973400006536394,None,133.5383171000285,133.5446445000125,133.72531380003784,133.40602240001317,,,,,,,,SC_en,001,2025-03-07_12h20.15.630,MainFlow,2024.2.4,136.3756001871964,2025-03-07 12h20.27.648994 +0700,
2,1,1,1,letter/letten041.png,letter/lettth022.png,85,85,0,z,0.3292643999448046,None,0,85,85,85,133.73191600001883,,,,,,,133.73191600001883,134.71885209996253,134.73185520002153,134.73185520002153,135.0659592000302,z,0.3292643999448046,None,135.06601930002216,135.07238569995388,135.25310259999242,134.72550880000927,,,,,,,,SC_en,001,2025-03-07_12h20.15.630,MainFlow,2024.2.4,136.3756001871964,2025-03-07 12h20.27.648994 +0700,
2,1,1,7,letter/letten062.png,letter/lettth132.png,86,86,0,z,0.2458675999660045,None,0,86,86,86,135.2598884999752,,,,,,,135.2598884999752,136.2460425000172,136.25973960000556,136.25973960000556,136.5104848999763,z,0.2458675999660045,None,136.51053780002985,136.5170404999517,136.69769219995942,136.25275019998662,,,,,,,,SC_en,001,2025-03-07_12h20.15.630,MainFlow,2024.2.4,136.3756001871964,2025-03-07 12h20.27.648994 +0700,
2,3,1,6,letter/letten061.png,letter/lettgr066.png,87,87,0,z,0.18492540006991476,None,0,87,87,87,136.70476490003057,,,,,,,136.70476490003057,137.69074640003964,137.70437469996978,137.70437469996978,137.8923974999925,z,0.18492540006991476,None,137.89245879999362,137.89882030000445,138.07953500002623,137.6974316999549,,,,,,,,SC_en,001,2025-03-07_12h20.15.630,MainFlow,2024.2.4,136.3756001871964,2025-03-07 12h20.27.648994 +0700,
2,1,1,3,letter/letten142.png,letter/lettth152.png,88,88,0,z,0.23267159995157272,None,0,88,88,88,138.08632629993372,,,,,,,138.08632629993372,139.07246880000457,139.086210199981,139.086210199981,139.32293659995776,z,0.23267159995157272,None,139.32299769995734,139.32939540001098,139.51012700004503,139.07920979999471,,,,,,,,SC_en,001,2025-03-07_12h20.15.630,MainFlow,2024.2.4,136.3756001871964,2025-03-07 12h20.27.648994 +0700,
2,3,2,5,letter/lettgr012.png,letter/letten011.png,89,89,0,x,0.21133419999387115,None,0,89,89,89,139.51690609997604,,,,,,,139.51690609997604,140.5031719999388,140.51679629995488,140.51679629995488,140.73293029994238,x,0.21133419999387115,None,140.73299719998613,140.73910240002442,140.91986150003504,140.50979030004237,,,,,,,,SC_en,001,2025-03-07_12h20.15.630,MainFlow,2024.2.4,136.3756001871964,2025-03-07 12h20.27.648994 +0700,
2,2,2,8,letter/lettkh035.png,letter/letten051.png,90,90,0,x,0.2652528000762686,None,0,90,90,90,140.92713379999623,,,,,,,140.92713379999623,141.9128324999474,141.92654649994802,141.92654649994802,142.19768969994038,x,0.2652528000762686,None,142.19775049993768,142.20412669994403,142.38485010003205,141.91953539999668,,,,,,,,SC_en,001,2025-03-07_12h20.15.630,MainFlow,2024.2.4,136.3756001871964,2025-03-07 12h20.27.648994 +0700,
2,1,1,8,letter/letten131.png,letter/lettth022.png,91,91,0,z,0.12912219995632768,None,0,91,91,91,142.39152750000358,,,,,,,142.39152750000358,143.37839089997578,143.39146860002074,143.39146860002074,143.52424399997108,z,0.12912219995632768,None,143.52430539997295,143.53062530001625,143.71127630001865,143.38448579993565,,,,,,,,SC_en,001,2025-03-07_12h20.15.630,MainFlow,2024.2.4,136.3756001871964,2025-03-07 12h20.27.648994 +0700,
2,1,2,1,letter/lettth022.png,letter/letten041.png,92,92,0,x,0.19766810000874102,None,0,92,92,92,143.71843010000885,,,,,,,143.71843010000885,144.7043011999922,144.71794260002207,144.71794260002207,144.91997719998471,x,0.19766810000874102,None,144.9200387999881,144.92633950000163,145.10703720001038,144.71101740002632,,,,,,,,SC_en,001,2025-03-07_12h20.15.630,MainFlow,2024.2.4,136.3756001871964,2025-03-07 12h20.27.648994 +0700,
2,3,1,7,letter/letten062.png,letter/lettgr065.png,93,93,0,z,0.21554450003895909,None,0,93,93,93,145.1138119000243,,,,,,,145.1138119000243,146.10059389995877,146.1136466000462,146.1136466000462,146.32985750003718,z,0.21554450003895909,None,146.32991760002915,146.3360317000188,146.51668080000672,146.106754599954,,,,,,,,SC_en,001,2025-03-07_12h20.15.630,MainFlow,2024.2.4,136.3756001871964,2025-03-07 12h20.27.648994 +0700,
2,2,1,3,letter/letten071.png,letter/lettkh091.png,94,94,0,z,0.21565749996807426,None,0,94,94,94,146.5234454999445,,,,,,,146.5234454999445,147.5096650000196,147.52328139997553,147.52328139997553,147.74608019995503,z,0.21565749996807426,None,147.74613740004133,147.75267169997096,147.93340929993428,147.51630999997724,,,,,,,,SC_en,001,2025-03-07_12h20.15.630,MainFlow,2024.2.4,136.3756001871964,2025-03-07 12h20.27.648994 +0700,
2,2,2,1,letter/lettkh159.png,letter/letten153.png,95,95,0,x,0.1824142000405118,None,0,95,95,95,147.94049199996516,,,,,,,147.94049199996516,148.92664379999042,148.94015549996402,148.94015549996402,149.1281170999864,x,0.1824142000405118,None,149.1281813000096,149.1344403999392,149.3156305999728,148.9332204000093,,,,,,,,SC_en,001,2025-03-07_12h20.15.630,MainFlow,2024.2.4,136.3756001871964,2025-03-07 12h20.27.648994 +0700,
,,,,,,,,,,,,,,,,,,,,,,,,,,,,,,,,,,,149.31570729997475,149.32182980002835,149.32182980002835,151.8227346999338,space,2.4942683998961,None,SC_en,001,2025-03-07_12h20.15.630,MainFlow,2024.2.4,136.3756001871964,2025-03-07 12h20.27.648994 +0700,
