lang,langpair,sequence,pairid,firstdir,seconddir,thisN,thisTrialN,thisRepN,key_resp.keys,key_resp.rt,key_resp.duration,trials.thisRepN,trials.thisTrialN,trials.thisN,trials.thisIndex,thisRow.t,notes,tutorial.started,tutorial.stopped,key_instruct.keys,key_instruct.rt,key_instruct.duration,image_first.started,letterselect.started,instruct.started,key_resp.started,letterselect.stopped,trials.key_resp.keys,trials.key_resp.rt,trials.key_resp.duration,blanknext.started,instruct_2.started,blanknext.stopped,image_first.stopped,ending.started,text_3.started,ending_key.started,ending.stopped,ending_key.keys,ending_key.rt,ending_key.duration,participant,session,date,expName,psychopyVersion,frameRate,expStart,
,,,,,,,,,,,,,,,,,,0.002978599994094111,2.3386456000007456,space,2.306750900010229,None,,,,,,,,,,,,,,,,,,,,SS_en,001,2025-03-11_10h02.16.375,MainFlow,2024.2.4,144.62236207584243,2025-03-11 10h02.26.328788 +0700,
2,2,1,6,letter/letten061.png,letter/lettkh155.png,0,0,0,z,1.4974490000022342,None,0,0,0,0,2.4113434000028064,,,,,,,2.4113434000028064,3.3527041999914218,3.355770299996948,3.355770299996948,4.857598999995389,z,1.4974490000022342,None,4.862675600001239,4.867675799992867,5.0448036000016145,,,,,,,,,SS_en,001,2025-03-11_10h02.16.375,MainFlow,2024.2.4,144.62236207584243,2025-03-11 10h02.26.328788 +0700,
2,1,2,2,letter/lettth142.png,letter/letten181.png,1,1,0,x,0.2864603000052739,None,0,1,1,1,5.063333699989016,,,,,,,5.063333699989016,6.052214700001059,6.058087299999897,6.058087299999897,6.35052559999167,x,0.2864603000052739,None,6.350653499990585,6.356674800001201,6.537702999994508,6.058087299999897,,,,,,,,SS_en,001,2025-03-11_10h02.16.375,MainFlow,2024.2.4,144.62236207584243,2025-03-11 10h02.26.328788 +0700,
2,1,1,2,letter/letten181.png,letter/lettth142.png,2,2,0,z,0.2628357999928994,None,0,2,2,2,6.549094699992565,,,,,,,6.549094699992565,7.538651499999105,7.543843499996001,7.543843499996001,7.808220399994752,z,0.2628357999928994,None,7.808281599995098,7.814427299992531,7.995392400000128,7.543843499996001,,,,,,,,SS_en,001,2025-03-11_10h02.16.375,MainFlow,2024.2.4,144.62236207584243,2025-03-11 10h02.26.328788 +0700,
2,2,1,8,letter/letten051.png,letter/lettkh035.png,3,3,0,z,0.21024640000541694,None,0,3,3,3,8.0022667000012,,,,,,,8.0022667000012,8.988553499992122,9.001631299994187,9.001631299994187,9.217643700001645,z,0.21024640000541694,None,9.217711199991754,9.223881999991136,9.404942900000606,8.994700600000215,,,,,,,,SS_en,001,2025-03-11_10h02.16.375,MainFlow,2024.2.4,144.62236207584243,2025-03-11 10h02.26.328788 +0700,
2,3,2,2,letter/lettgr061.png,letter/letten061.png,4,4,0,x,0.23387299999012612,None,0,4,4,4,9.414147299990873,,,,,,,9.414147299990873,10.398210300001665,10.411371599999256,10.411371599999256,10.648417399992468,x,0.23387299999012612,None,10.648544499999844,10.654211399989435,10.835319199992227,10.40444449998904,,,,,,,,SS_en,001,2025-03-11_10h02.16.375,MainFlow,2024.2.4,144.62236207584243,2025-03-11 10h02.26.328788 +0700,
2,3,1,7,letter/letten062.png,letter/lettgr065.png,5,5,0,z,0.31376230000751093,None,0,5,5,5,10.846856899996055,,,,,,,10.846856899996055,11.83536679999088,11.841435399997863,11.841435399997863,12.161381999991136,z,0.31376230000751093,None,12.161446500002057,12.167696999997133,12.349631299992325,11.841435399997863,,,,,,,,SS_en,001,2025-03-11_10h02.16.375,MainFlow,2024.2.4,144.62236207584243,2025-03-11 10h02.26.328788 +0700,
2,2,1,7,letter/letten112.png,letter/lettkh083.png,6,6,0,z,0.11477539999759756,None,0,6,6,6,12.37396089998947,,,,,,,12.37396089998947,13.362454599991906,13.368987399997422,13.368987399997422,13.48868080000102,z,0.11477539999759756,None,13.488850199995795,13.493979399994714,13.674978099996224,,,,,,,,,SS_en,001,2025-03-11_10h02.16.375,MainFlow,2024.2.4,144.62236207584243,2025-03-11 10h02.26.328788 +0700,
2,1,1,1,letter/letten041.png,letter/lettth022.png,7,7,0,z,0.17473980000067968,None,0,7,7,7,13.685696399988956,,,,,,,13.685696399988956,14.675367399991956,14.681238599994686,14.681238599994686,14.862580399989383,z,0.17473980000067968,None,14.862638499995228,14.868621999994502,15.049959399999352,14.681238599994686,,,,,,,,SS_en,001,2025-03-11_10h02.16.375,MainFlow,2024.2.4,144.62236207584243,2025-03-11 10h02.26.328788 +0700,
2,3,1,6,letter/letten061.png,letter/lettgr066.png,8,8,0,z,0.23936969999340363,None,0,8,8,8,15.061443699989468,,,,,,,15.061443699989468,16.049625200001174,16.05580309999641,16.05580309999641,16.30019639999955,z,0.23936969999340363,None,16.300312999999733,16.30586239999684,16.487255000000005,16.05580309999641,,,,,,,,SS_en,001,2025-03-11_10h02.16.375,MainFlow,2024.2.4,144.62236207584243,2025-03-11 10h02.26.328788 +0700,
2,2,2,6,letter/lettkh155.png,letter/letten061.png,9,9,0,x,0.34299669999745674,None,0,9,9,9,16.50951150000037,,,,,,,16.50951150000037,17.49492260000261,17.500096199990367,17.500096199990367,17.848400000002584,x,0.34299669999745674,None,17.848532199990586,17.854235599996173,18.03585010000097,17.500096199990367,,,,,,,,SS_en,001,2025-03-11_10h02.16.375,MainFlow,2024.2.4,144.62236207584243,2025-03-11 10h02.26.328788 +0700,
2,1,2,6,letter/lettth132.png,letter/letten091.png,10,10,0,x,0.16948390001198277,None,0,10,10,10,18.05086059999303,,,,,,,18.05086059999303,19.036354600000777,19.041831199996523,19.041831199996523,19.216178499991656,x,0.16948390001198277,None,19.216281399989384,19.222045199989225,19.403851099996245,19.041831199996523,,,,,,,,SS_en,001,2025-03-11_10h02.16.375,MainFlow,2024.2.4,144.62236207584243,2025-03-11 10h02.26.328788 +0700,
2,2,1,5,letter/letten051.png,letter/lettkh157.png,11,11,0,z,0.6170861000136938,None,0,11,11,11,19.4199818999914,,,,,,,19.4199818999914,20.40415989999019,20.409415699992678,20.409415699992678,21.028762100002496,z,0.6170861000136938,None,21.02890479999769,21.034105799990357,21.21516329998849,20.409415699992678,,,,,,,,SS_en,001,2025-03-11_10h02.16.375,MainFlow,2024.2.4,144.62236207584243,2025-03-11 10h02.26.328788 +0700,
2,3,1,3,letter/letten061.png,letter/lettgr063.png,12,12,0,z,0.15455459999793675,None,0,12,12,12,21.22496809999575,,,,,,,21.22496809999575,22.20891770000162,22.221390499995323,22.221390499995323,22.382647099992028,z,0.15455459999793675,None,22.38281929999357,22.388136900000973,22.569688099989435,22.214483999996446,,,,,,,,SS_en,001,2025-03-11_10h02.16.375,MainFlow,2024.2.4,144.62236207584243,2025-03-11 10h02.26.328788 +0700,
2,2,2,8,letter/lettkh035.png,letter/letten051.png,13,13,0,x,0.2525244999997085,None,0,13,13,13,22.611410799989244,,,,,,,22.611410799989244,23.583069999993313,23.589490500002285,23.589490500002285,23.847367499998654,x,0.2525244999997085,None,23.84748669998953,23.85301299999992,24.034367499989457,,,,,,,,,SS_en,001,2025-03-11_10h02.16.375,MainFlow,2024.2.4,144.62236207584243,2025-03-11 10h02.26.328788 +0700,
2,1,2,3,letter/lettth152.png,letter/letten142.png,14,14,0,z,0.20694609999191016,None,0,14,14,14,24.049879799989867,,,,,,,24.049879799989867,25.034402099990984,25.040322799992282,25.040322799992282,25.249729899995145,z,0.20694609999191016,None,25.249848999999813,25.255503099993803,25.43633769999724,25.040322799992282,,,,,,,,SS_en,001,2025-03-11_10h02.16.375,MainFlow,2024.2.4,144.62236207584243,2025-03-11 10h02.26.328788 +0700,
2,2,2,6,letter/lettkh155.png,letter/letten061.png,15,15,0,x,1.2291419999965,None,0,15,15,15,25.44516869999643,,,,,,,25.44516869999643,26.42987219999486,26.442810399996233,26.442810399996233,27.674493200000143,x,1.2291419999965,None,27.67474509999738,27.679750900002546,27.860323699991568,26.435871399997268,,,,,,,,SS_en,001,2025-03-11_10h02.16.375,MainFlow,2024.2.4,144.62236207584243,2025-03-11 10h02.26.328788 +0700,
2,3,1,1,letter/letten021.png,letter/lettgr021.png,16,16,0,z,0.5380976000014925,None,0,16,16,16,27.886314999996102,,,,,,,27.886314999996102,28.87465549999615,28.879970099995262,28.879970099995262,29.42284669999208,z,0.5380976000014925,None,29.423024399991846,29.42836589999206,29.609628099991824,28.879970099995262,,,,,,,,SS_en,001,2025-03-11_10h02.16.375,MainFlow,2024.2.4,144.62236207584243,2025-03-11 10h02.26.328788 +0700,
2,3,1,3,letter/letten061.png,letter/lettgr063.png,17,17,0,z,0.4311110999988159,None,0,17,17,17,29.624325899989344,,,,,,,29.624325899989344,30.61001530000067,30.615705399992294,30.615705399992294,31.054199499994866,z,0.4311110999988159,None,31.054325999997673,31.05992569999944,31.241697399993427,30.615705399992294,,,,,,,,SS_en,001,2025-03-11_10h02.16.375,MainFlow,2024.2.4,144.62236207584243,2025-03-11 10h02.26.328788 +0700,
2,2,1,1,letter/letten153.png,letter/lettkh159.png,18,18,0,z,0.17261949999374337,None,0,18,18,18,31.25617749999219,,,,,,,31.25617749999219,32.241338399995584,32.24735259999579,32.24735259999579,32.42210359999444,z,0.17261949999374337,None,32.42222709998896,32.42773660000239,32.609367999990354,32.24735259999579,,,,,,,,SS_en,001,2025-03-11_10h02.16.375,MainFlow,2024.2.4,144.62236207584243,2025-03-11 10h02.26.328788 +0700,
2,1,1,6,letter/letten091.png,letter/lettth132.png,19,19,0,z,0.23834029999852646,None,0,19,19,19,32.62536639999598,,,,,,,32.62536639999598,33.60942929999146,33.615057699993486,33.615057699993486,33.85937520000152,z,0.23834029999852646,None,33.85949449999316,33.86494099999254,34.0468097999983,33.615057699993486,,,,,,,,SS_en,001,2025-03-11_10h02.16.375,MainFlow,2024.2.4,144.62236207584243,2025-03-11 10h02.26.328788 +0700,
2,3,2,5,letter/lettgr012.png,letter/letten011.png,20,20,0,x,0.31884639999771025,None,0,20,20,20,34.07351599998947,,,,,,,34.07351599998947,35.05988179999986,35.06624149999698,35.06624149999698,35.386543599990546,x,0.31884639999771025,None,35.38664099999005,35.39256500000192,35.57426249999844,,,,,,,,,SS_en,001,2025-03-11_10h02.16.375,MainFlow,2024.2.4,144.62236207584243,2025-03-11 10h02.26.328788 +0700,
2,1,1,2,letter/letten181.png,letter/lettth142.png,21,21,0,z,0.705200500000501,None,0,21,21,21,35.5903810000018,,,,,,,35.5903810000018,36.574096700001974,36.57977869999013,36.57977869999013,37.28911969999899,z,0.705200500000501,None,37.28923989999748,37.29483220000111,37.47656699999061,36.57977869999013,,,,,,,,SS_en,001,2025-03-11_10h02.16.375,MainFlow,2024.2.4,144.62236207584243,2025-03-11 10h02.26.328788 +0700,
2,2,1,5,letter/letten051.png,letter/lettkh157.png,22,22,0,z,0.274645600002259,None,0,22,22,22,37.493201199991745,,,,,,,37.493201199991745,38.476913499995135,38.482316900001024,38.482316900001024,38.760504999998375,z,0.274645600002259,None,38.76056670000253,38.76672400000098,38.948593599998276,38.482316900001024,,,,,,,,SS_en,001,2025-03-11_10h02.16.375,MainFlow,2024.2.4,144.62236207584243,2025-03-11 10h02.26.328788 +0700,
2,3,1,4,letter/letten062.png,letter/lettgr063.png,23,23,0,z,0.16051239999069367,None,0,23,23,23,38.96213220000209,,,,,,,38.96213220000209,39.9489343999885,39.954188399991835,39.954188399991835,40.122125199995935,z,0.16051239999069367,None,40.12227759999223,40.12759439999354,40.3088005999889,39.954188399991835,,,,,,,,SS_en,001,2025-03-11_10h02.16.375,MainFlow,2024.2.4,144.62236207584243,2025-03-11 10h02.26.328788 +0700,
2,3,2,3,letter/lettgr063.png,letter/letten061.png,24,24,0,x,0.2566794000013033,None,0,24,24,24,40.32699829999183,,,,,,,40.32699829999183,41.3163729999942,41.32192049999139,41.32192049999139,41.58129779998853,x,0.2566794000013033,None,41.581575099990005,41.58671449999383,41.76659400000062,41.32192049999139,,,,,,,,SS_en,001,2025-03-11_10h02.16.375,MainFlow,2024.2.4,144.62236207584243,2025-03-11 10h02.26.328788 +0700,
2,2,2,5,letter/lettkh157.png,letter/letten051.png,25,25,0,x,0.2455753999965964,None,0,25,25,25,41.78643569999258,,,,,,,41.78643569999258,42.77476509999542,42.780148999998346,42.780148999998346,43.032391200002166,x,0.2455753999965964,None,43.03261959999509,43.03775629999291,43.2179582999961,42.780148999998346,,,,,,,,SS_en,001,2025-03-11_10h02.16.375,MainFlow,2024.2.4,144.62236207584243,2025-03-11 10h02.26.328788 +0700,
2,3,1,5,letter/letten011.png,letter/lettgr012.png,26,26,0,z,0.26073680000263266,None,0,26,26,26,43.246358099990175,,,,,,,43.246358099990175,44.232668299999204,44.237997799995355,44.237997799995355,44.503880099990056,z,0.26073680000263266,None,44.504092099989066,44.50985729999957,44.69042389999959,44.237997799995355,,,,,,,,SS_en,001,2025-03-11_10h02.16.375,MainFlow,2024.2.4,144.62236207584243,2025-03-11 10h02.26.328788 +0700,
2,3,1,1,letter/letten021.png,letter/lettgr021.png,27,27,0,x,0.1989938000042457,None,0,27,27,27,44.70538269999088,,,,,,,44.70538269999088,45.69039439999324,45.69604869998875,45.69604869998875,45.898554200000945,x,0.1989938000042457,None,45.89867159999267,45.90426559999469,46.08621090000088,45.69604869998875,,,,,,,,SS_en,001,2025-03-11_10h02.16.375,MainFlow,2024.2.4,144.62236207584243,2025-03-11 10h02.26.328788 +0700,
2,2,1,8,letter/letten051.png,letter/lettkh035.png,28,28,0,z,0.27423529999214225,None,0,28,28,28,46.100850599992555,,,,,,,46.100850599992555,47.08585719999974,47.09181539999554,47.09181539999554,47.370546499994816,z,0.27423529999214225,None,47.37067299999762,47.37631710000278,47.557967100001406,47.09181539999554,,,,,,,,SS_en,001,2025-03-11_10h02.16.375,MainFlow,2024.2.4,144.62236207584243,2025-03-11 10h02.26.328788 +0700,
2,3,1,4,letter/letten062.png,letter/lettgr063.png,29,29,0,z,0.2168935999943642,None,0,29,29,29,47.57191189999867,,,,,,,47.57191189999867,48.55756560000009,48.56349179999961,48.56349179999961,48.78827959999035,z,0.2168935999943642,None,48.78837699998985,48.792471099994145,48.973924099991564,48.56349179999961,,,,,,,,SS_en,001,2025-03-11_10h02.16.375,MainFlow,2024.2.4,144.62236207584243,2025-03-11 10h02.26.328788 +0700,
2,1,2,8,letter/lettth022.png,letter/letten131.png,30,30,0,x,0.01709870000195224,None,0,30,30,30,48.985176799993496,,,,,,,48.985176799993496,49.973933799992665,49.979879799997434,49.979879799997434,50.0021213,x,0.01709870000195224,None,50.00223269998969,50.007649099992705,50.18967189999239,49.979879799997434,,,,,,,,SS_en,001,2025-03-11_10h02.16.375,MainFlow,2024.2.4,144.62236207584243,2025-03-11 10h02.26.328788 +0700,
2,2,1,1,letter/letten153.png,letter/lettkh159.png,31,31,0,z,0.3357527000043774,None,0,31,31,31,50.20880009999382,,,,,,,50.20880009999382,51.19673919999332,51.20215719999396,51.20215719999396,51.54331799999636,z,0.3357527000043774,None,51.54344969999511,51.54917679999198,51.73042700000224,51.20215719999396,,,,,,,,SS_en,001,2025-03-11_10h02.16.375,MainFlow,2024.2.4,144.62236207584243,2025-03-11 10h02.26.328788 +0700,
2,2,1,4,letter/letten071.png,letter/lettkh055.png,32,32,0,z,0.22573589999228716,None,0,32,32,32,51.75754549998965,,,,,,,51.75754549998965,52.744043200000306,52.75035829999251,52.75035829999251,52.98079289999441,z,0.22573589999228716,None,52.98096679999435,52.986275199989905,53.16783510000096,,,,,,,,,SS_en,001,2025-03-11_10h02.16.375,MainFlow,2024.2.4,144.62236207584243,2025-03-11 10h02.26.328788 +0700,
2,1,1,5,letter/letten121.png,letter/lettth101.png,33,33,0,z,0.22157629999856,None,0,33,33,33,53.19330030000128,,,,,,,53.19330030000128,54.18129090000002,54.18759409998893,54.18759409998893,54.41088859998854,z,0.22157629999856,None,54.4110084999993,54.41655439999886,54.59812009999587,,,,,,,,,SS_en,001,2025-03-11_10h02.16.375,MainFlow,2024.2.4,144.62236207584243,2025-03-11 10h02.26.328788 +0700,
2,2,2,4,letter/lettkh055.png,letter/letten071.png,34,34,0,x,0.23371210000186693,None,0,34,34,34,54.6365031000023,,,,,,,54.6365031000023,55.61121109999658,55.61775469999702,55.61775469999702,55.85605789998954,x,0.23371210000186693,None,55.85632649999752,55.86166070000036,56.04192209999019,,,,,,,,,SS_en,001,2025-03-11_10h02.16.375,MainFlow,2024.2.4,144.62236207584243,2025-03-11 10h02.26.328788 +0700,
2,1,1,5,letter/letten121.png,letter/lettth101.png,35,35,0,z,0.2974108000053093,None,0,35,35,35,56.0540284000017,,,,,,,56.0540284000017,57.04210589999275,57.04797259999032,57.04797259999032,57.34785209999245,z,0.2974108000053093,None,57.34798849999788,57.35345860000234,57.53461309999693,57.04797259999032,,,,,,,,SS_en,001,2025-03-11_10h02.16.375,MainFlow,2024.2.4,144.62236207584243,2025-03-11 10h02.26.328788 +0700,
2,2,2,3,letter/lettkh091.png,letter/letten071.png,36,36,0,x,0.2018223999912152,None,0,36,36,36,57.55597489999491,,,,,,,57.55597489999491,58.54181389999576,58.547681199997896,58.547681199997896,58.75644810000085,x,0.2018223999912152,None,58.75651399999333,58.76286160000018,58.94389969999611,58.547681199997896,,,,,,,,SS_en,001,2025-03-11_10h02.16.375,MainFlow,2024.2.4,144.62236207584243,2025-03-11 10h02.26.328788 +0700,
2,2,1,6,letter/letten061.png,letter/lettkh155.png,37,37,0,z,0.18369670001266059,None,0,37,37,37,58.953717500000494,,,,,,,58.953717500000494,59.93757100000221,59.95018210000126,59.95018210000126,60.13880309999513,z,0.18369670001266059,None,60.13892339999438,60.1445609999937,60.32575629999337,59.94329209999705,,,,,,,,SS_en,001,2025-03-11_10h02.16.375,MainFlow,2024.2.4,144.62236207584243,2025-03-11 10h02.26.328788 +0700,
2,1,1,4,letter/letten101.png,letter/lettth011.png,38,38,0,z,0.2312506000016583,None,0,38,38,38,60.34329789999174,,,,,,,60.34329789999174,61.33317509999324,61.33878910000203,61.33878910000203,61.57606059999671,z,0.2312506000016583,None,61.57617879999452,61.581796699989354,61.763406999991275,61.33878910000203,,,,,,,,SS_en,001,2025-03-11_10h02.16.375,MainFlow,2024.2.4,144.62236207584243,2025-03-11 10h02.26.328788 +0700,
2,3,2,4,letter/lettgr063.png,letter/letten062.png,39,39,0,x,0.22022180000203662,None,0,39,39,39,61.77955019999354,,,,,,,61.77955019999354,62.763069699998596,62.769295299993246,62.769295299993246,62.99369370000204,x,0.22022180000203662,None,62.99390409998887,62.999350300000515,63.18000619999657,62.769295299993246,,,,,,,,SS_en,001,2025-03-11_10h02.16.375,MainFlow,2024.2.4,144.62236207584243,2025-03-11 10h02.26.328788 +0700,
2,3,1,2,letter/letten061.png,letter/lettgr061.png,40,40,0,z,0.1891639999957988,None,0,40,40,40,63.19564759999048,,,,,,,63.19564759999048,64.17962149999221,64.1854200999951,64.1854200999951,64.38110299999244,z,0.1891639999957988,None,64.38122889999067,64.38665939999919,64.56801149999956,64.1854200999951,,,,,,,,SS_en,001,2025-03-11_10h02.16.375,MainFlow,2024.2.4,144.62236207584243,2025-03-11 10h02.26.328788 +0700,
2,2,2,7,letter/lettkh083.png,letter/letten112.png,41,41,0,x,0.20186390000162646,None,0,41,41,41,64.59004499998991,,,,,,,64.59004499998991,65.57511700000032,65.58102889999282,65.58102889999282,65.78527019999456,x,0.20186390000162646,None,65.78542139999627,65.78938689999632,65.97102240000095,65.58102889999282,,,,,,,,SS_en,001,2025-03-11_10h02.16.375,MainFlow,2024.2.4,144.62236207584243,2025-03-11 10h02.26.328788 +0700,
2,1,2,2,letter/lettth142.png,letter/letten181.png,42,42,0,x,0.9601384999987204,None,0,42,42,42,65.98617039999226,,,,,,,65.98617039999226,66.9708449000027,66.97686569999496,66.97686569999496,67.9432736000017,x,0.9601384999987204,None,67.94334969999909,67.94848019999336,68.13048579999304,66.97686569999496,,,,,,,,SS_en,001,2025-03-11_10h02.16.375,MainFlow,2024.2.4,144.62236207584243,2025-03-11 10h02.26.328788 +0700,
2,2,1,7,letter/letten112.png,letter/lettkh083.png,43,43,0,z,0.21119120001094416,None,0,43,43,43,68.14594499999657,,,,,,,68.14594499999657,69.13081519999832,69.13603470000089,69.13603470000089,69.35287089999474,z,0.21119120001094416,None,69.35302599999704,69.35814509999182,69.53983470000094,69.13603470000089,,,,,,,,SS_en,001,2025-03-11_10h02.16.375,MainFlow,2024.2.4,144.62236207584243,2025-03-11 10h02.26.328788 +0700,
2,2,2,3,letter/lettkh091.png,letter/letten071.png,44,44,0,x,0.24092820000078063,None,0,44,44,44,69.55782659999386,,,,,,,69.55782659999386,70.54667539999355,70.55240169999888,70.55240169999888,70.79757149999205,x,0.24092820000078063,None,70.79777439999452,70.80320729999221,70.98340889999236,70.55240169999888,,,,,,,,SS_en,001,2025-03-11_10h02.16.375,MainFlow,2024.2.4,144.62236207584243,2025-03-11 10h02.26.328788 +0700,
2,2,2,5,letter/lettkh157.png,letter/letten051.png,45,45,0,x,0.20819620000838768,None,0,45,45,45,70.99551849999989,,,,,,,70.99551849999989,71.98369599999569,71.98947469999257,71.98947469999257,72.2003063000011,x,0.20819620000838768,None,72.20051850000164,72.20572329999413,72.38581069999782,71.98947469999257,,,,,,,,SS_en,001,2025-03-11_10h02.16.375,MainFlow,2024.2.4,144.62236207584243,2025-03-11 10h02.26.328788 +0700,
2,1,2,3,letter/lettth152.png,letter/letten142.png,46,46,0,x,0.2856253999925684,None,0,46,46,46,72.39675289999286,,,,,,,72.39675289999286,73.38678229998914,73.39213719998952,73.39213719998952,73.68540989999019,x,0.2856253999925684,None,73.68559519998962,73.69043409998994,73.87153289999696,73.39213719998952,,,,,,,,SS_en,001,2025-03-11_10h02.16.375,MainFlow,2024.2.4,144.62236207584243,2025-03-11 10h02.26.328788 +0700,
2,2,2,2,letter/lettkh013.png,letter/letten121.png,47,47,0,x,0.1898467000137316,None,0,47,47,47,73.89661519999208,,,,,,,73.89661519999208,74.88590680000198,74.89195140000083,74.89195140000083,75.08662139999797,x,0.1898467000137316,None,75.08667889999924,75.09302899999602,75.27453650000098,74.89195140000083,,,,,,,,SS_en,001,2025-03-11_10h02.16.375,MainFlow,2024.2.4,144.62236207584243,2025-03-11 10h02.26.328788 +0700,
2,1,2,6,letter/lettth132.png,letter/letten091.png,48,48,0,x,0.6365615999966394,None,0,48,48,48,75.28811860000133,,,,,,,75.28811860000133,76.27468479999516,76.28038519999245,76.28038519999245,76.92031829999178,x,0.6365615999966394,None,76.92043889999331,76.92601060000015,77.10778569999093,76.28038519999245,,,,,,,,SS_en,001,2025-03-11_10h02.16.375,MainFlow,2024.2.4,144.62236207584243,2025-03-11 10h02.26.328788 +0700,
2,1,2,1,letter/lettth022.png,letter/letten041.png,49,49,0,x,0.1369196000014199,None,0,49,49,49,77.12185589999717,,,,,,,77.12185589999717,78.10750969999935,78.11350359999051,78.11350359999051,78.25395220000064,x,0.1369196000014199,None,78.25411189999431,78.25919830000203,78.44027729998925,78.11350359999051,,,,,,,,SS_en,001,2025-03-11_10h02.16.375,MainFlow,2024.2.4,144.62236207584243,2025-03-11 10h02.26.328788 +0700,
2,1,1,3,letter/letten142.png,letter/lettth152.png,50,50,0,z,0.20410780000383966,None,0,50,50,50,78.4581990000006,,,,,,,78.4581990000006,79.44833610000205,79.45362539999769,79.45362539999769,79.6635466000007,z,0.20410780000383966,None,79.66371290000097,79.66870729999209,79.8503125999996,79.45362539999769,,,,,,,,SS_en,001,2025-03-11_10h02.16.375,MainFlow,2024.2.4,144.62236207584243,2025-03-11 10h02.26.328788 +0700,
2,1,2,8,letter/lettth022.png,letter/letten131.png,51,51,0,x,0.13115000000107102,None,0,51,51,51,79.86574579999433,,,,,,,79.86574579999433,80.85063439999067,80.855922799994,80.855922799994,80.98889369999233,x,0.13115000000107102,None,80.98902870000165,80.99466679999023,81.17613619999611,80.855922799994,,,,,,,,SS_en,001,2025-03-11_10h02.16.375,MainFlow,2024.2.4,144.62236207584243,2025-03-11 10h02.26.328788 +0700,
2,2,1,2,letter/letten121.png,letter/lettkh013.png,52,52,0,z,0.16440049999800976,None,0,52,52,52,81.18828170000052,,,,,,,81.18828170000052,82.17629489999672,82.18210979999276,82.18210979999276,82.350938699994,z,0.16440049999800976,None,82.35115000000224,82.35627920000115,82.5368107999966,82.18210979999276,,,,,,,,SS_en,001,2025-03-11_10h02.16.375,MainFlow,2024.2.4,144.62236207584243,2025-03-11 10h02.26.328788 +0700,
2,3,1,2,letter/letten061.png,letter/lettgr061.png,53,53,0,z,0.11175939999520779,None,0,53,53,53,82.54955559999507,,,,,,,82.54955559999507,83.53711769999063,83.54313359998923,83.54313359998923,83.66172429999278,z,0.11175939999520779,None,83.66178029999719,83.66788009999436,83.84919819999777,83.54313359998923,,,,,,,,SS_en,001,2025-03-11_10h02.16.375,MainFlow,2024.2.4,144.62236207584243,2025-03-11 10h02.26.328788 +0700,
2,2,2,1,letter/lettkh159.png,letter/letten153.png,54,54,0,x,0.13944669999182224,None,0,54,54,54,83.87452709999343,,,,,,,83.87452709999343,84.86296129999391,84.86900069999683,84.86900069999683,85.01565020000271,x,0.13944669999182224,None,85.01574760000221,85.02153309999267,85.202913599991,,,,,,,,,SS_en,001,2025-03-11_10h02.16.375,MainFlow,2024.2.4,144.62236207584243,2025-03-11 10h02.26.328788 +0700,
2,1,1,4,letter/letten101.png,letter/lettth011.png,55,55,0,z,0.11768899999151472,None,0,55,55,55,85.21607129999029,,,,,,,85.21607129999029,86.20301479999034,86.20910359999107,86.20910359999107,86.32838059999631,z,0.11768899999151472,None,86.32850209999015,86.33397069999774,86.51537229999667,86.20910359999107,,,,,,,,SS_en,001,2025-03-11_10h02.16.375,MainFlow,2024.2.4,144.62236207584243,2025-03-11 10h02.26.328788 +0700,
2,3,1,8,letter/letten152.png,letter/lettgr152.png,56,56,0,z,0.22483890000148676,None,0,56,56,56,86.54081099999894,,,,,,,86.54081099999894,87.52910559999873,87.53609439999855,87.53609439999855,87.76573559999815,z,0.22483890000148676,None,87.7658650999947,87.77130599999509,87.95273710000038,,,,,,,,,SS_en,001,2025-03-11_10h02.16.375,MainFlow,2024.2.4,144.62236207584243,2025-03-11 10h02.26.328788 +0700,
2,3,2,1,letter/lettgr021.png,letter/letten021.png,57,57,0,x,0.2816920999903232,None,0,57,57,57,87.97647759999381,,,,,,,87.97647759999381,88.96660999998858,88.97230389999459,88.97230389999459,89.25812289999158,x,0.2816920999903232,None,89.25823759999184,89.2638939999888,89.44549529999495,88.97230389999459,,,,,,,,SS_en,001,2025-03-11_10h02.16.375,MainFlow,2024.2.4,144.62236207584243,2025-03-11 10h02.26.328788 +0700,
2,1,2,7,letter/lettth132.png,letter/letten062.png,58,58,0,z,0.16496429999824613,None,0,58,58,58,89.46267519998946,,,,,,,89.46267519998946,90.45293030000175,90.45832359998894,90.45832359998894,90.62595459999284,z,0.16496429999824613,None,90.62607199999911,90.63175410000258,90.8134951999964,90.45832359998894,,,,,,,,SS_en,001,2025-03-11_10h02.16.375,MainFlow,2024.2.4,144.62236207584243,2025-03-11 10h02.26.328788 +0700,
2,3,2,2,letter/lettgr061.png,letter/letten061.png,59,59,0,x,0.15271429999847896,None,0,59,59,59,90.82986839998921,,,,,,,90.82986839998921,91.81304259999888,91.81896409999172,91.81896409999172,91.9728172999894,x,0.15271429999847896,None,91.97290959999373,91.9786621999956,92.15969809998933,91.81896409999172,,,,,,,,SS_en,001,2025-03-11_10h02.16.375,MainFlow,2024.2.4,144.62236207584243,2025-03-11 10h02.26.328788 +0700,
2,2,2,4,letter/lettkh055.png,letter/letten071.png,60,60,0,x,0.17210009999689646,None,0,60,60,60,92.17052699999476,,,,,,,92.17052699999476,93.16003049998835,93.16594159998931,93.16594159998931,93.34081359999254,x,0.17210009999689646,None,93.34091129999433,93.34637590000057,93.52802220000012,93.16594159998931,,,,,,,,SS_en,001,2025-03-11_10h02.16.375,MainFlow,2024.2.4,144.62236207584243,2025-03-11 10h02.26.328788 +0700,
2,1,2,5,letter/lettth101.png,letter/letten121.png,61,61,0,x,0.23152270000719,None,0,61,61,61,93.55259809999552,,,,,,,93.55259809999552,94.54129889998876,94.54777399999148,94.54777399999148,94.7852797999949,x,0.23152270000719,None,94.78539889999956,94.79067459999351,94.97248209999816,,,,,,,,,SS_en,001,2025-03-11_10h02.16.375,MainFlow,2024.2.4,144.62236207584243,2025-03-11 10h02.26.328788 +0700,
2,3,1,8,letter/letten152.png,letter/lettgr152.png,62,62,0,z,0.05992040000273846,None,0,62,62,62,94.99040729999251,,,,,,,94.99040729999251,95.97895189998962,95.98486339999363,95.98486339999363,96.04863140000089,z,0.05992040000273846,None,96.04877179999312,96.05425629999081,96.23543829999107,95.98486339999363,,,,,,,,SS_en,001,2025-03-11_10h02.16.375,MainFlow,2024.2.4,144.62236207584243,2025-03-11 10h02.26.328788 +0700,
2,1,2,5,letter/lettth101.png,letter/letten121.png,63,63,0,x,0.24125189999176655,None,0,63,63,63,96.24698640000133,,,,,,,96.24698640000133,97.23639429999457,97.2417002000002,97.2417002000002,97.48615279998921,x,0.24125189999176655,None,97.48630459999549,97.4915336999984,97.6732156999933,97.2417002000002,,,,,,,,SS_en,001,2025-03-11_10h02.16.375,MainFlow,2024.2.4,144.62236207584243,2025-03-11 10h02.26.328788 +0700,
2,3,2,8,letter/lettgr152.png,letter/letten152.png,64,64,0,x,0.23536580000654794,None,0,64,64,64,97.69864950000192,,,,,,,97.69864950000192,98.6865972999949,98.69274020000012,98.69274020000012,98.93024909999804,x,0.23536580000654794,None,98.93037190000177,98.93572529999074,99.1173628999968,98.69274020000012,,,,,,,,SS_en,001,2025-03-11_10h02.16.375,MainFlow,2024.2.4,144.62236207584243,2025-03-11 10h02.26.328788 +0700,
2,2,1,2,letter/letten121.png,letter/lettkh013.png,65,65,0,z,0.13571529999899212,None,0,65,65,65,99.13368079999054,,,,,,,99.13368079999054,100.11701339999854,100.12289639998926,100.12289639998926,100.26392159999523,z,0.13571529999899212,None,100.26413779999712,100.26918009998917,100.44977419999486,100.12289639998926,,,,,,,,SS_en,001,2025-03-11_10h02.16.375,MainFlow,2024.2.4,144.62236207584243,2025-03-11 10h02.26.328788 +0700,
2,3,1,5,letter/letten011.png,letter/lettgr012.png,66,66,0,z,0.1778988999867579,None,0,66,66,66,100.46160179999424,,,,,,,100.46160179999424,101.4500956999982,101.4559881999885,101.4559881999885,101.63766500000202,z,0.1778988999867579,None,101.6378005000006,101.64342579999357,101.8251648000005,101.4559881999885,,,,,,,,SS_en,001,2025-03-11_10h02.16.375,MainFlow,2024.2.4,144.62236207584243,2025-03-11 10h02.26.328788 +0700,
2,2,1,3,letter/letten071.png,letter/lettkh091.png,67,67,0,z,0.17536050001217518,None,0,67,67,67,101.84260519999953,,,,,,,101.84260519999953,102.83247789999587,102.83789139999135,102.83789139999135,103.01978319999762,z,0.17536050001217518,None,103.01994269998977,103.0250617999991,103.20683189999545,102.83789139999135,,,,,,,,SS_en,001,2025-03-11_10h02.16.375,MainFlow,2024.2.4,144.62236207584243,2025-03-11 10h02.26.328788 +0700,
2,1,1,8,letter/letten131.png,letter/lettth022.png,68,68,0,z,0.19414320000214502,None,0,68,68,68,103.2302481999941,,,,,,,103.2302481999941,104.21353139998973,104.21934640000109,104.21934640000109,104.41509309998946,z,0.19414320000214502,None,104.41522139999142,104.42068260000087,104.60197150000022,104.21934640000109,,,,,,,,SS_en,001,2025-03-11_10h02.16.375,MainFlow,2024.2.4,144.62236207584243,2025-03-11 10h02.26.328788 +0700,
2,3,2,4,letter/lettgr063.png,letter/letten062.png,69,69,0,x,0.2127223999996204,None,0,69,69,69,104.61540579999564,,,,,,,104.61540579999564,105.60205799998948,105.6079952,105.6079952,105.8247696999897,x,0.2127223999996204,None,105.82493409999006,105.8301735999994,106.01145999999426,105.6079952,,,,,,,,SS_en,001,2025-03-11_10h02.16.375,MainFlow,2024.2.4,144.62236207584243,2025-03-11 10h02.26.328788 +0700,
2,1,1,6,letter/letten091.png,letter/lettth132.png,70,70,0,z,0.21934489998966455,None,0,70,70,70,106.02390079999168,,,,,,,106.02390079999168,107.01182549999794,107.01747229999455,107.01747229999455,107.2408116000006,z,0.21934489998966455,None,107.24092050000036,107.2465516999946,107.42839039998944,107.01747229999455,,,,,,,,SS_en,001,2025-03-11_10h02.16.375,MainFlow,2024.2.4,144.62236207584243,2025-03-11 10h02.26.328788 +0700,
2,3,2,3,letter/lettgr063.png,letter/letten061.png,71,71,0,x,0.2296242999873357,None,0,71,71,71,107.44454529999348,,,,,,,107.44454529999348,108.42905500000052,108.43396650000068,108.43396650000068,108.66530399999465,x,0.2296242999873357,None,108.66547379999247,108.6699721999903,108.85171789999004,108.43396650000068,,,,,,,,SS_en,001,2025-03-11_10h02.16.375,MainFlow,2024.2.4,144.62236207584243,2025-03-11 10h02.26.328788 +0700,
2,3,2,6,letter/lettgr066.png,letter/letten061.png,72,72,0,x,0.22118430001137313,None,0,72,72,72,108.87445669999579,,,,,,,108.87445669999579,109.85780729999533,109.8640088999964,109.8640088999964,110.08690129999013,x,0.22118430001137313,None,110.08696119999513,110.09313470000052,110.27480639998976,109.8640088999964,,,,,,,,SS_en,001,2025-03-11_10h02.16.375,MainFlow,2024.2.4,144.62236207584243,2025-03-11 10h02.26.328788 +0700,
2,3,2,7,letter/lettgr065.png,letter/letten062.png,73,73,0,x,0.19999629999801982,None,0,73,73,73,110.31046480000077,,,,,,,110.31046480000077,111.28802349999023,111.29445889999624,111.29445889999624,111.49717089999467,x,0.19999629999801982,None,111.49730879999697,111.50276570000278,111.68380199999956,,,,,,,,,SS_en,001,2025-03-11_10h02.16.375,MainFlow,2024.2.4,144.62236207584243,2025-03-11 10h02.26.328788 +0700,
2,2,2,2,letter/lettkh013.png,letter/letten121.png,74,74,0,x,0.19582700000319164,None,0,74,74,74,111.69624569998996,,,,,,,111.69624569998996,112.68425959999149,112.68996209999023,112.68996209999023,112.89248439999938,x,0.19582700000319164,None,112.8926061999955,112.8981894999888,113.07954639999662,112.68996209999023,,,,,,,,SS_en,001,2025-03-11_10h02.16.375,MainFlow,2024.2.4,144.62236207584243,2025-03-11 10h02.26.328788 +0700,
2,3,2,7,letter/lettgr065.png,letter/letten062.png,75,75,0,x,0.18018700000538956,None,0,75,75,75,113.09253779999563,,,,,,,113.09253779999563,114.07952919999661,114.08546269999351,114.08546269999351,114.26822600000014,x,0.18018700000538956,None,114.26843369999551,114.27331369998865,114.45397360000061,114.08546269999351,,,,,,,,SS_en,001,2025-03-11_10h02.16.375,MainFlow,2024.2.4,144.62236207584243,2025-03-11 10h02.26.328788 +0700,
2,2,2,7,letter/lettkh083.png,letter/letten112.png,76,76,0,x,0.1943930000124965,None,0,76,76,76,114.46379249999882,,,,,,,114.46379249999882,115.4477804999915,115.46043859999918,115.46043859999918,115.65665649999573,x,0.1943930000124965,None,115.65681129999575,115.6617821999971,115.84261539998988,115.45345369999995,,,,,,,,SS_en,001,2025-03-11_10h02.16.375,MainFlow,2024.2.4,144.62236207584243,2025-03-11 10h02.26.328788 +0700,
2,3,2,8,letter/lettgr152.png,letter/letten152.png,77,77,0,x,0.010643900008290075,None,0,77,77,77,115.85050449999108,,,,,,,115.85050449999108,116.8358564999944,116.84898159999284,116.84898159999284,116.86555999999109,x,0.010643900008290075,None,116.86578120000195,116.8707613000006,117.0506630000018,116.84196499999962,,,,,,,,SS_en,001,2025-03-11_10h02.16.375,MainFlow,2024.2.4,144.62236207584243,2025-03-11 10h02.26.328788 +0700,
2,1,2,4,letter/lettth011.png,letter/letten101.png,78,78,0,x,0.08823020001000259,None,0,78,78,78,117.06634309999936,,,,,,,117.06634309999936,118.0518868999934,118.0570568999974,118.0570568999974,118.14886119999574,x,0.08823020001000259,None,118.14901379999355,118.15412199999264,118.3355040000024,118.0570568999974,,,,,,,,SS_en,001,2025-03-11_10h02.16.375,MainFlow,2024.2.4,144.62236207584243,2025-03-11 10h02.26.328788 +0700,
2,3,2,1,letter/lettgr021.png,letter/letten021.png,79,79,0,x,0.16496179999376182,None,0,79,79,79,118.34763819999353,,,,,,,118.34763819999353,119.33523149999382,119.34153409999271,119.34153409999271,119.50932759999705,x,0.16496179999376182,None,119.50945959999808,119.51507059999858,119.69650669999828,119.34153409999271,,,,,,,,SS_en,001,2025-03-11_10h02.16.375,MainFlow,2024.2.4,144.62236207584243,2025-03-11 10h02.26.328788 +0700,
2,3,2,6,letter/lettgr066.png,letter/letten061.png,80,80,0,x,0.16058239999983925,None,0,80,80,80,119.70912739999767,,,,,,,119.70912739999767,120.69695040000079,120.70236080000177,120.70236080000177,120.86947819999477,x,0.16058239999983925,None,120.86953669998911,120.87580999999773,121.05744910000067,120.70236080000177,,,,,,,,SS_en,001,2025-03-11_10h02.16.375,MainFlow,2024.2.4,144.62236207584243,2025-03-11 10h02.26.328788 +0700,
2,1,2,7,letter/lettth132.png,letter/letten062.png,81,81,0,x,0.052397000006749295,None,0,81,81,81,121.07580439999583,,,,,,,121.07580439999583,122.06453560000227,122.07017359999008,122.07017359999008,122.12724940000044,x,0.052397000006749295,None,122.12747139998828,122.13252949999878,122.31363109999802,122.07017359999008,,,,,,,,SS_en,001,2025-03-11_10h02.16.375,MainFlow,2024.2.4,144.62236207584243,2025-03-11 10h02.26.328788 +0700,
2,2,1,4,letter/letten071.png,letter/lettkh055.png,82,82,0,z,0.22675709999748506,None,0,82,82,82,122.32454879999568,,,,,,,122.32454879999568,123.31415249999554,123.31999049999285,123.31999049999285,123.55145659999107,z,0.22675709999748506,None,123.55167499999516,123.55745079999906,123.73693709999498,123.31999049999285,,,,,,,,SS_en,001,2025-03-11_10h02.16.375,MainFlow,2024.2.4,144.62236207584243,2025-03-11 10h02.26.328788 +0700,
2,1,2,4,letter/lettth011.png,letter/letten101.png,83,83,0,x,None,None,0,83,83,83,123.74604699999327,,,,,,,123.74604699999327,124.73102389999258,124.74327459999768,124.74327459999768,124.8978233999951,x,None,None,124.8979757999914,124.90287649999664,125.08459030000085,124.73630799999228,,,,,,,,SS_en,001,2025-03-11_10h02.16.375,MainFlow,2024.2.4,144.62236207584243,2025-03-11 10h02.26.328788 +0700,
2,1,1,7,letter/letten062.png,letter/lettth132.png,84,84,0,z,0.17156649999378715,None,0,84,84,84,125.10188479999488,,,,,,,125.10188479999488,126.0911761999887,126.09703769999032,126.09703769999032,126.27244129999599,z,0.17156649999378715,None,126.27258489999804,126.27760449999187,126.45867320000252,126.09703769999032,,,,,,,,SS_en,001,2025-03-11_10h02.16.375,MainFlow,2024.2.4,144.62236207584243,2025-03-11 10h02.26.328788 +0700,
2,1,1,1,letter/letten041.png,letter/lettth022.png,85,85,0,z,0.14277510000101756,None,0,85,85,85,126.4701897999912,,,,,,,126.4701897999912,127.45926489999692,127.46498959999008,127.46498959999008,127.61173520000011,z,0.14277510000101756,None,127.61183939999319,127.61766949998855,127.7991037999891,127.46498959999008,,,,,,,,SS_en,001,2025-03-11_10h02.16.375,MainFlow,2024.2.4,144.62236207584243,2025-03-11 10h02.26.328788 +0700,
2,1,1,7,letter/letten062.png,letter/lettth132.png,86,86,0,z,0.1144483000098262,None,0,86,86,86,127.81458979999297,,,,,,,127.81458979999297,128.79921499999182,128.8048345999996,128.8048345999996,128.92402569999103,z,0.1144483000098262,None,128.92413829998986,128.92977719999908,129.11089949999587,128.8048345999996,,,,,,,,SS_en,001,2025-03-11_10h02.16.375,MainFlow,2024.2.4,144.62236207584243,2025-03-11 10h02.26.328788 +0700,
2,3,1,6,letter/letten061.png,letter/lettgr066.png,87,87,0,z,0.12751869999920018,None,0,87,87,87,129.12250869999116,,,,,,,129.12250869999116,130.11200599999574,130.11722879999434,130.11722879999434,130.2502846999996,z,0.12751869999920018,None,130.25040649999573,130.25596889998997,130.43762419999985,130.11722879999434,,,,,,,,SS_en,001,2025-03-11_10h02.16.375,MainFlow,2024.2.4,144.62236207584243,2025-03-11 10h02.26.328788 +0700,
2,1,1,3,letter/letten142.png,letter/lettth152.png,88,88,0,z,0.006080099992686883,None,0,88,88,88,130.4561735999887,,,,,,,130.4561735999887,131.4447092999908,131.45041389999096,131.45041389999096,131.45916410000063,z,0.006080099992686883,None,131.45933939999668,131.46416389998922,131.6458786000003,131.45041389999096,,,,,,,,SS_en,001,2025-03-11_10h02.16.375,MainFlow,2024.2.4,144.62236207584243,2025-03-11 10h02.26.328788 +0700,
2,3,2,5,letter/lettgr012.png,letter/letten011.png,89,89,0,x,0.16869389999192208,None,0,89,89,89,131.66019080000115,,,,,,,131.66019080000115,132.64489830000093,132.6511901999911,132.6511901999911,132.82604010000068,x,0.16869389999192208,None,132.82618049999292,132.83184790000087,133.01341200000024,132.6511901999911,,,,,,,,SS_en,001,2025-03-11_10h02.16.375,MainFlow,2024.2.4,144.62236207584243,2025-03-11 10h02.26.328788 +0700,
2,2,2,8,letter/lettkh035.png,letter/letten051.png,90,90,0,x,0.016607600002316758,None,0,90,90,90,133.03167229999963,,,,,,,133.03167229999963,134.02024329999404,134.0260549999948,134.0260549999948,134.04833649999637,x,0.016607600002316758,None,134.04848779999884,134.05380680000235,134.23546559999522,134.0260549999948,,,,,,,,SS_en,001,2025-03-11_10h02.16.375,MainFlow,2024.2.4,144.62236207584243,2025-03-11 10h02.26.328788 +0700,
2,1,1,8,letter/letten131.png,letter/lettth022.png,91,91,0,z,0.05719649999809917,None,0,91,91,91,134.25019239999529,,,,,,,134.25019239999529,135.2352866000001,135.2412622999982,135.2412622999982,135.30609379999805,z,0.05719649999809917,None,135.30624839999655,135.31049689999782,135.49201229999017,135.2412622999982,,,,,,,,SS_en,001,2025-03-11_10h02.16.375,MainFlow,2024.2.4,144.62236207584243,2025-03-11 10h02.26.328788 +0700,
2,1,2,1,letter/lettth022.png,letter/letten041.png,92,92,0,x,0.1269258000102127,None,0,92,92,92,135.50582849999773,,,,,,,135.50582849999773,136.49249129999953,136.4978548999934,136.4978548999934,136.6318401999888,x,0.1269258000102127,None,136.63204789999872,136.63651270000264,136.81732529999863,136.4978548999934,,,,,,,,SS_en,001,2025-03-11_10h02.16.375,MainFlow,2024.2.4,144.62236207584243,2025-03-11 10h02.26.328788 +0700,
2,3,1,7,letter/letten062.png,letter/lettgr065.png,93,93,0,z,0.017660700003034435,None,0,93,93,93,136.8243638999993,,,,,,,136.8243638999993,137.81178779999027,137.8238560000027,137.8238560000027,137.84723269999085,z,0.017660700003034435,None,137.84744839998893,137.852438899994,138.03327590000117,137.81700189999538,,,,,,,,SS_en,001,2025-03-11_10h02.16.375,MainFlow,2024.2.4,144.62236207584243,2025-03-11 10h02.26.328788 +0700,
2,2,1,3,letter/letten071.png,letter/lettkh091.png,94,94,0,z,0.1741184999991674,None,0,94,94,94,138.04776029998902,,,,,,,138.04776029998902,139.0332500999939,139.0390849999967,139.0390849999967,139.22056180000072,z,0.1741184999991674,None,139.22068199999921,139.22688969998853,139.4081601999933,139.0390849999967,,,,,,,,SS_en,001,2025-03-11_10h02.16.375,MainFlow,2024.2.4,144.62236207584243,2025-03-11 10h02.26.328788 +0700,
2,2,2,1,letter/lettkh159.png,letter/letten153.png,95,95,0,x,0.04948359999980312,None,0,95,95,95,139.42488759999105,,,,,,,139.42488759999105,140.41421479999553,140.4206836999947,140.4206836999947,140.4779780999961,x,0.04948359999980312,None,140.4781798999902,140.48317799999495,140.66414120000263,140.4206836999947,,,,,,,,SS_en,001,2025-03-11_10h02.16.375,MainFlow,2024.2.4,144.62236207584243,2025-03-11 10h02.26.328788 +0700,
,,,,,,,,,,,,,,,,,,,,,,,,,,,,,,,,,,,140.66427660000045,140.67052269999112,140.67052269999112,141.95644490000268,space,1.2784179999871412,None,SS_en,001,2025-03-11_10h02.16.375,MainFlow,2024.2.4,144.62236207584243,2025-03-11 10h02.26.328788 +0700,
