lang,wordid,truestate,worddir,imgdir,thisN,thisTrialN,thisRepN,key_resp.keys,key_resp.rt,key_resp.duration,trials.thisRepN,trials.thisTrialN,trials.thisN,trials.thisIndex,thisRow.t,notes,tutorial.started,tutorial.stopped,key_instruct.keys,key_instruct.rt,key_instruct.duration,plusblank.started,wordshow.started,image.started,plsuer.started,wordshow.stopped,imageword.started,key_resp.started,trials.key_resp.keys,trials.key_resp.rt,trials.key_resp.duration,image.stopped,plsuer.stopped,plusblank.stopped,ending.started,text_3.started,ending_key.started,ending.stopped,ending_key.keys,ending_key.rt,ending_key.duration,participant,session,date,expName,psychopyVersion,frameRate,expStart,
,,,,,,,,,,,,,,,,,0.003847999993013218,2.051344799983781,space,2.021601400017971,None,,,,,,,,,,,,,,,,,,,,,DM_th,001,2025-03-09_13h43.38.868,MainFlow,2024.2.4,142.60737620521945,2025-03-09 13h43.53.849249 +0700,
1,51,0,word/wordth0511.png,image/False/imgf51.png,0,0,0,x,2.4108776999928523,None,0,0,0,0,2.1025621999870054,,,,,,,3.5616786000027787,3.0766350000048988,3.1052286000049207,3.1052286000049207,3.5554263000085484,4.73046130000148,4.73046130000148,x,2.4108776999928523,None,,,,,,,,,,,DM_th,001,2025-03-09_13h43.38.868,MainFlow,2024.2.4,142.60737620521945,2025-03-09 13h43.53.849249 +0700,
1,66,1,word/wordth0661.png,image/True/img66.png,1,1,0,z,0.6751610999926925,None,0,1,1,1,7.1518619999988005,,,,,,,8.657982600008836,8.165771800006041,8.169257400004426,8.169257400004426,8.651913899986539,9.788392099988414,9.788392099988414,z,0.6751610999926925,None,,,,,,,,,,,DM_th,001,2025-03-09_13h43.38.868,MainFlow,2024.2.4,142.60737620521945,2025-03-09 13h43.53.849249 +0700,
1,60,1,word/wordth0601.png,image/True/img60.png,2,2,0,z,0.47688970001763664,None,0,2,2,2,10.470028399984585,,,,,,,11.97673580000992,11.491058199986583,11.494261399988318,11.494261399988318,11.970456799987005,13.082681700005196,13.082681700005196,z,0.47688970001763664,None,,,,,,,,,,,DM_th,001,2025-03-09_13h43.38.868,MainFlow,2024.2.4,142.60737620521945,2025-03-09 13h43.53.849249 +0700,
1,46,0,word/wordth0461.png,image/False/imgf46.png,3,3,0,x,0.7271860000037123,None,0,3,3,3,13.566647400002694,,,,,,,15.059595600003377,14.564449199999217,14.567362000001594,14.567362000001594,15.054378800006816,16.210507499985397,16.210507499985397,x,0.7271860000037123,None,15.059595600003377,15.059595600003377,16.210507499985397,,,,,,,,DM_th,001,2025-03-09_13h43.38.868,MainFlow,2024.2.4,142.60737620521945,2025-03-09 13h43.53.849249 +0700,
1,24,1,word/wordth0241.png,image/True/img24.png,4,4,0,z,0.8131420999998227,None,0,4,4,4,16.947970899986103,,,,,,,18.454898600000888,17.966352499992354,17.969570899993414,17.969570899993414,18.44874799999525,19.536264900001697,19.536264900001697,z,0.8131420999998227,None,,,,,,,,,,,DM_th,001,2025-03-09_13h43.38.868,MainFlow,2024.2.4,142.60737620521945,2025-03-09 13h43.53.849249 +0700,
1,68,1,word/wordth0681.png,image/True/img68.png,5,5,0,z,0.6789584000071045,None,0,5,5,5,20.35699639999075,,,,,,,21.863770600000862,21.36587999999756,21.369241999986116,21.369241999986116,21.85750340000959,22.959889999998268,22.959889999998268,z,0.6789584000071045,None,,,,,,,,,,,DM_th,001,2025-03-09_13h43.38.868,MainFlow,2024.2.4,142.60737620521945,2025-03-09 13h43.53.849249 +0700,
1,22,0,word/wordth0221.png,image/False/imgf22.png,6,6,0,x,2.965352500003064,None,0,6,6,6,23.64801889998489,,,,,,,25.154734699986875,24.66462070000125,24.667852299986407,24.667852299986407,25.148415500007104,26.29288500000257,26.29288500000257,x,2.965352500003064,None,,,,,,,,,,,DM_th,001,2025-03-09_13h43.38.868,MainFlow,2024.2.4,142.60737620521945,2025-03-09 13h43.53.849249 +0700,
1,36,1,word/wordth0361.png,image/True/img36.png,7,7,0,z,0.5918056999798864,None,0,7,7,7,29.264943599991966,,,,,,,30.771893299999647,30.288968999986537,30.292337799997767,30.292337799997767,30.76589479998802,31.90840419998858,31.90840419998858,z,0.5918056999798864,None,,,,,,,,,,,DM_th,001,2025-03-09_13h43.38.868,MainFlow,2024.2.4,142.60737620521945,2025-03-09 13h43.53.849249 +0700,
1,68,0,word/wordth0681.png,image/False/imgf68.png,8,8,0,x,0.5075513000192586,None,0,8,8,8,32.507450400007656,,,,,,,34.00721209999756,33.512126099987654,33.51585480000358,33.51585480000358,34.0014486,35.11189080000622,35.11189080000622,x,0.5075513000192586,None,34.00721209999756,34.00721209999756,,,,,,,,,DM_th,001,2025-03-09_13h43.38.868,MainFlow,2024.2.4,142.60737620521945,2025-03-09 13h43.53.849249 +0700,
1,16,1,word/wordth0161.png,image/True/img16.png,9,9,0,z,0.8880120000103489,None,0,9,9,9,35.6320490000071,,,,,,,37.13857209999696,36.643206300010206,36.64657579999766,36.64657579999766,37.13219889998436,38.291373299987754,38.291373299987754,z,0.8880120000103489,None,,,,,,,,,,,DM_th,001,2025-03-09_13h43.38.868,MainFlow,2024.2.4,142.60737620521945,2025-03-09 13h43.53.849249 +0700,
1,94,1,word/wordth0941.png,image/True/img94.png,10,10,0,z,0.4883292999875266,None,0,10,10,10,39.186862200003816,,,,,,,40.69341559999157,40.19811299999128,40.201407399988966,40.201407399988966,40.6873026000103,41.810053699999116,41.810053699999116,z,0.4883292999875266,None,,,,,,,,,,,DM_th,001,2025-03-09_13h43.38.868,MainFlow,2024.2.4,142.60737620521945,2025-03-09 13h43.53.849249 +0700,
1,95,0,word/wordth0951.png,image/False/imgf95.png,11,11,0,x,0.6647972000064328,None,0,11,11,11,42.30706970000756,,,,,,,43.81073430000106,43.32611120000365,43.329526999994414,43.329526999994414,43.80448049999541,44.980792999995174,44.980792999995174,x,0.6647972000064328,None,,,43.329526999994414,,,,,,,,DM_th,001,2025-03-09_13h43.38.868,MainFlow,2024.2.4,142.60737620521945,2025-03-09 13h43.53.849249 +0700,
1,30,0,word/wordth0301.png,image/False/imgf30.png,12,12,0,x,0.8723690000188071,None,0,12,12,12,45.65771169998334,,,,,,,47.15067309999722,46.65618600000744,46.659150699997554,46.659150699997554,47.145344099990325,48.26123989999178,48.26123989999178,x,0.8723690000188071,None,47.15067309999722,47.15067309999722,48.26123989999178,,,,,,,,DM_th,001,2025-03-09_13h43.38.868,MainFlow,2024.2.4,142.60737620521945,2025-03-09 13h43.53.849249 +0700,
1,20,1,word/wordth0201.png,image/True/img20.png,13,13,0,z,1.2742205999966245,None,0,13,13,13,49.14308099998743,,,,,,,50.643046000011964,50.150220699986676,50.15358230000129,50.15358230000129,50.637572100007674,51.78889679998974,51.78889679998974,z,1.2742205999966245,None,50.643046000011964,50.643046000011964,,,,,,,,,DM_th,001,2025-03-09_13h43.38.868,MainFlow,2024.2.4,142.60737620521945,2025-03-09 13h43.53.849249 +0700,
1,42,0,word/wordth0421.png,image/False/imgf42.png,14,14,0,x,0.8789193000120576,None,0,14,14,14,53.07324789999984,,,,,,,54.580944399989676,54.08802830000059,54.09138009999879,54.09138009999879,54.57344139998895,55.7224384000001,55.7224384000001,x,0.8789193000120576,None,,,,,,,,,,,DM_th,001,2025-03-09_13h43.38.868,MainFlow,2024.2.4,142.60737620521945,2025-03-09 13h43.53.849249 +0700,
1,31,1,word/wordth0311.png,image/True/img31.png,15,15,0,z,1.488858500000788,None,0,15,15,15,56.60979849999421,,,,,,,58.11366870001075,57.62719420000212,57.630801899998914,57.630801899998914,58.10736090000137,59.235763500008034,59.235763500008034,z,1.488858500000788,None,,,,,,,,,,,DM_th,001,2025-03-09_13h43.38.868,MainFlow,2024.2.4,142.60737620521945,2025-03-09 13h43.53.849249 +0700,
1,55,1,word/wordth0551.png,image/True/img55.png,16,16,0,z,1.5028135000029579,None,0,16,16,16,60.731362299993634,,,,,,,62.2379493000044,61.74839309998788,61.75194749998627,61.75194749998627,62.23182290000841,63.37307579998742,63.37307579998742,z,1.5028135000029579,None,,,,,,,,,,,DM_th,001,2025-03-09_13h43.38.868,MainFlow,2024.2.4,142.60737620521945,2025-03-09 13h43.53.849249 +0700,
1,36,1,word/wordth0361.png,image/True/img36.png,17,17,0,z,0.7663376999844331,None,0,17,17,17,64.88313549998566,,,,,,,66.38295309999376,65.8850184000039,65.88856359999045,65.88856359999045,66.37714180001058,67.47955099999672,67.47955099999672,z,0.7663376999844331,None,66.38295309999376,66.38295309999376,,,,,,,,,DM_th,001,2025-03-09_13h43.38.868,MainFlow,2024.2.4,142.60737620521945,2025-03-09 13h43.53.849249 +0700,
1,9,1,word/wordth0091.png,image/True/img09.png,18,18,0,z,0.8020194999990053,None,0,18,18,18,68.25773219999974,,,,,,,69.76440809998894,69.27475630000117,69.27828020000015,69.27828020000015,69.75787279999349,70.83829539999715,70.83829539999715,z,0.8020194999990053,None,,,69.27828020000015,,,,,,,,DM_th,001,2025-03-09_13h43.38.868,MainFlow,2024.2.4,142.60737620521945,2025-03-09 13h43.53.849249 +0700,
1,64,1,word/wordth0641.png,image/True/img64.png,19,19,0,z,1.0247393999889027,None,0,19,19,19,71.65259829998831,,,,,,,73.1522963999887,72.65572469998733,72.65857729999698,72.65857729999698,73.14628759998595,74.25747479998972,74.25747479998972,z,1.0247393999889027,None,73.1522963999887,73.1522963999887,,,,,,,,,DM_th,001,2025-03-09_13h43.38.868,MainFlow,2024.2.4,142.60737620521945,2025-03-09 13h43.53.849249 +0700,
1,95,1,word/wordth0951.png,image/True/img95.png,20,20,0,z,0.715500799997244,None,0,20,20,20,75.29095619998407,,,,,,,76.78368860000046,76.29099929999211,76.29437930000131,76.29437930000131,76.77759710000828,77.9454654000001,77.9454654000001,z,0.715500799997244,None,76.78368860000046,76.78368860000046,77.9454654000001,,,,,,,,DM_th,001,2025-03-09_13h43.38.868,MainFlow,2024.2.4,142.60737620521945,2025-03-09 13h43.53.849249 +0700,
1,41,1,word/wordth0411.png,image/True/img41.png,21,21,0,z,0.6034271000244189,None,0,21,21,21,78.67217810000875,,,,,,,80.17890659999102,79.71771580001223,79.72063389999676,79.72063389999676,80.17295030000969,81.30061499998556,81.30061499998556,z,0.6034271000244189,None,,,,,,,,,,,DM_th,001,2025-03-09_13h43.38.868,MainFlow,2024.2.4,142.60737620521945,2025-03-09 13h43.53.849249 +0700,
1,8,1,word/wordth0081.png,image/True/img08.png,22,22,0,z,0.729082500009099,None,0,22,22,22,81.91456579999067,,,,,,,83.42148520000046,82.9365184000053,82.93992820000858,82.93992820000858,83.41519679999328,84.51150779999443,84.51150779999443,z,0.729082500009099,None,,,,,,,,,,,DM_th,001,2025-03-09_13h43.38.868,MainFlow,2024.2.4,142.60737620521945,2025-03-09 13h43.53.849249 +0700,
1,60,1,word/wordth0601.png,image/True/img60.png,23,23,0,z,0.455030600016471,None,0,23,23,23,85.24728889999096,,,,,,,86.73323149999487,86.23841729998821,86.24155360000441,86.24155360000441,86.72784609999508,87.82955339999171,87.82955339999171,z,0.455030600016471,None,86.73323149999487,86.73323149999487,87.82955339999171,,,,,,,,DM_th,001,2025-03-09_13h43.38.868,MainFlow,2024.2.4,142.60737620521945,2025-03-09 13h43.53.849249 +0700,
1,48,0,word/wordth0481.png,image/False/imgf48.png,24,24,0,x,0.8729643000115175,None,0,24,24,24,88.29524929999025,,,,,,,89.80188369998359,89.3145736999868,89.31783799998811,89.31783799998811,89.79560230000061,90.95029239999712,90.95029239999712,x,0.8729643000115175,None,,,,,,,,,,,DM_th,001,2025-03-09_13h43.38.868,MainFlow,2024.2.4,142.60737620521945,2025-03-09 13h43.53.849249 +0700,
1,41,0,word/wordth0411.png,image/False/imgf41.png,25,25,0,x,0.8495396999933291,None,0,25,25,25,91.83091439999407,,,,,,,93.32912169999327,92.83307580000837,92.83650760000455,92.83650760000455,93.32361120000132,94.4451018999971,94.4451018999971,x,0.8495396999933291,None,93.32912169999327,93.32912169999327,94.4451018999971,,,,,,,,DM_th,001,2025-03-09_13h43.38.868,MainFlow,2024.2.4,142.60737620521945,2025-03-09 13h43.53.849249 +0700,
1,54,0,word/wordth0541.png,image/False/imgf54.png,26,26,0,x,1.4940079000080004,None,0,26,26,26,95.30296599998837,,,,,,,96.80762700000196,96.32036769998376,96.3236179999949,96.3236179999949,96.80155969999032,97.91618329999619,97.91618329999619,x,1.4940079000080004,None,,,96.3236179999949,,,,,,,,DM_th,001,2025-03-09_13h43.38.868,MainFlow,2024.2.4,142.60737620521945,2025-03-09 13h43.53.849249 +0700,
1,54,1,word/wordth0541.png,image/True/img54.png,27,27,0,z,0.4630563000100665,None,0,27,27,27,99.41808410000522,,,,,,,100.9110662000021,100.41393710000557,100.4172350000008,100.4172350000008,100.90589429999818,102.05682779999916,102.05682779999916,z,0.4630563000100665,None,100.9110662000021,100.9110662000021,102.05682779999916,,,,,,,,DM_th,001,2025-03-09_13h43.38.868,MainFlow,2024.2.4,142.60737620521945,2025-03-09 13h43.53.849249 +0700,
1,63,0,word/wordth0631.png,image/False/imgf63.png,28,28,0,z,3.3404997999896295,None,0,28,28,28,102.52864740000223,,,,,,,104.03550860000541,103.54612019998604,103.54969049998908,103.54969049998908,104.02931819998776,105.17085439999937,105.17085439999937,z,3.3404997999896295,None,,,,,,,,,,,DM_th,001,2025-03-09_13h43.38.868,MainFlow,2024.2.4,142.60737620521945,2025-03-09 13h43.53.849249 +0700,
1,37,0,word/wordth0371.png,image/False/imgf37.png,29,29,0,x,1.3992407000041567,None,0,29,29,29,108.5205420999846,,,,,,,110.02724950000993,109.53207960000145,109.53531089998432,109.53531089998432,110.02095569999074,111.2135169999965,111.2135169999965,x,1.3992407000041567,None,,,,,,,,,,,DM_th,001,2025-03-09_13h43.38.868,MainFlow,2024.2.4,142.60737620521945,2025-03-09 13h43.53.849249 +0700,
1,54,0,word/wordth0541.png,image/False/imgf54.png,30,30,0,x,0.5783960999979172,None,0,30,30,30,112.62639150000177,,,,,,,114.13169420001213,113.63403620000463,113.63752429999295,113.63752429999295,114.12441590000526,115.24765420000767,115.24765420000767,x,0.5783960999979172,None,,,113.63752429999295,,,,,,,,DM_th,001,2025-03-09_13h43.38.868,MainFlow,2024.2.4,142.60737620521945,2025-03-09 13h43.53.849249 +0700,
1,48,1,word/wordth0481.png,image/True/img48.png,31,31,0,z,1.2818090999790002,None,0,31,31,31,115.83848919998854,,,,,,,117.33850579999853,116.83917490000022,116.84280579999904,116.84280579999904,117.3325487000111,118.48011899998528,118.48011899998528,z,1.2818090999790002,None,117.33850579999853,117.33850579999853,,,,,,,,,DM_th,001,2025-03-09_13h43.38.868,MainFlow,2024.2.4,142.60737620521945,2025-03-09 13h43.53.849249 +0700,
1,26,0,word/wordth0261.png,image/False/imgf26.png,32,32,0,x,0.7584791999834124,None,0,32,32,32,119.7683560999867,,,,,,,121.26824830000987,120.77516280001146,120.77804730000207,120.77804730000207,121.26315099999192,122.42202540001017,122.42202540001017,x,0.7584791999834124,None,121.26824830000987,121.26824830000987,,,,,,,,,DM_th,001,2025-03-09_13h43.38.868,MainFlow,2024.2.4,142.60737620521945,2025-03-09 13h43.53.849249 +0700,
1,59,0,word/wordth0591.png,image/False/imgf59.png,33,33,0,x,0.6807604000205174,None,0,33,33,33,123.19139620001079,,,,,,,124.69820539999637,124.19947580000735,124.20236049999949,124.20236049999949,124.6916677999834,125.78524229998584,125.78524229998584,x,0.6807604000205174,None,,,,,,,,,,,DM_th,001,2025-03-09_13h43.38.868,MainFlow,2024.2.4,142.60737620521945,2025-03-09 13h43.53.849249 +0700,
1,8,1,word/wordth0081.png,image/True/img08.png,34,34,0,z,0.5827190999989398,None,0,34,34,34,126.47542080000858,,,,,,,127.96143679998931,127.46763289999217,127.47075730000506,127.47075730000506,127.95637229998829,129.06421099998988,129.06421099998988,z,0.5827190999989398,None,127.96143679998931,127.96143679998931,129.06421099998988,,,,,,,,DM_th,001,2025-03-09_13h43.38.868,MainFlow,2024.2.4,142.60737620521945,2025-03-09 13h43.53.849249 +0700,
1,66,1,word/wordth0661.png,image/True/img66.png,35,35,0,z,0.382682700001169,None,0,35,35,35,129.65567440001178,,,,,,,131.148400999984,130.65276040000026,130.65628900000593,130.65628900000593,131.14258680000785,132.26685899999575,132.26685899999575,z,0.382682700001169,None,131.148400999984,131.148400999984,132.26685899999575,,,,,,,,DM_th,001,2025-03-09_13h43.38.868,MainFlow,2024.2.4,142.60737620521945,2025-03-09 13h43.53.849249 +0700,
1,24,0,word/wordth0241.png,image/False/imgf24.png,36,36,0,x,0.773942600004375,None,0,36,36,36,132.66162679999252,,,,,,,134.14786450000247,133.65436849999242,133.65720119999605,133.65720119999605,134.14265749999322,135.27417369998875,135.27417369998875,x,0.773942600004375,None,134.14786450000247,134.14786450000247,135.27417369998875,,,,,,,,DM_th,001,2025-03-09_13h43.38.868,MainFlow,2024.2.4,142.60737620521945,2025-03-09 13h43.53.849249 +0700,
1,14,1,word/wordth0141.png,image/True/img14.png,37,37,0,z,0.6042362000152934,None,0,37,37,37,136.05685470000026,,,,,,,137.5636026999855,137.0722775000031,137.07595779999974,137.07595779999974,137.55730749998474,138.6995307999896,138.6995307999896,z,0.6042362000152934,None,,,,,,,,,,,DM_th,001,2025-03-09_13h43.38.868,MainFlow,2024.2.4,142.60737620521945,2025-03-09 13h43.53.849249 +0700,
1,20,0,word/wordth0201.png,image/False/imgf20.png,38,38,0,x,0.7911561000219081,None,0,38,38,38,139.3134083999903,,,,,,,140.81314250000287,140.31469279999146,140.31832799999393,140.31832799999393,140.80798579999828,141.9742072999943,141.9742072999943,x,0.7911561000219081,None,140.81314250000287,140.81314250000287,141.9742072999943,,,,,,,,DM_th,001,2025-03-09_13h43.38.868,MainFlow,2024.2.4,142.60737620521945,2025-03-09 13h43.53.849249 +0700,
1,89,0,word/wordth0891.png,image/False/imgf89.png,39,39,0,x,0.9487692999828141,None,0,39,39,39,142.77782580000348,,,,,,,144.28447779998532,143.79285810000147,143.79590299999109,143.79590299999109,144.27820369999972,145.40173320000758,145.40173320000758,x,0.9487692999828141,None,,,,,,,,,,,DM_th,001,2025-03-09_13h43.38.868,MainFlow,2024.2.4,142.60737620521945,2025-03-09 13h43.53.849249 +0700,
1,64,0,word/wordth0641.png,image/False/imgf64.png,40,40,0,x,0.6003561000106856,None,0,40,40,40,146.36053649999667,,,,,,,147.8532814999926,147.35725900001125,147.36077040000237,147.36077040000237,147.84797410000465,148.94944830000168,148.94944830000168,x,0.6003561000106856,None,147.8532814999926,147.8532814999926,148.94944830000168,,,,,,,,DM_th,001,2025-03-09_13h43.38.868,MainFlow,2024.2.4,142.60737620521945,2025-03-09 13h43.53.849249 +0700,
1,56,1,word/wordth0561.png,image/True/img56.png,41,41,0,z,0.6094551999995019,None,0,41,41,41,149.56121250000433,,,,,,,151.06125470000552,150.56695619999664,150.56981919999816,150.56981919999816,151.05575120000867,152.181779800012,152.181779800012,z,0.6094551999995019,None,151.06125470000552,151.06125470000552,,,,,,,,,DM_th,001,2025-03-09_13h43.38.868,MainFlow,2024.2.4,142.60737620521945,2025-03-09 13h43.53.849249 +0700,
1,15,1,word/wordth0151.png,image/True/img15.png,42,42,0,z,1.6789558999880683,None,0,42,42,42,152.7967525999993,,,,,,,154.30357319998438,153.8158235999872,153.8190789000073,153.8190789000073,154.29713069999707,155.45056199998362,155.45056199998362,z,1.6789558999880683,None,,,,,,,,,,,DM_th,001,2025-03-09_13h43.38.868,MainFlow,2024.2.4,142.60737620521945,2025-03-09 13h43.53.849249 +0700,
1,88,0,word/wordth0881.png,image/False/imgf88.png,43,43,0,x,0.7129457000119146,None,0,43,43,43,157.1361840000027,,,,,,,158.6361176999926,158.14366149998386,158.1470180999895,158.1470180999895,158.63084599998547,159.76666590000968,159.76666590000968,x,0.7129457000119146,None,158.6361176999926,158.6361176999926,,,,,,,,,DM_th,001,2025-03-09_13h43.38.868,MainFlow,2024.2.4,142.60737620521945,2025-03-09 13h43.53.849249 +0700,
1,94,1,word/wordth0941.png,image/True/img94.png,44,44,0,z,0.4877064999891445,None,0,44,44,44,160.48971490000258,,,,,,,161.9756054999889,161.48093699998572,161.4842350000108,161.4842350000108,161.96995259998948,163.08910889999242,163.08910889999242,z,0.4877064999891445,None,161.9756054999889,161.9756054999889,163.08910889999242,,,,,,,,DM_th,001,2025-03-09_13h43.38.868,MainFlow,2024.2.4,142.60737620521945,2025-03-09 13h43.53.849249 +0700,
1,40,0,word/wordth0401.png,image/False/imgf40.png,45,45,0,x,0.5335419000184629,None,0,45,45,45,163.58856239999295,,,,,,,165.09307149998494,164.61081240000203,164.614226900012,164.614226900012,165.08684129998437,166.24034759998904,166.24034759998904,x,0.5335419000184629,None,,,164.614226900012,,,,,,,,DM_th,001,2025-03-09_13h43.38.868,MainFlow,2024.2.4,142.60737620521945,2025-03-09 13h43.53.849249 +0700,
1,41,0,word/wordth0411.png,image/False/imgf41.png,46,46,0,x,0.606236199993873,None,0,46,46,46,166.78024130000267,,,,,,,168.27309299999615,167.77774299998418,167.78068249998614,167.78068249998614,168.2684745999868,169.363861299993,169.363861299993,x,0.606236199993873,None,168.27309299999615,168.27309299999615,169.363861299993,,,,,,,,DM_th,001,2025-03-09_13h43.38.868,MainFlow,2024.2.4,142.60737620521945,2025-03-09 13h43.53.849249 +0700,
1,7,1,word/wordth0071.png,image/True/img07.png,47,47,0,z,0.8087322000064887,None,0,47,47,47,169.98092349999934,,,,,,,171.48094499998842,170.982637899986,170.98582890001126,170.98582890001126,171.47530439999537,172.62094689998776,172.62094689998776,z,0.8087322000064887,None,171.48094499998842,171.48094499998842,,,,,,,,,DM_th,001,2025-03-09_13h43.38.868,MainFlow,2024.2.4,142.60737620521945,2025-03-09 13h43.53.849249 +0700,
1,60,0,word/wordth0601.png,image/False/imgf60.png,48,48,0,x,0.6578334999794606,None,0,48,48,48,173.43859229999362,,,,,,,174.93161589998635,174.43389939999906,174.43738160000066,174.43738160000066,174.92655390000436,176.05125170000247,176.05125170000247,x,0.6578334999794606,None,174.93161589998635,174.93161589998635,176.05125170000247,,,,,,,,DM_th,001,2025-03-09_13h43.38.868,MainFlow,2024.2.4,142.60737620521945,2025-03-09 13h43.53.849249 +0700,
1,23,0,word/wordth0231.png,image/False/imgf23.png,49,49,0,x,0.6392741000163369,None,0,49,49,49,176.71567380000488,,,,,,,178.222580200003,177.72707259998424,177.7304055999848,177.7304055999848,178.21633779999684,179.35727330000373,179.35727330000373,x,0.6392741000163369,None,,,,,,,,,,,DM_th,001,2025-03-09_13h43.38.868,MainFlow,2024.2.4,142.60737620521945,2025-03-09 13h43.53.849249 +0700,
1,68,0,word/wordth0681.png,image/False/imgf68.png,50,50,0,x,0.36377169998013414,None,0,50,50,50,180.00933159998385,,,,,,,181.4995229000051,181.00166680000257,181.0053488999838,181.0053488999838,181.4937445000105,182.58499639999354,182.58499639999354,x,0.36377169998013414,None,181.4995229000051,181.4995229000051,182.58499639999354,,,,,,,,DM_th,001,2025-03-09_13h43.38.868,MainFlow,2024.2.4,142.60737620521945,2025-03-09 13h43.53.849249 +0700,
1,26,1,word/wordth0261.png,image/True/img26.png,51,51,0,z,0.7857069000019692,None,0,51,51,51,182.95759509998607,,,,,,,184.4505296999996,183.95529670000542,183.95817100000568,183.95817100000568,184.44530349998968,185.62615319999168,185.62615319999168,z,0.7857069000019692,None,184.4505296999996,184.4505296999996,185.62615319999168,,,,,,,,DM_th,001,2025-03-09_13h43.38.868,MainFlow,2024.2.4,142.60737620521945,2025-03-09 13h43.53.849249 +0700,
1,89,0,word/wordth0891.png,image/False/imgf89.png,52,52,0,x,0.6228282000229228,None,0,52,52,52,186.42211049998878,,,,,,,187.9081986999954,187.41584000000148,187.4188954999845,187.4188954999845,187.9022866000014,189.01204309999594,189.01204309999594,x,0.6228282000229228,None,187.9081986999954,187.9081986999954,189.01204309999594,,,,,,,,DM_th,001,2025-03-09_13h43.38.868,MainFlow,2024.2.4,142.60737620521945,2025-03-09 13h43.53.849249 +0700,
1,3,0,word/wordth0031.png,image/False/imgf03.png,53,53,0,x,0.5772744000132661,None,0,53,53,53,189.6437656999915,,,,,,,191.14366309999605,190.64994659999502,190.65284809999866,190.65284809999866,191.13790949998656,192.2528813999961,192.2528813999961,x,0.5772744000132661,None,191.14366309999605,191.14366309999605,,,,,,,,,DM_th,001,2025-03-09_13h43.38.868,MainFlow,2024.2.4,142.60737620521945,2025-03-09 13h43.53.849249 +0700,
1,55,1,word/wordth0551.png,image/True/img55.png,54,54,0,z,0.8628488999966066,None,0,54,54,54,192.837577600003,,,,,,,194.32349270000122,193.83061229999294,193.83379559998866,193.83379559998866,194.31784919998609,195.45572060000268,195.45572060000268,z,0.8628488999966066,None,194.32349270000122,194.32349270000122,195.45572060000268,,,,,,,,DM_th,001,2025-03-09_13h43.38.868,MainFlow,2024.2.4,142.60737620521945,2025-03-09 13h43.53.849249 +0700,
1,46,1,word/wordth0461.png,image/True/img46.png,55,55,0,z,0.6656403999950271,None,0,55,55,55,196.3299238999898,,,,,,,197.82295969998813,197.32705689998693,197.33045179999317,197.33045179999317,197.81733699998586,198.9668754999875,198.9668754999875,z,0.6656403999950271,None,197.82295969998813,197.82295969998813,198.9668754999875,,,,,,,,DM_th,001,2025-03-09_13h43.38.868,MainFlow,2024.2.4,142.60737620521945,2025-03-09 13h43.53.849249 +0700,
1,1,1,word/wordth0011.png,image/True/img01.png,56,56,0,z,1.0313143999956083,None,0,56,56,56,199.64488889998756,,,,,,,201.14163009999902,200.64647619999596,200.64926219999325,200.64926219999325,201.13597989999107,202.29122300000745,202.29122300000745,z,1.0313143999956083,None,201.14163009999902,201.14163009999902,202.29122300000745,,,,,,,,DM_th,001,2025-03-09_13h43.38.868,MainFlow,2024.2.4,142.60737620521945,2025-03-09 13h43.53.849249 +0700,
1,3,1,word/wordth0031.png,image/True/img03.png,57,57,0,z,0.6067279000126291,None,0,57,57,57,203.33151290001115,,,,,,,204.82854889999726,204.3309578000044,204.3343879999884,204.3343879999884,204.82362139999168,205.97129719998338,205.97129719998338,z,0.6067279000126291,None,204.82854889999726,204.82854889999726,205.97129719998338,,,,,,,,DM_th,001,2025-03-09_13h43.38.868,MainFlow,2024.2.4,142.60737620521945,2025-03-09 13h43.53.849249 +0700,
1,76,1,word/wordth0761.png,image/True/img76.png,58,58,0,z,0.7585334999894258,None,0,58,58,58,206.584952300007,,,,,,,208.08475049998378,207.58702159998938,207.59008140000515,207.59008140000515,208.07887329999357,209.19729300000472,209.19729300000472,z,0.7585334999894258,None,208.08475049998378,208.08475049998378,,,,,,,,,DM_th,001,2025-03-09_13h43.38.868,MainFlow,2024.2.4,142.60737620521945,2025-03-09 13h43.53.849249 +0700,
1,52,0,word/wordth0521.png,image/False/imgf52.png,59,59,0,x,0.7263339000055566,None,0,59,59,59,209.96720159999677,,,,,,,211.47332260000985,210.97607289999723,210.9791094000102,210.9791094000102,211.46672759999637,212.58887000000686,212.58887000000686,x,0.7263339000055566,None,,,210.9791094000102,,,,,,,,DM_th,001,2025-03-09_13h43.38.868,MainFlow,2024.2.4,142.60737620521945,2025-03-09 13h43.53.849249 +0700,
1,14,0,word/wordth0141.png,image/False/imgf14.png,60,60,0,x,0.7419564000156242,None,0,60,60,60,213.32668019999983,,,,,,,214.81966219999595,214.32553579998785,214.32894999999553,214.32894999999553,214.81393189998926,215.96013839999796,215.96013839999796,x,0.7419564000156242,None,214.81966219999595,214.81966219999595,215.96013839999796,,,,,,,,DM_th,001,2025-03-09_13h43.38.868,MainFlow,2024.2.4,142.60737620521945,2025-03-09 13h43.53.849249 +0700,
1,61,1,word/wordth0611.png,image/True/img61.png,61,61,0,z,0.7871662999968976,None,0,61,61,61,216.7079926999868,,,,,,,218.20776670001214,217.712849500007,217.71579809999093,217.71579809999093,218.202334600006,219.32042390000424,219.32042390000424,z,0.7871662999968976,None,218.20776670001214,218.20776670001214,,,,,,,,,DM_th,001,2025-03-09_13h43.38.868,MainFlow,2024.2.4,142.60737620521945,2025-03-09 13h43.53.849249 +0700,
1,93,0,word/wordth0931.png,image/False/imgf93.png,62,62,0,x,1.8556918000103906,None,0,62,62,62,220.12005950001185,,,,,,,221.6238580000063,221.13594690000173,221.13919849999365,221.13919849999365,221.61774389998754,222.71910039999057,222.71910039999057,x,1.8556918000103906,None,,,,,,,,,,,DM_th,001,2025-03-09_13h43.38.868,MainFlow,2024.2.4,142.60737620521945,2025-03-09 13h43.53.849249 +0700,
1,37,1,word/wordth0371.png,image/True/img37.png,63,63,0,z,0.6809716999996454,None,0,63,63,63,224.5816261,,,,,,,226.07422010001028,225.57931629999075,225.58226689998992,225.58226689998992,226.06832689998555,227.2467905000085,227.2467905000085,z,0.6809716999996454,None,226.07422010001028,226.07422010001028,227.2467905000085,,,,,,,,DM_th,001,2025-03-09_13h43.38.868,MainFlow,2024.2.4,142.60737620521945,2025-03-09 13h43.53.849249 +0700,
1,79,0,word/wordth0791.png,image/False/imgf79.png,64,64,0,x,1.7310257999924943,None,0,64,64,64,227.93542520000483,,,,,,,229.44181640000897,228.95557059999555,228.95878990000347,228.95878990000347,229.43569469999056,230.57952790000127,230.57952790000127,x,1.7310257999924943,None,,,,,,,,,,,DM_th,001,2025-03-09_13h43.38.868,MainFlow,2024.2.4,142.60737620521945,2025-03-09 13h43.53.849249 +0700,
1,37,0,word/wordth0371.png,image/False/imgf37.png,65,65,0,x,0.7332399000006262,None,0,65,65,65,232.32295750000048,,,,,,,233.8159963999933,233.31826219998766,233.32183239998994,233.32183239998994,233.81074059999082,234.96685940001043,234.96685940001043,x,0.7332399000006262,None,233.8159963999933,233.8159963999933,234.96685940001043,,,,,,,,DM_th,001,2025-03-09_13h43.38.868,MainFlow,2024.2.4,142.60737620521945,2025-03-09 13h43.53.849249 +0700,
1,3,1,word/wordth0031.png,image/True/img03.png,66,66,0,z,0.47508210001979023,None,0,66,66,66,235.71139059998677,,,,,,,237.21103539998876,236.71369149998645,236.71743560000323,236.71743560000323,237.20536630001152,238.32798830000684,238.32798830000684,z,0.47508210001979023,None,237.21103539998876,237.21103539998876,,,,,,,,,DM_th,001,2025-03-09_13h43.38.868,MainFlow,2024.2.4,142.60737620521945,2025-03-09 13h43.53.849249 +0700,
1,93,0,word/wordth0931.png,image/False/imgf93.png,67,67,0,x,0.9103865000070073,None,0,67,67,67,238.814816099999,,,,,,,240.31477199998335,239.8189163999923,239.82273039998836,239.82273039998836,240.3097437999968,241.4065632999991,241.4065632999991,x,0.9103865000070073,None,240.31477199998335,240.31477199998335,,,,,,,,,DM_th,001,2025-03-09_13h43.38.868,MainFlow,2024.2.4,142.60737620521945,2025-03-09 13h43.53.849249 +0700,
1,30,1,word/wordth0301.png,image/True/img30.png,68,68,0,z,1.1666937999834772,None,0,68,68,68,242.3280769000121,,,,,,,243.82800529999076,243.33098020000034,243.3346223999979,243.3346223999979,243.82208119999268,244.94734489999246,244.94734489999246,z,1.1666937999834772,None,243.82800529999076,243.82800529999076,,,,,,,,,DM_th,001,2025-03-09_13h43.38.868,MainFlow,2024.2.4,142.60737620521945,2025-03-09 13h43.53.849249 +0700,
1,46,0,word/wordth0461.png,image/False/imgf46.png,69,69,0,x,1.1230499999946915,None,0,69,69,69,246.12642640000558,,,,,,,247.61902980000013,247.12321019999217,247.1266789000074,247.1266789000074,247.61383109999588,248.75265700000455,248.75265700000455,x,1.1230499999946915,None,247.61902980000013,247.61902980000013,248.75265700000455,,,,,,,,DM_th,001,2025-03-09_13h43.38.868,MainFlow,2024.2.4,142.60737620521945,2025-03-09 13h43.53.849249 +0700,
1,27,0,word/wordth0271.png,image/False/imgf27.png,70,70,0,x,0.8148344999935944,None,0,70,70,70,249.88501900000847,,,,,,,251.38911359998747,250.89451169999666,250.89780279999832,250.89780279999832,251.3826579999877,252.50616920000175,252.50616920000175,x,0.8148344999935944,None,,,250.89780279999832,,,,,,,,DM_th,001,2025-03-09_13h43.38.868,MainFlow,2024.2.4,142.60737620521945,2025-03-09 13h43.53.849249 +0700,
1,37,1,word/wordth0371.png,image/True/img37.png,71,71,0,z,0.9127983000071254,None,0,71,71,71,253.33276739998837,,,,,,,254.8258582999988,254.32868060001056,254.33211369998753,254.33211369998753,254.81996439999784,255.96856390000903,255.96856390000903,z,0.9127983000071254,None,254.8258582999988,254.8258582999988,255.96856390000903,,,,,,,,DM_th,001,2025-03-09_13h43.38.868,MainFlow,2024.2.4,142.60737620521945,2025-03-09 13h43.53.849249 +0700,
1,20,1,word/wordth0201.png,image/True/img20.png,72,72,0,z,1.2420656000031158,None,0,72,72,72,256.8877664000029,,,,,,,258.3875585999922,257.89058760000626,257.89408510000794,257.89408510000794,258.38214249999146,259.5129805000033,259.5129805000033,z,1.2420656000031158,None,258.3875585999922,258.3875585999922,,,,,,,,,DM_th,001,2025-03-09_13h43.38.868,MainFlow,2024.2.4,142.60737620521945,2025-03-09 13h43.53.849249 +0700,
1,17,1,word/wordth0171.png,image/True/img17.png,73,73,0,z,0.7479795999825001,None,0,73,73,73,260.7618936999934,,,,,,,262.2687760000117,261.7768788000103,261.7801213999919,261.7801213999919,262.26253670000006,263.4027463000093,263.4027463000093,z,0.7479795999825001,None,,,,,,,,,,,DM_th,001,2025-03-09_13h43.38.868,MainFlow,2024.2.4,142.60737620521945,2025-03-09 13h43.53.849249 +0700,
1,10,0,word/wordth0101.png,image/False/imgf10.png,74,74,0,x,0.9067993999924511,None,0,74,74,74,264.15718670000206,,,,,,,265.66411409998545,265.17216099999496,265.17528900000616,265.17528900000616,265.6578370000061,266.77669550001156,266.77669550001156,x,0.9067993999924511,None,,,,,,,,,,,DM_th,001,2025-03-09_13h43.38.868,MainFlow,2024.2.4,142.60737620521945,2025-03-09 13h43.53.849249 +0700,
1,68,1,word/wordth0681.png,image/True/img68.png,75,75,0,z,0.754845599993132,None,0,75,75,75,267.6937714999949,,,,,,,269.1908301000076,268.69297659999575,268.6963541999867,268.6963541999867,269.18481479998445,270.26855370000703,270.26855370000703,z,0.754845599993132,None,269.1908301000076,269.1908301000076,270.26855370000703,,,,,,,,DM_th,001,2025-03-09_13h43.38.868,MainFlow,2024.2.4,142.60737620521945,2025-03-09 13h43.53.849249 +0700,
1,82,0,word/wordth0821.png,image/False/imgf82.png,76,76,0,x,1.3023485000012442,None,0,76,76,76,271.0327932999935,,,,,,,272.53760780001176,272.0452854000032,272.04847839998547,272.04847839998547,272.53152670001145,273.6709511000081,273.6709511000081,x,1.3023485000012442,None,,,,,,,,,,,DM_th,001,2025-03-09_13h43.38.868,MainFlow,2024.2.4,142.60737620521945,2025-03-09 13h43.53.849249 +0700,
1,42,1,word/wordth0421.png,image/True/img42.png,77,77,0,z,0.6853278999915347,None,0,77,77,77,274.9842055999907,,,,,,,276.4812288999965,275.98375330001,275.9870649999939,275.9870649999939,276.47556059999624,277.599870999984,277.599870999984,z,0.6853278999915347,None,276.4812288999965,276.4812288999965,277.599870999984,,,,,,,,DM_th,001,2025-03-09_13h43.38.868,MainFlow,2024.2.4,142.60737620521945,2025-03-09 13h43.53.849249 +0700,
1,59,1,word/wordth0591.png,image/True/img59.png,78,78,0,z,1.5958988000056706,None,0,78,78,78,278.293388399994,,,,,,,279.77935289999004,279.285011400003,279.28800780000165,279.28800780000165,279.7740547999856,280.91369320001104,280.91369320001104,z,1.5958988000056706,None,279.77935289999004,279.77935289999004,280.91369320001104,,,,,,,,DM_th,001,2025-03-09_13h43.38.868,MainFlow,2024.2.4,142.60737620521945,2025-03-09 13h43.53.849249 +0700,
1,18,1,word/wordth0181.png,image/True/img18.png,79,79,0,z,0.4863091000006534,None,0,79,79,79,282.52166639998904,,,,,,,284.0283051999868,283.53577940000105,283.5394132999936,283.5394132999936,284.02201819999027,285.1418883999868,285.1418883999868,z,0.4863091000006534,None,,,,,,,,,,,DM_th,001,2025-03-09_13h43.38.868,MainFlow,2024.2.4,142.60737620521945,2025-03-09 13h43.53.849249 +0700,
1,63,1,word/wordth0631.png,image/True/img63.png,80,80,0,z,0.8807734999863897,None,0,80,80,80,285.63901819998864,,,,,,,287.13895580000826,286.64029809998465,286.6437536999874,286.6437536999874,287.13322889999836,288.2807419000019,288.2807419000019,z,0.8807734999863897,None,287.13895580000826,287.13895580000826,,,,,,,,,DM_th,001,2025-03-09_13h43.38.868,MainFlow,2024.2.4,142.60737620521945,2025-03-09 13h43.53.849249 +0700,
1,40,0,word/wordth0401.png,image/False/imgf40.png,81,81,0,x,0.6806606000172906,None,0,81,81,81,289.17307359998813,,,,,,,290.66602740000235,290.1725760999834,290.17647400000715,290.17647400000715,290.6603316999972,291.7873125000042,291.7873125000042,x,0.6806606000172906,None,290.66602740000235,290.66602740000235,291.7873125000042,,,,,,,,DM_th,001,2025-03-09_13h43.38.868,MainFlow,2024.2.4,142.60737620521945,2025-03-09 13h43.53.849249 +0700,
1,55,0,word/wordth0551.png,image/False/imgf55.png,82,82,0,x,1.9659573000099044,None,0,82,82,82,292.4780211999896,,,,,,,293.9639710999909,293.46929400000954,293.47227550001116,293.47227550001116,293.95805049999035,295.0913063999906,295.0913063999906,x,1.9659573000099044,None,293.9639710999909,293.9639710999909,295.0913063999906,,,,,,,,DM_th,001,2025-03-09_13h43.38.868,MainFlow,2024.2.4,142.60737620521945,2025-03-09 13h43.53.849249 +0700,
1,26,1,word/wordth0261.png,image/True/img26.png,83,83,0,z,0.476460700010648,None,0,83,83,83,297.06927949999226,,,,,,,298.56746630001,298.0748717999959,298.0782743000018,298.0782743000018,298.56231410001055,299.7163287999865,299.7163287999865,z,0.476460700010648,None,298.56746630001,298.56746630001,299.7163287999865,,,,,,,,DM_th,001,2025-03-09_13h43.38.868,MainFlow,2024.2.4,142.60737620521945,2025-03-09 13h43.53.849249 +0700,
1,28,0,word/wordth0281.png,image/False/imgf28.png,84,84,0,z,1.1509055999922566,None,0,84,84,84,300.2020181000116,,,,,,,301.7056653999898,301.21236370000406,301.2152148000023,301.2152148000023,301.6996077999938,302.8320861000102,302.8320861000102,z,1.1509055999922566,None,,,301.2152148000023,,,,,,,,DM_th,001,2025-03-09_13h43.38.868,MainFlow,2024.2.4,142.60737620521945,2025-03-09 13h43.53.849249 +0700,
1,8,0,word/wordth0081.png,image/False/imgf08.png,85,85,0,x,0.7289564000093378,None,0,85,85,85,303.989699400001,,,,,,,305.4825767999864,304.9886795000057,304.99239870000747,304.99239870000747,305.47720059999847,306.59299309999915,306.59299309999915,x,0.7289564000093378,None,305.4825767999864,305.4825767999864,306.59299309999915,,,,,,,,DM_th,001,2025-03-09_13h43.38.868,MainFlow,2024.2.4,142.60737620521945,2025-03-09 13h43.53.849249 +0700,
1,9,1,word/wordth0091.png,image/True/img09.png,86,86,0,z,0.729064399987692,None,0,86,86,86,307.3319388999953,,,,,,,308.82234799998696,308.3254822999879,308.3287190999836,308.3287190999836,308.81708919999073,309.89523739999277,309.89523739999277,z,0.729064399987692,None,308.82234799998696,308.82234799998696,309.89523739999277,,,,,,,,DM_th,001,2025-03-09_13h43.38.868,MainFlow,2024.2.4,142.60737620521945,2025-03-09 13h43.53.849249 +0700,
1,78,1,word/wordth0781.png,image/True/img78.png,87,87,0,z,0.6450236999953631,None,0,87,87,87,310.63661819999106,,,,,,,312.1409535999992,311.6480392999947,311.65150040001026,311.65150040001026,312.1345991999842,313.2664744000067,313.2664744000067,z,0.6450236999953631,None,,,,,,,,,,,DM_th,001,2025-03-09_13h43.38.868,MainFlow,2024.2.4,142.60737620521945,2025-03-09 13h43.53.849249 +0700,
1,1,0,word/wordth0011.png,image/False/imgf01.png,88,88,0,x,0.5758453999878839,None,0,88,88,88,313.92078509999556,,,,,,,315.41137499999604,314.9134886999964,314.91701959999045,314.91701959999045,315.405995899986,316.52975499999593,316.52975499999593,x,0.5758453999878839,None,315.41137499999604,315.41137499999604,316.52975499999593,,,,,,,,DM_th,001,2025-03-09_13h43.38.868,MainFlow,2024.2.4,142.60737620521945,2025-03-09 13h43.53.849249 +0700,
1,71,1,word/wordth0711.png,image/True/img71.png,89,89,0,z,0.8052491999987978,None,0,89,89,89,317.11225499998545,,,,,,,318.6122366999916,318.11587919999147,318.1186172000016,318.1186172000016,318.60696949998965,319.7592835999967,319.7592835999967,z,0.8052491999987978,None,318.6122366999916,318.6122366999916,,,,,,,,,DM_th,001,2025-03-09_13h43.38.868,MainFlow,2024.2.4,142.60737620521945,2025-03-09 13h43.53.849249 +0700,
1,93,1,word/wordth0931.png,image/True/img93.png,90,90,0,z,0.5234987000003457,None,0,90,90,90,320.5767172999913,,,,,,,322.0697012000019,321.5730130999873,321.5766520999896,321.5766520999896,322.0639351999853,323.1730295000016,323.1730295000016,z,0.5234987000003457,None,322.0697012000019,322.0697012000019,323.1730295000016,,,,,,,,DM_th,001,2025-03-09_13h43.38.868,MainFlow,2024.2.4,142.60737620521945,2025-03-09 13h43.53.849249 +0700,
1,78,0,word/wordth0781.png,image/False/imgf78.png,91,91,0,x,1.0696068000106607,None,0,91,91,91,323.70818759998656,,,,,,,325.2080343999842,324.71204109999235,324.71536110001034,324.71536110001034,325.2022026999912,326.3183759000094,326.3183759000094,x,1.0696068000106607,None,325.2080343999842,325.2080343999842,326.3183759000094,,,,,,,,DM_th,001,2025-03-09_13h43.38.868,MainFlow,2024.2.4,142.60737620521945,2025-03-09 13h43.53.849249 +0700,
1,8,0,word/wordth0081.png,image/False/imgf08.png,92,92,0,x,1.464438800001517,None,0,92,92,92,327.3950571999885,,,,,,,328.8947537000058,328.39602499999455,328.39950520001,328.39950520001,328.88930609999807,329.9775808999839,329.9775808999839,x,1.464438800001517,None,328.8947537000058,328.8947537000058,,,,,,,,,DM_th,001,2025-03-09_13h43.38.868,MainFlow,2024.2.4,142.60737620521945,2025-03-09 13h43.53.849249 +0700,
1,9,0,word/wordth0091.png,image/False/imgf09.png,93,93,0,x,0.7150957999983802,None,0,93,93,93,331.4499469999864,,,,,,,332.94266299999435,332.44517580000684,332.44834020000417,332.44834020000417,332.93668099999195,334.04436549998354,334.04436549998354,x,0.7150957999983802,None,332.94266299999435,332.94266299999435,334.04436549998354,,,,,,,,DM_th,001,2025-03-09_13h43.38.868,MainFlow,2024.2.4,142.60737620521945,2025-03-09 13h43.53.849249 +0700,
1,75,1,word/wordth0751.png,image/True/img75.png,94,94,0,z,1.7883275999920443,None,0,94,94,94,334.7685974999913,,,,,,,336.2753445999988,335.78608520000125,335.7894815999898,335.7894815999898,336.26903309999034,337.40078500000527,337.40078500000527,z,1.7883275999920443,None,,,,,,,,,,,DM_th,001,2025-03-09_13h43.38.868,MainFlow,2024.2.4,142.60737620521945,2025-03-09 13h43.53.849249 +0700,
1,95,0,word/wordth0951.png,image/False/imgf95.png,95,95,0,x,0.6028249000082724,None,0,95,95,95,339.1983068000118,,,,,,,340.6842856000003,340.1905121000018,340.1937450999976,340.1937450999976,340.67924490000587,341.81769480000366,341.81769480000366,x,0.6028249000082724,None,340.6842856000003,340.6842856000003,341.81769480000366,,,,,,,,DM_th,001,2025-03-09_13h43.38.868,MainFlow,2024.2.4,142.60737620521945,2025-03-09 13h43.53.849249 +0700,
1,70,1,word/wordth0701.png,image/True/img70.png,96,96,0,z,1.547674300003564,None,0,96,96,96,342.4270424999995,,,,,,,343.9336142000102,343.4376646000019,343.4407563999994,343.4407563999994,343.92726160000893,345.0498943999992,345.0498943999992,z,1.547674300003564,None,,,,,,,,,,,DM_th,001,2025-03-09_13h43.38.868,MainFlow,2024.2.4,142.60737620521945,2025-03-09 13h43.53.849249 +0700,
1,94,0,word/wordth0941.png,image/False/imgf94.png,97,97,0,x,0.7845797000045422,None,0,97,97,97,346.60658709998825,,,,,,,348.0992406999867,347.60573589999694,347.6092253999959,347.6092253999959,348.09330249999766,349.27902479999466,349.27902479999466,x,0.7845797000045422,None,348.0992406999867,348.0992406999867,349.27902479999466,,,,,,,,DM_th,001,2025-03-09_13h43.38.868,MainFlow,2024.2.4,142.60737620521945,2025-03-09 13h43.53.849249 +0700,
1,9,0,word/wordth0091.png,image/False/imgf09.png,98,98,0,x,0.5705973000149243,None,0,98,98,98,350.07116849999875,,,,,,,351.57099509998807,351.0751192999887,351.07858619999024,351.07858619999024,351.56540379999205,352.6513801999972,352.6513801999972,x,0.5705973000149243,None,351.57099509998807,351.57099509998807,,,,,,,,,DM_th,001,2025-03-09_13h43.38.868,MainFlow,2024.2.4,142.60737620521945,2025-03-09 13h43.53.849249 +0700,
1,18,0,word/wordth0181.png,image/False/imgf18.png,99,99,0,x,0.9317428999929689,None,0,99,99,99,353.2322409999906,,,,,,,354.7230452999938,354.2254516000103,354.2286413999973,354.2286413999973,354.7173034999869,355.86709730001166,355.86709730001166,x,0.9317428999929689,None,354.7230452999938,354.7230452999938,355.86709730001166,,,,,,,,DM_th,001,2025-03-09_13h43.38.868,MainFlow,2024.2.4,142.60737620521945,2025-03-09 13h43.53.849249 +0700,
1,28,1,word/wordth0281.png,image/True/img28.png,100,100,0,z,0.6256014999817125,None,0,100,100,100,356.8058597999916,,,,,,,358.2917695000069,357.7966849000077,357.79958759999136,357.79958759999136,358.28602440000395,359.45383089999086,359.45383089999086,z,0.6256014999817125,None,358.2917695000069,358.2917695000069,359.45383089999086,,,,,,,,DM_th,001,2025-03-09_13h43.38.868,MainFlow,2024.2.4,142.60737620521945,2025-03-09 13h43.53.849249 +0700,
1,23,1,word/wordth0231.png,image/True/img23.png,101,101,0,z,0.36507020000135526,None,0,101,101,101,360.0900873999926,,,,,,,361.582873700012,361.08611100001144,361.08940090000397,361.08940090000397,361.5769891999953,362.725683800003,362.725683800003,z,0.36507020000135526,None,361.582873700012,361.582873700012,362.725683800003,,,,,,,,DM_th,001,2025-03-09_13h43.38.868,MainFlow,2024.2.4,142.60737620521945,2025-03-09 13h43.53.849249 +0700,
1,30,0,word/wordth0301.png,image/False/imgf30.png,102,102,0,x,0.5011656999995466,None,0,102,102,102,363.1033319999988,,,,,,,364.5961582000018,364.10171300001093,364.1044866000011,364.1044866000011,364.59060580001096,365.7056276999938,365.7056276999938,x,0.5011656999995466,None,364.5961582000018,364.5961582000018,365.7056276999938,,,,,,,,DM_th,001,2025-03-09_13h43.38.868,MainFlow,2024.2.4,142.60737620521945,2025-03-09 13h43.53.849249 +0700,
1,11,1,word/wordth0111.png,image/True/img11.png,103,103,0,z,1.8598516999918502,None,0,103,103,103,366.2139726000023,,,,,,,367.720834799984,367.23602240000037,367.23953469999833,367.23953469999833,367.71433680001064,368.85244980000425,368.85244980000425,z,1.8598516999918502,None,,,,,,,,,,,DM_th,001,2025-03-09_13h43.38.868,MainFlow,2024.2.4,142.60737620521945,2025-03-09 13h43.53.849249 +0700,
1,75,0,word/wordth0751.png,image/False/imgf75.png,104,104,0,x,0.7338225999847054,None,0,104,104,104,370.7199524999887,,,,,,,372.2127446999948,371.71467990000383,371.7180589000054,371.7180589000054,372.2070545000024,373.33671689999755,373.33671689999755,x,0.7338225999847054,None,372.2127446999948,372.2127446999948,373.33671689999755,,,,,,,,DM_th,001,2025-03-09_13h43.38.868,MainFlow,2024.2.4,142.60737620521945,2025-03-09 13h43.53.849249 +0700,
1,6,0,word/wordth0061.png,image/False/imgf06.png,105,105,0,x,1.2124216000083834,None,0,105,105,105,374.0804219999991,,,,,,,375.5802668000106,375.0884029000008,375.0913978999888,375.0913978999888,375.5749332999985,376.6783632999868,376.6783632999868,x,1.2124216000083834,None,375.5802668000106,375.5802668000106,,,,,,,,,DM_th,001,2025-03-09_13h43.38.868,MainFlow,2024.2.4,142.60737620521945,2025-03-09 13h43.53.849249 +0700,
1,27,1,word/wordth0271.png,image/True/img27.png,106,106,0,z,0.760195200011367,None,0,106,106,106,377.89908110001124,,,,,,,379.39221660001203,378.8927396000072,378.89633779998985,378.89633779998985,379.38618850000785,380.498963799997,380.498963799997,z,0.760195200011367,None,379.39221660001203,379.39221660001203,380.498963799997,,,,,,,,DM_th,001,2025-03-09_13h43.38.868,MainFlow,2024.2.4,142.60737620521945,2025-03-09 13h43.53.849249 +0700,
1,1,1,word/wordth0011.png,image/True/img01.png,107,107,0,z,0.9150883999827784,None,0,107,107,107,381.26654569999664,,,,,,,382.7593111000024,382.26587450000807,382.26939169998514,382.26939169998514,382.75345620000735,383.8935143999988,383.8935143999988,z,0.9150883999827784,None,382.7593111000024,382.7593111000024,383.8935143999988,,,,,,,,DM_th,001,2025-03-09_13h43.38.868,MainFlow,2024.2.4,142.60737620521945,2025-03-09 13h43.53.849249 +0700,
1,44,0,word/wordth0441.png,image/False/imgf44.png,108,108,0,x,0.6699201000155881,None,0,108,108,108,384.81446799999685,,,,,,,386.32137960000546,385.8303387000051,385.8334681999986,385.8334681999986,386.31514200000674,387.4619470000034,387.4619470000034,x,0.6699201000155881,None,,,,,,,,,,,DM_th,001,2025-03-09_13h43.38.868,MainFlow,2024.2.4,142.60737620521945,2025-03-09 13h43.53.849249 +0700,
1,48,0,word/wordth0481.png,image/False/imgf48.png,109,109,0,x,0.6072196000022814,None,0,109,109,109,388.14013429998886,,,,,,,389.62605940000503,389.13357869998435,389.1369357999938,389.1369357999938,389.6201844000025,390.7598674999899,390.7598674999899,x,0.6072196000022814,None,389.62605940000503,389.62605940000503,390.7598674999899,,,,,,,,DM_th,001,2025-03-09_13h43.38.868,MainFlow,2024.2.4,142.60737620521945,2025-03-09 13h43.53.849249 +0700,
1,60,0,word/wordth0601.png,image/False/imgf60.png,110,110,0,x,1.2017556999926455,None,0,110,110,110,391.37584900000365,,,,,,,392.87537809999776,392.37782639998477,392.38145720001194,392.38145720001194,392.8695960000041,393.9880913000088,393.9880913000088,x,1.2017556999926455,None,392.87537809999776,392.87537809999776,,,,,,,,,DM_th,001,2025-03-09_13h43.38.868,MainFlow,2024.2.4,142.60737620521945,2025-03-09 13h43.53.849249 +0700,
1,96,1,word/wordth0961.png,image/True/img96.png,111,111,0,z,0.4960556000005454,None,0,111,111,111,395.2050491000118,,,,,,,396.70806139998604,396.21791619999567,396.22121479999623,396.22121479999623,396.70182039999054,397.8356409999833,397.8356409999833,z,0.4960556000005454,None,,,,,,,,,,,DM_th,001,2025-03-09_13h43.38.868,MainFlow,2024.2.4,142.60737620521945,2025-03-09 13h43.53.849249 +0700,
1,79,0,word/wordth0791.png,image/False/imgf79.png,112,112,0,x,0.6053169000078924,None,0,112,112,112,398.339644599997,,,,,,,399.8326599999855,399.33549910000875,399.338909699989,399.338909699989,399.82742159999907,400.9591886999842,400.9591886999842,x,0.6053169000078924,None,399.8326599999855,399.8326599999855,400.9591886999842,,,,,,,,DM_th,001,2025-03-09_13h43.38.868,MainFlow,2024.2.4,142.60737620521945,2025-03-09 13h43.53.849249 +0700,
1,7,0,word/wordth0071.png,image/False/imgf07.png,113,113,0,x,0.7703095999895595,None,0,113,113,113,401.5775391999923,,,,,,,403.08183730000746,402.58332060000976,402.5870095999853,402.5870095999853,403.0755327999941,404.193715100002,404.193715100002,x,0.7703095999895595,None,,,402.5870095999853,,,,,,,,DM_th,001,2025-03-09_13h43.38.868,MainFlow,2024.2.4,142.60737620521945,2025-03-09 13h43.53.849249 +0700,
1,36,0,word/wordth0361.png,image/False/imgf36.png,114,114,0,x,1.4411139000148978,None,0,114,114,114,404.9703229999868,,,,,,,406.45633799998905,405.9585481999966,405.9615708999918,405.9615708999918,406.4512027000019,407.5900815000059,407.5900815000059,x,1.4411139000148978,None,406.45633799998905,406.45633799998905,407.5900815000059,,,,,,,,DM_th,001,2025-03-09_13h43.38.868,MainFlow,2024.2.4,142.60737620521945,2025-03-09 13h43.53.849249 +0700,
1,71,0,word/wordth0711.png,image/False/imgf71.png,115,115,0,x,0.6664132000005338,None,0,115,115,115,409.04190419998486,,,,,,,410.53870919998735,410.043172900012,410.0465814000054,410.0465814000054,410.53285419999156,411.6991538000002,411.6991538000002,x,0.6664132000005338,None,410.53870919998735,410.53870919998735,411.6991538000002,,,,,,,,DM_th,001,2025-03-09_13h43.38.868,MainFlow,2024.2.4,142.60737620521945,2025-03-09 13h43.53.849249 +0700,
1,20,0,word/wordth0201.png,image/False/imgf20.png,116,116,0,x,0.9998053000017535,None,0,116,116,116,412.37188659998355,,,,,,,413.8576960999926,413.3592282999889,413.36199529998703,413.36199529998703,413.8524936999893,414.99451719998615,414.99451719998615,x,0.9998053000017535,None,413.8576960999926,413.8576960999926,414.99451719998615,,,,,,,,DM_th,001,2025-03-09_13h43.38.868,MainFlow,2024.2.4,142.60737620521945,2025-03-09 13h43.53.849249 +0700,
1,87,1,word/wordth0871.png,image/True/img87.png,117,117,0,z,0.6150060000072699,None,0,117,117,117,416.0030573999975,,,,,,,417.5095627999981,417.0166048000101,417.0195858000079,417.0195858000079,417.5032669999928,418.6317560999887,418.6317560999887,z,0.6150060000072699,None,,,,,,,,,,,DM_th,001,2025-03-09_13h43.38.868,MainFlow,2024.2.4,142.60737620521945,2025-03-09 13h43.53.849249 +0700,
1,50,0,word/wordth0501.png,image/False/imgf50.png,118,118,0,x,2.354764299991075,None,0,118,118,118,419.25471959999413,,,,,,,420.7590449999843,420.26510950000375,420.268121000001,420.268121000001,420.75349209998967,421.88742829998955,421.88742829998955,x,2.354764299991075,None,,,420.268121000001,,,,,,,,DM_th,001,2025-03-09_13h43.38.868,MainFlow,2024.2.4,142.60737620521945,2025-03-09 13h43.53.849249 +0700,
1,18,1,word/wordth0181.png,image/True/img18.png,119,119,0,z,0.606411399989156,None,0,119,119,119,424.2512502000027,,,,,,,425.7440873000014,425.24741730000824,425.2510641999834,425.2510641999834,425.7384358999843,426.83795960000134,426.83795960000134,z,0.606411399989156,None,425.7440873000014,425.7440873000014,426.83795960000134,,,,,,,,DM_th,001,2025-03-09_13h43.38.868,MainFlow,2024.2.4,142.60737620521945,2025-03-09 13h43.53.849249 +0700,
1,71,0,word/wordth0711.png,image/False/imgf71.png,120,120,0,x,0.768059300025925,None,0,120,120,120,427.4521657000005,,,,,,,428.9448151999968,428.4517269000062,428.4551805999945,428.4551805999945,428.939188999997,430.0891593999986,430.0891593999986,x,0.768059300025925,None,428.9448151999968,428.9448151999968,430.0891593999986,,,,,,,,DM_th,001,2025-03-09_13h43.38.868,MainFlow,2024.2.4,142.60737620521945,2025-03-09 13h43.53.849249 +0700,
1,46,1,word/wordth0461.png,image/True/img46.png,121,121,0,z,0.4794529000064358,None,0,121,121,121,430.86838010000065,,,,,,,432.3539334000088,431.8556336000038,431.8585627999855,431.8585627999855,432.34833989999606,433.49453009999706,433.49453009999706,z,0.4794529000064358,None,432.3539334000088,432.3539334000088,433.49453009999706,,,,,,,,DM_th,001,2025-03-09_13h43.38.868,MainFlow,2024.2.4,142.60737620521945,2025-03-09 13h43.53.849249 +0700,
1,10,1,word/wordth0101.png,image/True/img10.png,122,122,0,z,0.6080023999966215,None,0,122,122,122,433.98558259999845,,,,,,,435.4783504999941,434.9852772000013,434.98868209999637,434.98868209999637,435.4726083999849,436.6100088999956,436.6100088999956,z,0.6080023999966215,None,435.4783504999941,435.4783504999941,436.6100088999956,,,,,,,,DM_th,001,2025-03-09_13h43.38.868,MainFlow,2024.2.4,142.60737620521945,2025-03-09 13h43.53.849249 +0700,
1,16,0,word/wordth0161.png,image/False/imgf16.png,123,123,0,x,0.5723386000026949,None,0,123,123,123,437.22796719998587,,,,,,,438.73466980000376,438.2358089000045,438.2394820000045,438.2394820000045,438.72840220000944,439.87533209999674,439.87533209999674,x,0.5723386000026949,None,,,,,,,,,,,DM_th,001,2025-03-09_13h43.38.868,MainFlow,2024.2.4,142.60737620521945,2025-03-09 13h43.53.849249 +0700,
1,15,0,word/wordth0151.png,image/False/imgf15.png,124,124,0,x,0.7586558999901172,None,0,124,124,124,440.45729140000185,,,,,,,441.9562777999963,441.45899559999816,441.462572599994,441.462572599994,441.95069540000986,443.08626029998413,443.08626029998413,x,0.7586558999901172,None,441.9562777999963,441.9562777999963,,,,,,,,,DM_th,001,2025-03-09_13h43.38.868,MainFlow,2024.2.4,142.60737620521945,2025-03-09 13h43.53.849249 +0700,
1,59,0,word/wordth0591.png,image/False/imgf59.png,125,125,0,x,0.8261952000029851,None,0,125,125,125,443.85176650001085,,,,,,,445.34459570000763,444.8510595999833,444.8544525000034,444.8544525000034,445.33948399999645,446.43517000001157,446.43517000001157,x,0.8261952000029851,None,445.34459570000763,445.34459570000763,446.43517000001157,,,,,,,,DM_th,001,2025-03-09_13h43.38.868,MainFlow,2024.2.4,142.60737620521945,2025-03-09 13h43.53.849249 +0700,
1,11,0,word/wordth0111.png,image/False/imgf11.png,126,126,0,x,0.7608690999913961,None,0,126,126,126,447.2709524999955,,,,,,,448.76039599999785,448.2631595999992,448.2664974000072,448.2664974000072,448.7546500999888,449.92395269998815,449.92395269998815,x,0.7608690999913961,None,448.76039599999785,448.76039599999785,449.92395269998815,,,,,,,,DM_th,001,2025-03-09_13h43.38.868,MainFlow,2024.2.4,142.60737620521945,2025-03-09 13h43.53.849249 +0700,
1,75,1,word/wordth0751.png,image/True/img75.png,127,127,0,z,0.973542699997779,None,0,127,127,127,450.69075459998567,,,,,,,452.1904634000093,451.693339999998,451.69717749999836,451.69717749999836,452.18537550000474,453.29686500001117,453.29686500001117,z,0.973542699997779,None,452.1904634000093,452.1904634000093,,,,,,,,,DM_th,001,2025-03-09_13h43.38.868,MainFlow,2024.2.4,142.60737620521945,2025-03-09 13h43.53.849249 +0700,
1,33,1,word/wordth0331.png,image/True/img33.png,128,128,0,z,0.7042914999765344,None,0,128,128,128,454.28018750000047,,,,,,,455.77305160000105,455.2810931999993,455.28416780001135,455.28416780001135,455.7672204999835,456.89703150000423,456.89703150000423,z,0.7042914999765344,None,455.77305160000105,455.77305160000105,456.89703150000423,,,,,,,,DM_th,001,2025-03-09_13h43.38.868,MainFlow,2024.2.4,142.60737620521945,2025-03-09 13h43.53.849249 +0700,
1,66,0,word/wordth0661.png,image/False/imgf66.png,129,129,0,x,0.930798000015784,None,0,129,129,129,457.6149042999896,,,,,,,459.11265319999075,458.6203219000017,458.6238222999964,458.6238222999964,459.1068348000117,460.25352110000676,460.25352110000676,x,0.930798000015784,None,459.11265319999075,459.11265319999075,460.25352110000676,,,,,,,,DM_th,001,2025-03-09_13h43.38.868,MainFlow,2024.2.4,142.60737620521945,2025-03-09 13h43.53.849249 +0700,
1,38,1,word/wordth0381.png,image/True/img38.png,130,130,0,x,0.7782189999998081,None,0,130,130,130,461.1963529000059,,,,,,,462.70223019999685,462.22832890000427,462.23117730001104,462.23117730001104,462.69592239998747,463.82705480000004,463.82705480000004,x,0.7782189999998081,None,,,462.23117730001104,,,,,,,,DM_th,001,2025-03-09_13h43.38.868,MainFlow,2024.2.4,142.60737620521945,2025-03-09 13h43.53.849249 +0700,
1,38,1,word/wordth0381.png,image/True/img38.png,131,131,0,z,0.616438900004141,None,0,131,131,131,464.61220410000533,,,,,,,466.10448989999713,465.6120807999978,465.6153726000048,465.6153726000048,466.09951870000805,467.1989983000094,467.1989983000094,z,0.616438900004141,None,466.10448989999713,466.10448989999713,467.1989983000094,,,,,,,,DM_th,001,2025-03-09_13h43.38.868,MainFlow,2024.2.4,142.60737620521945,2025-03-09 13h43.53.849249 +0700,
1,63,1,word/wordth0631.png,image/True/img63.png,132,132,0,z,0.7097006000112742,None,0,132,132,132,467.82638469999074,,,,,,,469.3191417999915,468.8201386999863,468.82336639999994,468.82336639999994,469.3139116000093,470.4312734999985,470.4312734999985,z,0.7097006000112742,None,469.3191417999915,469.3191417999915,470.4312734999985,,,,,,,,DM_th,001,2025-03-09_13h43.38.868,MainFlow,2024.2.4,142.60737620521945,2025-03-09 13h43.53.849249 +0700,
1,33,0,word/wordth0331.png,image/False/imgf33.png,133,133,0,x,0.6712495999818202,None,0,133,133,133,471.1519968000066,,,,,,,472.6449552999984,472.14752410000074,472.1509803000081,472.1509803000081,472.63963369998964,473.7682311999961,473.7682311999961,x,0.6712495999818202,None,472.6449552999984,472.6449552999984,473.7682311999961,,,,,,,,DM_th,001,2025-03-09_13h43.38.868,MainFlow,2024.2.4,142.60737620521945,2025-03-09 13h43.53.849249 +0700,
1,52,1,word/wordth0521.png,image/True/img52.png,134,134,0,z,0.956694399996195,None,0,134,134,134,474.449970799993,,,,,,,475.94307929999195,475.4447813000006,475.4482001999859,475.4482001999859,475.9379639000108,477.0737839000067,477.0737839000067,z,0.956694399996195,None,475.94307929999195,475.94307929999195,477.0737839000067,,,,,,,,DM_th,001,2025-03-09_13h43.38.868,MainFlow,2024.2.4,142.60737620521945,2025-03-09 13h43.53.849249 +0700,
1,11,0,word/wordth0111.png,image/False/imgf11.png,135,135,0,x,0.6165850999823306,None,0,135,135,135,478.0412368999969,,,,,,,479.5323860000062,479.03560269999434,479.03894749999745,479.03894749999745,479.52691849999246,480.6697400000121,480.6697400000121,x,0.6165850999823306,None,479.5323860000062,479.5323860000062,480.6697400000121,,,,,,,,DM_th,001,2025-03-09_13h43.38.868,MainFlow,2024.2.4,142.60737620521945,2025-03-09 13h43.53.849249 +0700,
1,1,0,word/wordth0011.png,image/False/imgf01.png,136,136,0,x,0.652927000017371,None,0,136,136,136,481.2957744000014,,,,,,,482.79574549998506,482.2983515000087,482.3019861000066,482.3019861000066,482.79058569998597,483.8998687999847,483.8998687999847,x,0.652927000017371,None,482.79574549998506,482.79574549998506,,,,,,,,,DM_th,001,2025-03-09_13h43.38.868,MainFlow,2024.2.4,142.60737620521945,2025-03-09 13h43.53.849249 +0700,
1,96,0,word/wordth0961.png,image/False/imgf96.png,137,137,0,x,0.7801250000193249,None,0,137,137,137,484.5607239000092,,,,,,,486.05171020000125,485.5570497000008,485.55995709999115,485.55995709999115,486.04570600000443,487.2032075999887,487.2032075999887,x,0.7801250000193249,None,486.05171020000125,486.05171020000125,487.2032075999887,,,,,,,,DM_th,001,2025-03-09_13h43.38.868,MainFlow,2024.2.4,142.60737620521945,2025-03-09 13h43.53.849249 +0700,
1,57,1,word/wordth0571.png,image/True/img57.png,138,138,0,z,0.7523187999904621,None,0,138,138,138,487.9926764999982,,,,,,,489.49560570000904,489.01182730001165,489.0152371999866,489.0152371999866,489.48931810000795,490.62459940000554,490.62459940000554,z,0.7523187999904621,None,,,,,,,,,,,DM_th,001,2025-03-09_13h43.38.868,MainFlow,2024.2.4,142.60737620521945,2025-03-09 13h43.53.849249 +0700,
1,30,1,word/wordth0301.png,image/True/img30.png,139,139,0,z,0.7533570000086911,None,0,139,139,139,491.3868050999881,,,,,,,492.8770050999883,492.3795567000052,492.3827430999954,492.3827430999954,492.8711753000098,493.9786676999938,493.9786676999938,z,0.7533570000086911,None,492.8770050999883,492.8770050999883,493.9786676999938,,,,,,,,DM_th,001,2025-03-09_13h43.38.868,MainFlow,2024.2.4,142.60737620521945,2025-03-09 13h43.53.849249 +0700,
1,41,1,word/wordth0411.png,image/True/img41.png,140,140,0,z,0.7569762000057381,None,0,140,140,140,494.7446544999839,,,,,,,496.23059409999405,495.73746740000206,495.7408664000104,495.7408664000104,496.22547420000774,497.3595923999965,497.3595923999965,z,0.7569762000057381,None,496.23059409999405,496.23059409999405,497.3595923999965,,,,,,,,DM_th,001,2025-03-09_13h43.38.868,MainFlow,2024.2.4,142.60737620521945,2025-03-09 13h43.53.849249 +0700,
1,50,1,word/wordth0501.png,image/True/img50.png,141,141,0,z,0.6620180999743752,None,0,141,141,141,498.1258552999934,,,,,,,499.62577290000627,499.1269334999961,499.130799400009,499.130799400009,499.62001660000533,500.74582839998766,500.74582839998766,z,0.6620180999743752,None,499.62577290000627,499.62577290000627,,,,,,,,,DM_th,001,2025-03-09_13h43.38.868,MainFlow,2024.2.4,142.60737620521945,2025-03-09 13h43.53.849249 +0700,
1,3,0,word/wordth0031.png,image/False/imgf03.png,142,142,0,x,0.8539922999916598,None,0,142,142,142,501.41688999999315,,,,,,,502.90991580000264,502.41096979999566,502.4144161999866,502.4144161999866,502.90469130000565,504.0101704999979,504.0101704999979,x,0.8539922999916598,None,502.90991580000264,502.90991580000264,504.0101704999979,,,,,,,,DM_th,001,2025-03-09_13h43.38.868,MainFlow,2024.2.4,142.60737620521945,2025-03-09 13h43.53.849249 +0700,
1,78,1,word/wordth0781.png,image/True/img78.png,143,143,0,z,0.5289193000062369,None,0,143,143,143,504.87462419999065,,,,,,,506.36733509998885,505.8694789999863,505.8727485999989,505.8727485999989,506.3615470000077,507.48290350000025,507.48290350000025,z,0.5289193000062369,None,506.36733509998885,506.36733509998885,507.48290350000025,,,,,,,,DM_th,001,2025-03-09_13h43.38.868,MainFlow,2024.2.4,142.60737620521945,2025-03-09 13h43.53.849249 +0700,
1,76,0,word/wordth0761.png,image/False/imgf76.png,144,144,0,x,1.103203000006033,None,0,144,144,144,508.01996889998554,,,,,,,509.5058183000074,509.01285389999975,509.0160676999949,509.0160676999949,509.50059750000946,510.6623300999927,510.6623300999927,x,1.103203000006033,None,509.5058183000074,509.5058183000074,510.6623300999927,,,,,,,,DM_th,001,2025-03-09_13h43.38.868,MainFlow,2024.2.4,142.60737620521945,2025-03-09 13h43.53.849249 +0700,
1,6,1,word/wordth0061.png,image/True/img06.png,145,145,0,z,0.6686772000102792,None,0,145,145,145,511.7760863000003,,,,,,,513.2759401999938,512.7778190000099,512.7814383000077,512.7814383000077,513.2706946000108,514.3722569000092,514.3722569000092,z,0.6686772000102792,None,513.2759401999938,513.2759401999938,,,,,,,,,DM_th,001,2025-03-09_13h43.38.868,MainFlow,2024.2.4,142.60737620521945,2025-03-09 13h43.53.849249 +0700,
1,31,0,word/wordth0311.png,image/False/imgf31.png,146,146,0,x,1.7108597000187729,None,0,146,146,146,515.0532410999876,,,,,,,516.5529715000011,516.0549396999995,516.058598100004,516.058598100004,516.547662500001,517.6264976999955,517.6264976999955,x,1.7108597000187729,None,516.5529715000011,516.5529715000011,,,,,,,,,DM_th,001,2025-03-09_13h43.38.868,MainFlow,2024.2.4,142.60737620521945,2025-03-09 13h43.53.849249 +0700,
1,22,0,word/wordth0221.png,image/False/imgf22.png,147,147,0,z,1.830430100002559,None,0,147,147,147,519.3441147999838,,,,,,,520.8368824000063,520.3414125999843,520.344849199988,520.344849199988,520.8311782999954,521.9612003999937,521.9612003999937,z,1.830430100002559,None,520.8368824000063,520.8368824000063,521.9612003999937,,,,,,,,DM_th,001,2025-03-09_13h43.38.868,MainFlow,2024.2.4,142.60737620521945,2025-03-09 13h43.53.849249 +0700,
1,28,0,word/wordth0281.png,image/False/imgf28.png,148,148,0,x,0.7241423999948893,None,0,148,148,148,523.8022112000035,,,,,,,525.2944388999895,524.7968679000041,524.7998023999971,524.7998023999971,525.2891952999926,526.4097626000002,526.4097626000002,x,0.7241423999948893,None,525.2944388999895,525.2944388999895,526.4097626000002,,,,,,,,DM_th,001,2025-03-09_13h43.38.868,MainFlow,2024.2.4,142.60737620521945,2025-03-09 13h43.53.849249 +0700,
1,57,0,word/wordth0571.png,image/False/imgf57.png,149,149,0,x,0.9995081000088248,None,0,149,149,149,527.1412301000091,,,,,,,528.6339117999887,528.1364079999912,528.1400715000054,528.1400715000054,528.6284627999994,529.7777803000063,529.7777803000063,x,0.9995081000088248,None,528.6339117999887,528.6339117999887,529.7777803000063,,,,,,,,DM_th,001,2025-03-09_13h43.38.868,MainFlow,2024.2.4,142.60737620521945,2025-03-09 13h43.53.849249 +0700,
1,7,0,word/wordth0071.png,image/False/imgf07.png,150,150,0,x,0.6376286000013351,None,0,150,150,150,530.7862889000098,,,,,,,532.2791921999888,531.7822401000012,531.7858529000077,531.7858529000077,532.2740628999891,533.3846615999937,533.3846615999937,x,0.6376286000013351,None,532.2791921999888,532.2791921999888,533.3846615999937,,,,,,,,DM_th,001,2025-03-09_13h43.38.868,MainFlow,2024.2.4,142.60737620521945,2025-03-09 13h43.53.849249 +0700,
1,56,1,word/wordth0561.png,image/True/img56.png,151,151,0,z,0.5567291000043042,None,0,151,151,151,534.0287696000014,,,,,,,535.5215782999876,535.0258788999927,535.0293930000043,535.0293930000043,535.5158671000099,536.6242745000054,536.6242745000054,z,0.5567291000043042,None,535.5215782999876,535.5215782999876,536.6242745000054,,,,,,,,DM_th,001,2025-03-09_13h43.38.868,MainFlow,2024.2.4,142.60737620521945,2025-03-09 13h43.53.849249 +0700,
1,6,0,word/wordth0061.png,image/False/imgf06.png,152,152,0,x,0.6202064999961294,None,0,152,152,152,537.1877470999898,,,,,,,538.6808160000073,538.1822204999917,538.1855963999988,538.1855963999988,538.6756917999883,539.7716885000118,539.7716885000118,x,0.6202064999961294,None,538.6808160000073,538.6808160000073,539.7716885000118,,,,,,,,DM_th,001,2025-03-09_13h43.38.868,MainFlow,2024.2.4,142.60737620521945,2025-03-09 13h43.53.849249 +0700,
1,36,0,word/wordth0361.png,image/False/imgf36.png,153,153,0,x,1.0243476000032388,None,0,153,153,153,540.4025458999968,,,,,,,541.9023179000069,541.4041716000065,541.4076560999965,541.4076560999965,541.8963800999918,543.0059218000097,543.0059218000097,x,1.0243476000032388,None,541.9023179000069,541.9023179000069,,,,,,,,,DM_th,001,2025-03-09_13h43.38.868,MainFlow,2024.2.4,142.60737620521945,2025-03-09 13h43.53.849249 +0700,
1,79,1,word/wordth0791.png,image/True/img79.png,154,154,0,z,0.8718873000179883,None,0,154,154,154,544.0409140999836,,,,,,,545.5335501999944,545.0373910999915,545.0408064000076,545.0408064000076,545.5283426000096,546.6804898999981,546.6804898999981,z,0.8718873000179883,None,545.5335501999944,545.5335501999944,546.6804898999981,,,,,,,,DM_th,001,2025-03-09_13h43.38.868,MainFlow,2024.2.4,142.60737620521945,2025-03-09 13h43.53.849249 +0700,
1,52,0,word/wordth0521.png,image/False/imgf52.png,155,155,0,x,0.6819118999992497,None,0,155,155,155,547.5632558999932,,,,,,,549.0535758000042,548.5600584000058,548.5630319000047,548.5630319000047,549.0478567999962,550.1391523999919,550.1391523999919,x,0.6819118999992497,None,549.0535758000042,549.0535758000042,550.1391523999919,,,,,,,,DM_th,001,2025-03-09_13h43.38.868,MainFlow,2024.2.4,142.60737620521945,2025-03-09 13h43.53.849249 +0700,
1,18,0,word/wordth0181.png,image/False/imgf18.png,156,156,0,x,0.742724800016731,None,0,156,156,156,550.831117099995,,,,,,,552.3308004999999,551.8365706999903,551.8403831000032,551.8403831000032,552.3250067000045,553.4281094000034,553.4281094000034,x,0.742724800016731,None,552.3308004999999,552.3308004999999,,,,,,,,,DM_th,001,2025-03-09_13h43.38.868,MainFlow,2024.2.4,142.60737620521945,2025-03-09 13h43.53.849249 +0700,
1,23,1,word/wordth0231.png,image/True/img23.png,157,157,0,z,0.5131184999772813,None,0,157,157,157,554.1777293999912,,,,,,,555.6706997999863,555.1764384999988,555.1799757999834,555.1799757999834,555.6654342999973,556.7837465000048,556.7837465000048,z,0.5131184999772813,None,555.6706997999863,555.6706997999863,556.7837465000048,,,,,,,,DM_th,001,2025-03-09_13h43.38.868,MainFlow,2024.2.4,142.60737620521945,2025-03-09 13h43.53.849249 +0700,
1,61,1,word/wordth0611.png,image/True/img61.png,158,158,0,z,0.44139459999860264,None,0,158,158,158,557.3089276000101,,,,,,,558.7947707999847,558.299792100006,558.30272159999,558.30272159999,558.7893784999906,559.9258449999907,559.9258449999907,z,0.44139459999860264,None,558.7947707999847,558.7947707999847,559.9258449999907,,,,,,,,DM_th,001,2025-03-09_13h43.38.868,MainFlow,2024.2.4,142.60737620521945,2025-03-09 13h43.53.849249 +0700,
1,44,1,word/wordth0441.png,image/True/img44.png,159,159,0,z,0.7740624000143725,None,0,159,159,159,560.3777925999893,,,,,,,561.87746779999,561.3794531000021,561.3828537999943,561.3828537999943,561.8718371999857,562.9836603000003,562.9836603000003,z,0.7740624000143725,None,561.87746779999,561.87746779999,,,,,,,,,DM_th,001,2025-03-09_13h43.38.868,MainFlow,2024.2.4,142.60737620521945,2025-03-09 13h43.53.849249 +0700,
1,10,1,word/wordth0101.png,image/True/img10.png,160,160,0,z,0.5231466999975964,None,0,160,160,160,563.7688133000047,,,,,,,565.2586407999916,564.7642541000096,564.7677041999996,564.7677041999996,565.2526398999908,566.3624486000044,566.3624486000044,z,0.5231466999975964,None,565.2586407999916,565.2586407999916,566.3624486000044,,,,,,,,DM_th,001,2025-03-09_13h43.38.868,MainFlow,2024.2.4,142.60737620521945,2025-03-09 13h43.53.849249 +0700,
1,31,1,word/wordth0311.png,image/True/img31.png,161,161,0,z,0.6000251000223216,None,0,161,161,161,566.8974478000018,,,,,,,568.3972202999867,567.8993691999931,567.9030691999942,567.9030691999942,568.3920622000005,569.5054666000069,569.5054666000069,z,0.6000251000223216,None,568.3972202999867,568.3972202999867,,,,,,,,,DM_th,001,2025-03-09_13h43.38.868,MainFlow,2024.2.4,142.60737620521945,2025-03-09 13h43.53.849249 +0700,
1,14,0,word/wordth0141.png,image/False/imgf14.png,162,162,0,x,0.5363552999915555,None,0,162,162,162,570.1152243000106,,,,,,,571.6048868999933,571.1110325999907,571.1144904000103,571.1144904000103,571.5994132999913,572.7186177000112,572.7186177000112,x,0.5363552999915555,None,571.6048868999933,571.6048868999933,572.7186177000112,,,,,,,,DM_th,001,2025-03-09_13h43.38.868,MainFlow,2024.2.4,142.60737620521945,2025-03-09 13h43.53.849249 +0700,
1,15,0,word/wordth0151.png,image/False/imgf15.png,163,163,0,x,0.5255707999749575,None,0,163,163,163,573.2641528999957,,,,,,,574.7500270000019,574.2552327000012,574.2582566000056,574.2582566000056,574.7443809999968,575.8584679999913,575.8584679999913,x,0.5255707999749575,None,574.7500270000019,574.7500270000019,575.8584679999913,,,,,,,,DM_th,001,2025-03-09_13h43.38.868,MainFlow,2024.2.4,142.60737620521945,2025-03-09 13h43.53.849249 +0700,
1,51,1,word/wordth0511.png,image/True/img51.png,164,164,0,z,0.7092873000074178,None,0,164,164,164,576.3982555000111,,,,,,,577.8952105999924,577.3989553999854,577.4022638000024,577.4022638000024,577.8897788999893,579.0659969999979,579.0659969999979,z,0.7092873000074178,None,577.8952105999924,577.8952105999924,579.0659969999979,,,,,,,,DM_th,001,2025-03-09_13h43.38.868,MainFlow,2024.2.4,142.60737620521945,2025-03-09 13h43.53.849249 +0700,
1,82,1,word/wordth0821.png,image/True/img82.png,165,165,0,x,0.7400351999967825,None,0,165,165,165,579.7839083999861,,,,,,,581.276489299984,580.7829669000057,580.7866461999947,580.7866461999947,581.2706646999868,582.3759302000108,582.3759302000108,x,0.7400351999967825,None,581.276489299984,581.276489299984,582.3759302000108,,,,,,,,DM_th,001,2025-03-09_13h43.38.868,MainFlow,2024.2.4,142.60737620521945,2025-03-09 13h43.53.849249 +0700,
1,27,0,word/wordth0271.png,image/False/imgf27.png,166,166,0,x,0.6658857000002172,None,0,166,166,166,583.1234361999959,,,,,,,584.6162622999982,584.1183521999919,584.121939100005,584.121939100005,584.6110787999933,585.7143675999832,585.7143675999832,x,0.6658857000002172,None,584.6162622999982,584.6162622999982,585.7143675999832,,,,,,,,DM_th,001,2025-03-09_13h43.38.868,MainFlow,2024.2.4,142.60737620521945,2025-03-09 13h43.53.849249 +0700,
1,78,0,word/wordth0781.png,image/False/imgf78.png,167,167,0,x,0.6476428000023589,None,0,167,167,167,586.3868991000054,,,,,,,587.8725689999992,587.379521099996,587.3827884999919,587.3827884999919,587.8668604000122,588.9576264999923,588.9576264999923,x,0.6476428000023589,None,587.8725689999992,587.8725689999992,588.9576264999923,,,,,,,,DM_th,001,2025-03-09_13h43.38.868,MainFlow,2024.2.4,142.60737620521945,2025-03-09 13h43.53.849249 +0700,
1,89,1,word/wordth0891.png,image/True/img89.png,168,168,0,z,0.5969387000077404,None,0,168,168,168,589.6151756999898,,,,,,,591.1151624000049,590.6177578000061,590.6214383000042,590.6214383000042,591.1101129000017,592.2279393000063,592.2279393000063,z,0.5969387000077404,None,591.1151624000049,591.1151624000049,,,,,,,,,DM_th,001,2025-03-09_13h43.38.868,MainFlow,2024.2.4,142.60737620521945,2025-03-09 13h43.53.849249 +0700,
1,76,1,word/wordth0761.png,image/True/img76.png,169,169,0,z,0.9957691000017803,None,0,169,169,169,592.8385721000086,,,,,,,594.3297589999856,593.8369793999882,593.8401501000044,593.8401501000044,594.3245929999975,595.4404057000065,595.4404057000065,z,0.9957691000017803,None,594.3297589999856,594.3297589999856,595.4404057000065,,,,,,,,DM_th,001,2025-03-09_13h43.38.868,MainFlow,2024.2.4,142.60737620521945,2025-03-09 13h43.53.849249 +0700,
1,17,0,word/wordth0171.png,image/False/imgf17.png,170,170,0,x,0.5941871000104584,None,0,170,170,170,596.4471578999946,,,,,,,597.9403330000059,597.4454606999934,597.4483684999868,597.4483684999868,597.9351297999965,599.0821961000038,599.0821961000038,x,0.5941871000104584,None,597.9403330000059,597.9403330000059,599.0821961000038,,,,,,,,DM_th,001,2025-03-09_13h43.38.868,MainFlow,2024.2.4,142.60737620521945,2025-03-09 13h43.53.849249 +0700,
1,95,1,word/wordth0951.png,image/True/img95.png,171,171,0,z,0.4417294999875594,None,0,171,171,171,599.6828014999919,,,,,,,601.175442799984,600.6782157999987,600.6816521000001,600.6816521000001,601.1696256999858,602.3126167999872,602.3126167999872,z,0.4417294999875594,None,601.175442799984,601.175442799984,602.3126167999872,,,,,,,,DM_th,001,2025-03-09_13h43.38.868,MainFlow,2024.2.4,142.60737620521945,2025-03-09 13h43.53.849249 +0700,
1,61,0,word/wordth0611.png,image/False/imgf61.png,172,172,0,x,2.7667939999955706,None,0,172,172,172,602.765329899994,,,,,,,604.2583718000096,603.7628174999845,603.7663802999887,603.7663802999887,604.2531626999844,605.4006136000098,605.4006136000098,x,2.7667939999955706,None,604.2583718000096,604.2583718000096,605.4006136000098,,,,,,,,DM_th,001,2025-03-09_13h43.38.868,MainFlow,2024.2.4,142.60737620521945,2025-03-09 13h43.53.849249 +0700,
1,82,1,word/wordth0821.png,image/True/img82.png,173,173,0,z,0.42068740000831895,None,0,173,173,173,608.1742904999992,,,,,,,609.6738626000006,609.1749359999958,609.1782866999856,609.1782866999856,609.668451400008,610.7495869999984,610.7495869999984,z,0.42068740000831895,None,609.6738626000006,609.6738626000006,,,,,,,,,DM_th,001,2025-03-09_13h43.38.868,MainFlow,2024.2.4,142.60737620521945,2025-03-09 13h43.53.849249 +0700,
1,14,1,word/wordth0141.png,image/True/img14.png,174,174,0,z,0.3673486999759916,None,0,174,174,174,611.1804069000063,,,,,,,612.6733793999883,612.1750378999859,612.1784687000036,612.1784687000036,612.6682152999856,613.7956397999951,613.7956397999951,z,0.3673486999759916,None,612.6733793999883,612.6733793999883,613.7956397999951,,,,,,,,DM_th,001,2025-03-09_13h43.38.868,MainFlow,2024.2.4,142.60737620521945,2025-03-09 13h43.53.849249 +0700,
1,38,0,word/wordth0381.png,image/False/imgf38.png,175,175,0,x,0.9128818000026513,None,0,175,175,175,614.1729143999983,,,,,,,615.6658673000056,615.1697719999938,615.1731595000019,615.1731595000019,615.6601348000113,616.8274022999976,616.8274022999976,x,0.9128818000026513,None,615.6658673000056,615.6658673000056,616.8274022999976,,,,,,,,DM_th,001,2025-03-09_13h43.38.868,MainFlow,2024.2.4,142.60737620521945,2025-03-09 13h43.53.849249 +0700,
1,17,0,word/wordth0171.png,image/False/imgf17.png,176,176,0,z,1.1527625000162516,None,0,176,176,176,617.7485035999853,,,,,,,619.2416310999834,618.7466569000098,618.7505308999971,618.7505308999971,619.2364643999899,620.3613028000109,620.3613028000109,z,1.1527625000162516,None,619.2416310999834,619.2416310999834,620.3613028000109,,,,,,,,DM_th,001,2025-03-09_13h43.38.868,MainFlow,2024.2.4,142.60737620521945,2025-03-09 13h43.53.849249 +0700,
1,42,0,word/wordth0421.png,image/False/imgf42.png,177,177,0,x,0.9929776999924798,None,0,177,177,177,621.5256179999851,,,,,,,623.0185036000039,622.5258233000059,622.529323499999,622.529323499999,623.0126913999848,624.1444300999865,624.1444300999865,x,0.9929776999924798,None,623.0185036000039,623.0185036000039,624.1444300999865,,,,,,,,DM_th,001,2025-03-09_13h43.38.868,MainFlow,2024.2.4,142.60737620521945,2025-03-09 13h43.53.849249 +0700,
1,24,1,word/wordth0241.png,image/True/img24.png,178,178,0,x,0.750421999982791,None,0,178,178,178,625.1455987000081,,,,,,,626.6427219999896,626.1447781999887,626.1480118999898,626.1480118999898,626.6369455000095,627.7187670999847,627.7187670999847,x,0.750421999982791,None,626.6427219999896,626.6427219999896,627.7187670999847,,,,,,,,DM_th,001,2025-03-09_13h43.38.868,MainFlow,2024.2.4,142.60737620521945,2025-03-09 13h43.53.849249 +0700,
1,51,1,word/wordth0511.png,image/True/img51.png,179,179,0,z,0.5202373000211082,None,0,179,179,179,628.4783162999956,,,,,,,629.9756476999901,629.4812603000028,629.484541599988,629.484541599988,629.970642100001,631.0899777000013,631.0899777000013,z,0.5202373000211082,None,629.9756476999901,629.9756476999901,631.0899777000013,,,,,,,,DM_th,001,2025-03-09_13h43.38.868,MainFlow,2024.2.4,142.60737620521945,2025-03-09 13h43.53.849249 +0700,
1,24,0,word/wordth0241.png,image/False/imgf24.png,180,180,0,x,1.288937100005569,None,0,180,180,180,631.6215660999878,,,,,,,633.1278130999999,632.6291778000013,632.6326990000089,632.6326990000089,633.1215731999837,634.224635999999,634.224635999999,x,1.288937100005569,None,,,632.6326990000089,,,,,,,,DM_th,001,2025-03-09_13h43.38.868,MainFlow,2024.2.4,142.60737620521945,2025-03-09 13h43.53.849249 +0700,
1,23,0,word/wordth0231.png,image/False/imgf23.png,181,181,0,x,0.646821500005899,None,0,181,181,181,635.5230215000047,,,,,,,637.0158523999853,636.5199334000063,636.52341970001,636.52341970001,637.0103152999945,638.164159500011,638.164159500011,x,0.646821500005899,None,637.0158523999853,637.0158523999853,638.164159500011,,,,,,,,DM_th,001,2025-03-09_13h43.38.868,MainFlow,2024.2.4,142.60737620521945,2025-03-09 13h43.53.849249 +0700,
1,6,1,word/wordth0061.png,image/True/img06.png,182,182,0,z,0.737691000016639,None,0,182,182,182,638.8215899000061,,,,,,,640.3135979000072,639.8149608999956,639.8182938999962,639.8182938999962,640.3075757999904,641.4062216999882,641.4062216999882,z,0.737691000016639,None,640.3135979000072,640.3135979000072,641.4062216999882,,,,,,,,DM_th,001,2025-03-09_13h43.38.868,MainFlow,2024.2.4,142.60737620521945,2025-03-09 13h43.53.849249 +0700,
1,93,1,word/wordth0931.png,image/True/img93.png,183,183,0,z,0.7901064999750815,None,0,183,183,183,642.1537406999851,,,,,,,643.6534800000081,643.1596862000006,643.1632027000014,643.1632027000014,643.6481345999928,644.738073799992,644.738073799992,z,0.7901064999750815,None,643.6534800000081,643.6534800000081,644.738073799992,,,,,,,,DM_th,001,2025-03-09_13h43.38.868,MainFlow,2024.2.4,142.60737620521945,2025-03-09 13h43.53.849249 +0700,
1,38,0,word/wordth0381.png,image/False/imgf38.png,184,184,0,x,0.5096927999984473,None,0,184,184,184,645.5349388000031,,,,,,,647.0278029000037,646.5314409999992,646.5348590000067,646.5348590000067,647.0221242999833,648.1616987999878,648.1616987999878,x,0.5096927999984473,None,647.0278029000037,647.0278029000037,648.1616987999878,,,,,,,,DM_th,001,2025-03-09_13h43.38.868,MainFlow,2024.2.4,142.60737620521945,2025-03-09 13h43.53.849249 +0700,
1,57,1,word/wordth0571.png,image/True/img57.png,185,185,0,z,0.5408639000088442,None,0,185,185,185,648.6800418999919,,,,,,,650.1729509999859,649.6765474999847,649.679919199989,649.679919199989,650.1672693,651.2854684999911,651.2854684999911,z,0.5408639000088442,None,650.1729509999859,650.1729509999859,651.2854684999911,,,,,,,,DM_th,001,2025-03-09_13h43.38.868,MainFlow,2024.2.4,142.60737620521945,2025-03-09 13h43.53.849249 +0700,
1,40,1,word/wordth0401.png,image/True/img40.png,186,186,0,z,0.6189403999887872,None,0,186,186,186,651.8361358999973,,,,,,,653.3252091000031,652.8264808999957,652.8292233000102,652.8292233000102,653.3131852000079,654.478774999996,654.478774999996,z,0.6189403999887872,None,653.3182199999865,653.3182199999865,654.478774999996,,,,,,,,DM_th,001,2025-03-09_13h43.38.868,MainFlow,2024.2.4,142.60737620521945,2025-03-09 13h43.53.849249 +0700,
1,50,0,word/wordth0501.png,image/False/imgf50.png,187,187,0,x,0.5330711999849882,None,0,187,187,187,655.1094425999909,,,,,,,656.6023806000012,656.1075751000026,656.1112062000029,656.1112062000029,656.5971879999852,657.7046442999854,657.7046442999854,x,0.5330711999849882,None,656.6023806000012,656.6023806000012,657.7046442999854,,,,,,,,DM_th,001,2025-03-09_13h43.38.868,MainFlow,2024.2.4,142.60737620521945,2025-03-09 13h43.53.849249 +0700,
1,66,0,word/wordth0661.png,image/False/imgf66.png,188,188,0,x,0.8086856000008993,None,0,188,188,188,658.2477828999981,,,,,,,659.7476998000056,659.2487785000121,659.2524176999868,659.2524176999868,659.7426999000018,660.8556723000074,660.8556723000074,x,0.8086856000008993,None,659.7476998000056,659.7476998000056,,,,,,,,,DM_th,001,2025-03-09_13h43.38.868,MainFlow,2024.2.4,142.60737620521945,2025-03-09 13h43.53.849249 +0700,
1,44,0,word/wordth0441.png,image/False/imgf44.png,189,189,0,x,0.7341712999914307,None,0,189,189,189,661.6706826000009,,,,,,,663.1636095999856,662.6704070999986,662.6738667000027,662.6738667000027,663.1584175000025,664.2989636999846,664.2989636999846,x,0.7341712999914307,None,663.1636095999856,663.1636095999856,664.2989636999846,,,,,,,,DM_th,001,2025-03-09_13h43.38.868,MainFlow,2024.2.4,142.60737620521945,2025-03-09 13h43.53.849249 +0700,
1,75,0,word/wordth0751.png,image/False/imgf75.png,190,190,0,x,0.722006700001657,None,0,190,190,190,665.0450245999964,,,,,,,666.537940499984,666.0453198000032,666.0486466999864,666.0486466999864,666.5327260000049,667.654463599989,667.654463599989,x,0.722006700001657,None,666.537940499984,666.537940499984,667.654463599989,,,,,,,,DM_th,001,2025-03-09_13h43.38.868,MainFlow,2024.2.4,142.60737620521945,2025-03-09 13h43.53.849249 +0700,
1,31,0,word/wordth0311.png,image/False/imgf31.png,191,191,0,x,0.6253115000145044,None,0,191,191,191,668.3847859000089,,,,,,,669.870628100005,669.3777819999959,669.381031900004,669.381031900004,669.8655222000089,670.9533738000027,670.9533738000027,x,0.6253115000145044,None,669.870628100005,669.870628100005,670.9533738000027,,,,,,,,DM_th,001,2025-03-09_13h43.38.868,MainFlow,2024.2.4,142.60737620521945,2025-03-09 13h43.53.849249 +0700,
1,87,1,word/wordth0871.png,image/True/img87.png,192,192,0,z,1.5720729000167921,None,0,192,192,192,671.5862625000009,,,,,,,673.0783756999881,672.5795057000068,672.5827326999861,672.5827326999861,673.0734387999983,674.196846100007,674.196846100007,z,1.5720729000167921,None,673.0783756999881,673.0783756999881,674.196846100007,,,,,,,,DM_th,001,2025-03-09_13h43.38.868,MainFlow,2024.2.4,142.60737620521945,2025-03-09 13h43.53.849249 +0700,
1,33,1,word/wordth0331.png,image/True/img33.png,193,193,0,z,0.4971691000100691,None,0,193,193,193,675.7791873000097,,,,,,,677.2720861999842,676.7801474999869,676.7829380999901,676.7829380999901,677.2667887999851,678.3993863000069,678.3993863000069,z,0.4971691000100691,None,677.2720861999842,677.2720861999842,678.3993863000069,,,,,,,,DM_th,001,2025-03-09_13h43.38.868,MainFlow,2024.2.4,142.60737620521945,2025-03-09 13h43.53.849249 +0700,
1,70,0,word/wordth0701.png,image/False/imgf70.png,194,194,0,x,0.8712910999893211,None,0,194,194,194,678.9069037000008,,,,,,,680.4034986000042,679.9081054999842,679.9127401000005,679.9127401000005,680.3984248999914,681.5091262999922,681.5091262999922,x,0.8712910999893211,None,680.4034986000042,680.4034986000042,681.5091262999922,,,,,,,,DM_th,001,2025-03-09_13h43.38.868,MainFlow,2024.2.4,142.60737620521945,2025-03-09 13h43.53.849249 +0700,
1,27,1,word/wordth0271.png,image/True/img27.png,195,195,0,z,1.3723382000171114,None,0,195,195,195,682.3889162999985,,,,,,,683.8887090999924,683.3953638999956,683.3991276999877,683.3991276999877,683.8828709000081,684.9879530000035,684.9879530000035,z,1.3723382000171114,None,683.8887090999924,683.8887090999924,,,,,,,,,DM_th,001,2025-03-09_13h43.38.868,MainFlow,2024.2.4,142.60737620521945,2025-03-09 13h43.53.849249 +0700,
1,88,1,word/wordth0881.png,image/True/img88.png,196,196,0,z,0.5730091000150423,None,0,196,196,196,686.3673626999953,,,,,,,687.867130300001,687.3678311000112,687.3715213999967,687.3715213999967,687.8614781000069,689.0177856000082,689.0177856000082,z,0.5730091000150423,None,687.867130300001,687.867130300001,,,,,,,,,DM_th,001,2025-03-09_13h43.38.868,MainFlow,2024.2.4,142.60737620521945,2025-03-09 13h43.53.849249 +0700,
1,87,0,word/wordth0871.png,image/False/imgf87.png,197,197,0,x,0.5453064999892376,None,0,197,197,197,689.6028746000084,,,,,,,691.0958487000025,690.5978079999913,690.6014068000077,690.6014068000077,691.0910034999833,692.2062511999975,692.2062511999975,x,0.5453064999892376,None,691.0958487000025,691.0958487000025,692.2062511999975,,,,,,,,DM_th,001,2025-03-09_13h43.38.868,MainFlow,2024.2.4,142.60737620521945,2025-03-09 13h43.53.849249 +0700,
1,11,1,word/wordth0111.png,image/True/img11.png,198,198,0,z,0.5562608999898657,None,0,198,198,198,692.7620673000056,,,,,,,694.2548417999933,693.7614734999952,693.7647908999934,693.7647908999934,694.2496706999955,695.3965238000092,695.3965238000092,z,0.5562608999898657,None,694.2548417999933,694.2548417999933,695.3965238000092,,,,,,,,DM_th,001,2025-03-09_13h43.38.868,MainFlow,2024.2.4,142.60737620521945,2025-03-09 13h43.53.849249 +0700,
1,61,0,word/wordth0611.png,image/False/imgf61.png,199,199,0,x,0.558690400008345,None,0,199,199,199,695.9656408999872,,,,,,,697.4695691000088,696.9736912999942,696.97728739999,696.97728739999,697.4632944999903,698.5903165999916,698.5903165999916,x,0.558690400008345,None,,,696.97728739999,,,,,,,,DM_th,001,2025-03-09_13h43.38.868,MainFlow,2024.2.4,142.60737620521945,2025-03-09 13h43.53.849249 +0700,
1,15,1,word/wordth0151.png,image/True/img15.png,200,200,0,z,0.47563320002518594,None,0,200,200,200,699.156545100006,,,,,,,700.6562392000051,700.1616616999963,700.1655260999978,700.1655260999978,700.6505319999997,701.7914542999933,701.7914542999933,z,0.47563320002518594,None,700.6562392000051,700.6562392000051,,,,,,,,,DM_th,001,2025-03-09_13h43.38.868,MainFlow,2024.2.4,142.60737620521945,2025-03-09 13h43.53.849249 +0700,
1,16,0,word/wordth0161.png,image/False/imgf16.png,201,201,0,x,0.5109462999971583,None,0,201,201,201,702.273998699995,,,,,,,703.7668486000039,703.2690334999934,703.2723606000072,703.2723606000072,703.7610455999966,704.8997809999855,704.8997809999855,x,0.5109462999971583,None,703.7668486000039,703.7668486000039,704.8997809999855,,,,,,,,DM_th,001,2025-03-09_13h43.38.868,MainFlow,2024.2.4,142.60737620521945,2025-03-09 13h43.53.849249 +0700,
1,63,0,word/wordth0631.png,image/False/imgf63.png,202,202,0,x,0.7557398999924771,None,0,202,202,202,705.4192514999886,,,,,,,706.9194816999952,706.4205188000051,706.423981800006,706.423981800006,706.9147131000063,708.0459090000077,708.0459090000077,x,0.7557398999924771,None,706.9194816999952,706.9194816999952,,,,,,,,,DM_th,001,2025-03-09_13h43.38.868,MainFlow,2024.2.4,142.60737620521945,2025-03-09 13h43.53.849249 +0700,
1,28,1,word/wordth0281.png,image/True/img28.png,203,203,0,z,0.33689720000256784,None,0,203,203,203,708.8074958999932,,,,,,,710.2934507000027,709.7986530000053,709.801513399987,709.801513399987,710.2883003999887,711.4173509000102,711.4173509000102,z,0.33689720000256784,None,710.2934507000027,710.2934507000027,711.4173509000102,,,,,,,,DM_th,001,2025-03-09_13h43.38.868,MainFlow,2024.2.4,142.60737620521945,2025-03-09 13h43.53.849249 +0700,
1,89,1,word/wordth0891.png,image/True/img89.png,204,204,0,z,0.49401890000444837,None,0,204,204,204,711.765289700008,,,,,,,713.2509892999951,712.7553617999947,712.7584351999976,712.7584351999976,713.2451833999949,714.3512005000084,714.3512005000084,z,0.49401890000444837,None,713.2509892999951,713.2509892999951,714.3512005000084,,,,,,,,DM_th,001,2025-03-09_13h43.38.868,MainFlow,2024.2.4,142.60737620521945,2025-03-09 13h43.53.849249 +0700,
1,76,0,word/wordth0761.png,image/False/imgf76.png,205,205,0,x,0.6690272999985609,None,0,205,205,205,714.8548327999888,,,,,,,716.3617407999991,715.8629065999994,715.8667293000035,715.8667293000035,716.3554679999943,717.4992089000007,717.4992089000007,x,0.6690272999985609,None,,,715.8667293000035,,,,,,,,DM_th,001,2025-03-09_13h43.38.868,MainFlow,2024.2.4,142.60737620521945,2025-03-09 13h43.53.849249 +0700,
1,51,0,word/wordth0511.png,image/False/imgf51.png,206,206,0,x,0.5257408999896143,None,0,206,206,206,718.1772663999873,,,,,,,719.6736289999972,719.1805211000028,719.1839021999913,719.1839021999913,719.6683488999843,720.7817319000023,720.7817319000023,x,0.5257408999896143,None,719.6736289999972,719.6736289999972,720.7817319000023,,,,,,,,DM_th,001,2025-03-09_13h43.38.868,MainFlow,2024.2.4,142.60737620521945,2025-03-09 13h43.53.849249 +0700,
1,26,0,word/wordth0261.png,image/False/imgf26.png,207,207,0,x,0.6266134000034072,None,0,207,207,207,721.3188857999921,,,,,,,722.8117759999877,722.3169467999833,722.3202564000094,722.3202564000094,722.807283800008,723.9385596000066,723.9385596000066,x,0.6266134000034072,None,722.8117759999877,722.8117759999877,723.9385596000066,,,,,,,,DM_th,001,2025-03-09_13h43.38.868,MainFlow,2024.2.4,142.60737620521945,2025-03-09 13h43.53.849249 +0700,
1,16,1,word/wordth0161.png,image/True/img16.png,208,208,0,z,0.3477538999868557,None,0,208,208,208,724.5754128999833,,,,,,,726.0681212999916,725.57208730001,725.5755754999991,725.5755754999991,726.0630111999926,727.2103240999859,727.2103240999859,z,0.3477538999868557,None,726.0681212999916,726.0681212999916,727.2103240999859,,,,,,,,DM_th,001,2025-03-09_13h43.38.868,MainFlow,2024.2.4,142.60737620521945,2025-03-09 13h43.53.849249 +0700,
1,64,1,word/wordth0641.png,image/True/img64.png,209,209,0,z,0.812842700019246,None,0,209,209,209,727.5677960999892,,,,,,,729.0605515000061,728.5669811000116,728.5706157000095,728.5706157000095,729.0546912999998,730.1510437999968,730.1510437999968,z,0.812842700019246,None,729.0605515000061,729.0605515000061,730.1510437999968,,,,,,,,DM_th,001,2025-03-09_13h43.38.868,MainFlow,2024.2.4,142.60737620521945,2025-03-09 13h43.53.849249 +0700,
1,7,1,word/wordth0071.png,image/True/img07.png,210,210,0,z,0.561472400004277,None,0,210,210,210,730.9698740000022,,,,,,,732.4627305000031,731.9641424999863,731.9675169000111,731.9675169000111,732.4569803999912,733.595538900001,733.595538900001,z,0.561472400004277,None,732.4627305000031,732.4627305000031,733.595538900001,,,,,,,,DM_th,001,2025-03-09_13h43.38.868,MainFlow,2024.2.4,142.60737620521945,2025-03-09 13h43.53.849249 +0700,
1,10,0,word/wordth0101.png,image/False/imgf10.png,211,211,0,x,1.3165116000163835,None,0,211,211,211,734.1636677999923,,,,,,,735.6634639000113,735.170103899989,735.1739612999954,735.1739612999954,735.6577223000058,736.7794960000028,736.7794960000028,x,1.3165116000163835,None,735.6634639000113,735.6634639000113,,,,,,,,,DM_th,001,2025-03-09_13h43.38.868,MainFlow,2024.2.4,142.60737620521945,2025-03-09 13h43.53.849249 +0700,
1,22,1,word/wordth0221.png,image/True/img22.png,212,212,0,z,0.7761491000128444,None,0,212,212,212,738.1073371999955,,,,,,,739.6073380000016,739.1092745999922,739.1127604999929,739.1127604999929,739.6021595000057,740.7796353999875,740.7796353999875,z,0.7761491000128444,None,739.6073380000016,739.6073380000016,,,,,,,,,DM_th,001,2025-03-09_13h43.38.868,MainFlow,2024.2.4,142.60737620521945,2025-03-09 13h43.53.849249 +0700,
1,40,1,word/wordth0401.png,image/True/img40.png,213,213,0,z,0.34698329999810085,None,0,213,213,213,741.5649182999914,,,,,,,743.0578960999846,742.5651999000111,742.568071799993,742.568071799993,743.0522941999952,744.2135290000006,744.2135290000006,z,0.34698329999810085,None,743.0578960999846,743.0578960999846,744.2135290000006,,,,,,,,DM_th,001,2025-03-09_13h43.38.868,MainFlow,2024.2.4,142.60737620521945,2025-03-09 13h43.53.849249 +0700,
1,57,0,word/wordth0571.png,image/False/imgf57.png,214,214,0,x,2.0404946000198834,None,0,214,214,214,744.571248799999,,,,,,,746.064277700003,745.5670524000016,745.5703811999992,745.5703811999992,746.0590798000048,747.1941418999922,747.1941418999922,x,2.0404946000198834,None,746.064277700003,746.064277700003,747.1941418999922,,,,,,,,DM_th,001,2025-03-09_13h43.38.868,MainFlow,2024.2.4,142.60737620521945,2025-03-09 13h43.53.849249 +0700,
1,50,1,word/wordth0501.png,image/True/img50.png,215,215,0,z,0.43303740001283586,None,0,215,215,215,749.2440528000006,,,,,,,750.7370500999968,750.239723000006,750.242902900005,750.242902900005,750.7314935000031,751.853148299997,751.853148299997,z,0.43303740001283586,None,750.7370500999968,750.7370500999968,751.853148299997,,,,,,,,DM_th,001,2025-03-09_13h43.38.868,MainFlow,2024.2.4,142.60737620521945,2025-03-09 13h43.53.849249 +0700,
1,64,0,word/wordth0641.png,image/False/imgf64.png,216,216,0,x,0.5698017000104301,None,0,216,216,216,752.2922927000036,,,,,,,753.7779862000025,753.2852722000098,753.2884568999871,753.2884568999871,753.7728990000032,754.8611930999905,754.8611930999905,x,0.5698017000104301,None,753.7779862000025,753.7779862000025,754.8611930999905,,,,,,,,DM_th,001,2025-03-09_13h43.38.868,MainFlow,2024.2.4,142.60737620521945,2025-03-09 13h43.53.849249 +0700,
1,42,1,word/wordth0421.png,image/True/img42.png,217,217,0,z,0.7862450999964494,None,0,217,217,217,755.4373800999892,,,,,,,756.9370931999874,756.4389967999887,756.4426759000053,756.4426759000053,756.9316536000115,758.0494816999999,758.0494816999999,z,0.7862450999964494,None,756.9370931999874,756.9370931999874,,,,,,,,,DM_th,001,2025-03-09_13h43.38.868,MainFlow,2024.2.4,142.60737620521945,2025-03-09 13h43.53.849249 +0700,
1,56,0,word/wordth0561.png,image/False/imgf56.png,218,218,0,x,0.6579329000087455,None,0,218,218,218,758.8464327999973,,,,,,,760.3464299000043,759.8472341999877,759.8509937000053,759.8509937000053,760.341499400005,761.4831561000028,761.4831561000028,x,0.6579329000087455,None,760.3464299000043,760.3464299000043,,,,,,,,,DM_th,001,2025-03-09_13h43.38.868,MainFlow,2024.2.4,142.60737620521945,2025-03-09 13h43.53.849249 +0700,
1,22,1,word/wordth0221.png,image/True/img22.png,219,219,0,z,1.2203284999995958,None,0,219,219,219,762.1513988999941,,,,,,,763.6511224999849,763.1565558000002,763.1604210000078,763.1604210000078,763.6454790999996,764.7888220000023,764.7888220000023,z,1.2203284999995958,None,763.6511224999849,763.6511224999849,,,,,,,,,DM_th,001,2025-03-09_13h43.38.868,MainFlow,2024.2.4,142.60737620521945,2025-03-09 13h43.53.849249 +0700,
1,82,0,word/wordth0821.png,image/False/imgf82.png,220,220,0,x,0.622292500018375,None,0,220,220,220,766.0185901999939,,,,,,,767.5114658999955,767.0152820000076,767.0187120999908,767.0187120999908,767.5062106999976,768.6389867000107,768.6389867000107,x,0.622292500018375,None,767.5114658999955,767.5114658999955,768.6389867000107,,,,,,,,DM_th,001,2025-03-09_13h43.38.868,MainFlow,2024.2.4,142.60737620521945,2025-03-09 13h43.53.849249 +0700,
1,54,1,word/wordth0541.png,image/True/img54.png,221,221,0,z,0.5347161999961827,None,0,221,221,221,769.2679799000034,,,,,,,770.760852300009,770.2630576000083,770.2664362000069,770.2664362000069,770.7560051000037,771.9016340000089,771.9016340000089,z,0.5347161999961827,None,770.760852300009,770.760852300009,771.9016340000089,,,,,,,,DM_th,001,2025-03-09_13h43.38.868,MainFlow,2024.2.4,142.60737620521945,2025-03-09 13h43.53.849249 +0700,
1,55,0,word/wordth0551.png,image/False/imgf55.png,222,222,0,x,1.3078106000029948,None,0,222,222,222,772.448009899992,,,,,,,773.9476735999924,773.4491064999893,773.4526217000093,773.4526217000093,773.9421605000098,775.0446365000098,775.0446365000098,x,1.3078106000029948,None,773.9476735999924,773.9476735999924,,,,,,,,,DM_th,001,2025-03-09_13h43.38.868,MainFlow,2024.2.4,142.60737620521945,2025-03-09 13h43.53.849249 +0700,
1,48,1,word/wordth0481.png,image/True/img48.png,223,223,0,z,0.8069615999993403,None,0,223,223,223,776.364063999994,,,,,,,777.8637235999922,777.3655997999886,777.3689489999961,777.3689489999961,777.8585624000116,778.9899686999852,778.9899686999852,z,0.8069615999993403,None,777.8637235999922,777.8637235999922,,,,,,,,,DM_th,001,2025-03-09_13h43.38.868,MainFlow,2024.2.4,142.60737620521945,2025-03-09 13h43.53.849249 +0700,
1,44,1,word/wordth0441.png,image/True/img44.png,224,224,0,z,0.4652916000050027,None,0,224,224,224,779.8077046000108,,,,,,,781.293473400001,780.8012477000011,780.8044234999979,780.8044234999979,781.2877353999938,782.4046345000097,782.4046345000097,z,0.4652916000050027,None,781.293473400001,781.293473400001,782.4046345000097,,,,,,,,DM_th,001,2025-03-09_13h43.38.868,MainFlow,2024.2.4,142.60737620521945,2025-03-09 13h43.53.849249 +0700,
1,87,0,word/wordth0871.png,image/False/imgf87.png,225,225,0,x,0.6945796000072733,None,0,225,225,225,782.8764578000118,,,,,,,784.3694019000104,783.8754990999878,783.8789748999989,783.8789748999989,784.3638378999894,785.4837078999844,785.4837078999844,x,0.6945796000072733,None,784.3694019000104,784.3694019000104,785.4837078999844,,,,,,,,DM_th,001,2025-03-09_13h43.38.868,MainFlow,2024.2.4,142.60737620521945,2025-03-09 13h43.53.849249 +0700,
1,70,1,word/wordth0701.png,image/True/img70.png,226,226,0,z,0.5420189000142273,None,0,226,226,226,786.1882807000075,,,,,,,787.6812144999858,787.1838814000075,787.1872844999889,787.1872844999889,787.675602000003,788.8015488999954,788.8015488999954,z,0.5420189000142273,None,787.6812144999858,787.6812144999858,788.8015488999954,,,,,,,,DM_th,001,2025-03-09_13h43.38.868,MainFlow,2024.2.4,142.60737620521945,2025-03-09 13h43.53.849249 +0700,
1,33,0,word/wordth0331.png,image/False/imgf33.png,227,227,0,x,0.5010020999761764,None,0,227,227,227,789.3552882999938,,,,,,,790.847202600009,790.3507363999961,790.3540928000002,790.3540928000002,790.8414960000082,791.9806409000012,791.9806409000012,x,0.5010020999761764,None,790.847202600009,790.847202600009,791.9806409000012,,,,,,,,DM_th,001,2025-03-09_13h43.38.868,MainFlow,2024.2.4,142.60737620521945,2025-03-09 13h43.53.849249 +0700,
1,52,1,word/wordth0521.png,image/True/img52.png,228,228,0,z,0.6629119999997783,None,0,228,228,228,792.4942391999939,,,,,,,793.9855126999901,793.4918652999913,793.4955824000062,793.4955824000062,793.9800518999982,795.1119648999884,795.1119648999884,z,0.6629119999997783,None,793.9855126999901,793.9855126999901,795.1119648999884,,,,,,,,DM_th,001,2025-03-09_13h43.38.868,MainFlow,2024.2.4,142.60737620521945,2025-03-09 13h43.53.849249 +0700,
1,59,1,word/wordth0591.png,image/True/img59.png,229,229,0,z,0.5471605000202544,None,0,229,229,229,795.7837700000091,,,,,,,797.2834604000091,796.7849349000026,796.7882910000044,796.7882910000044,797.2779451000097,798.3654995000106,798.3654995000106,z,0.5471605000202544,None,797.2834604000091,797.2834604000091,,,,,,,,,DM_th,001,2025-03-09_13h43.38.868,MainFlow,2024.2.4,142.60737620521945,2025-03-09 13h43.53.849249 +0700,
1,56,0,word/wordth0561.png,image/False/imgf56.png,230,230,0,x,0.5836962000175845,None,0,230,230,230,798.9221083000011,,,,,,,800.4150644000038,799.918313400005,799.9218803000113,799.9218803000113,800.409602700005,801.5591075999837,801.5591075999837,x,0.5836962000175845,None,800.4150644000038,800.4150644000038,801.5591075999837,,,,,,,,DM_th,001,2025-03-09_13h43.38.868,MainFlow,2024.2.4,142.60737620521945,2025-03-09 13h43.53.849249 +0700,
1,79,1,word/wordth0791.png,image/True/img79.png,231,231,0,z,0.68580400000792,None,0,231,231,231,802.1505249000038,,,,,,,803.6433635999856,803.1448767000111,803.1480754000077,803.1480754000077,803.6375240999914,804.7724604000105,804.7724604000105,z,0.68580400000792,None,803.6433635999856,803.6433635999856,804.7724604000105,,,,,,,,DM_th,001,2025-03-09_13h43.38.868,MainFlow,2024.2.4,142.60737620521945,2025-03-09 13h43.53.849249 +0700,
