lang,wordid,truestate,worddir,imgdir,thisN,thisTrialN,thisRepN,key_resp.keys,key_resp.rt,key_resp.duration,trials.thisRepN,trials.thisTrialN,trials.thisN,trials.thisIndex,thisRow.t,notes,tutorial.started,tutorial.stopped,key_instruct.keys,key_instruct.rt,key_instruct.duration,plusblank.started,wordshow.started,image.started,plsuer.started,wordshow.stopped,imageword.started,key_resp.started,trials.key_resp.keys,trials.key_resp.rt,trials.key_resp.duration,plusblank.stopped,image.stopped,plsuer.stopped,ending.started,text_3.started,ending_key.started,ending.stopped,ending_key.keys,ending_key.rt,ending_key.duration,participant,session,date,expName,psychopyVersion,frameRate,expStart,
,,,,,,,,,,,,,,,,,0.008218099999794504,1.7069501000000855,space,1.6417826000001696,None,,,,,,,,,,,,,,,,,,,,,GSR_en,001,2025-03-07_11h22.39.146,MainFlow,2024.2.4,102.50176046791483,2025-03-07 11h22.56.146756 +0700,
2,87,0,word/worden0871.png,image/False/imgf87.png,0,0,0,x,2.336511700000301,None,0,0,0,0,1.8514635999999882,,,,,,,3.2160493999999744,2.8050035000001117,2.860519999999724,2.860519999999724,3.2097109999999702,4.531672699999945,4.531672699999945,x,2.336511700000301,None,,,,,,,,,,,GSR_en,001,2025-03-07_11h22.39.146,MainFlow,2024.2.4,102.50176046791483,2025-03-07 11h22.56.146756 +0700,
2,93,0,word/worden0931.png,image/False/imgf93.png,1,1,0,x,1.0300704000001133,None,0,1,1,1,6.877378600000156,,,,,,,8.38184850000016,7.919220400000086,7.9260245999998915,7.9260245999998915,8.375511700000061,9.605868999999984,9.605868999999984,x,1.0300704000001133,None,,,,,,,,,,,GSR_en,001,2025-03-07_11h22.39.146,MainFlow,2024.2.4,102.50176046791483,2025-03-07 11h22.56.146756 +0700,
2,23,0,word/worden0231.png,image/False/imgf23.png,2,2,0,x,3.76791779999985,None,0,2,2,2,10.651946399999815,,,,,,,12.151828499999738,11.694044999999733,11.700677199999973,11.700677199999973,12.145618300000024,13.441820200000166,13.441820200000166,x,3.76791779999985,None,,,,,,,,,,,GSR_en,001,2025-03-07_11h22.39.146,MainFlow,2024.2.4,102.50176046791483,2025-03-07 11h22.56.146756 +0700,
2,10,1,word/worden0101.png,image/True/img10.png,3,3,0,z,0.8822616000002199,None,0,3,3,3,17.223878700000114,,,,,,,18.72677509999994,18.26832979999972,18.27469969999993,18.27469969999993,18.72053619999997,19.957587599999897,19.957587599999897,z,0.8822616000002199,None,,,,,,,,,,,GSR_en,001,2025-03-07_11h22.39.146,MainFlow,2024.2.4,102.50176046791483,2025-03-07 11h22.56.146756 +0700,
2,50,0,word/worden0501.png,image/False/imgf50.png,4,4,0,x,0.8145040000003974,None,0,4,4,4,20.85463299999992,,,,,,,22.35781569999972,21.9004331000001,21.90682740000011,21.90682740000011,22.351520400000027,23.664745199999743,23.664745199999743,x,0.8145040000003974,None,21.90682740000011,,,,,,,,,,GSR_en,001,2025-03-07_11h22.39.146,MainFlow,2024.2.4,102.50176046791483,2025-03-07 11h22.56.146756 +0700,
2,33,1,word/worden0331.png,image/True/img33.png,5,5,0,z,0.5318069999998443,None,0,5,5,5,24.49330740000005,,,,,,,25.99689790000002,25.534551400000055,25.540930600000138,25.540930600000138,25.99003240000002,27.262387299999773,27.262387299999773,z,0.5318069999998443,None,,,,,,,,,,,GSR_en,001,2025-03-07_11h22.39.146,MainFlow,2024.2.4,102.50176046791483,2025-03-07 11h22.56.146756 +0700,
2,95,0,word/worden0951.png,image/False/imgf95.png,6,6,0,x,0.7029524999998102,None,0,6,6,6,27.806350199999997,,,,,,,29.308063500000117,28.840774599999804,28.84733009999991,28.84733009999991,29.301843499999904,30.570083799999793,30.570083799999793,x,0.7029524999998102,None,,,,,,,,,,,GSR_en,001,2025-03-07_11h22.39.146,MainFlow,2024.2.4,102.50176046791483,2025-03-07 11h22.56.146756 +0700,
2,7,0,word/worden0071.png,image/False/imgf07.png,7,7,0,x,0.7711573000001408,None,0,7,7,7,31.279763999999886,,,,,,,32.78678880000007,32.318706999999904,32.32548349999979,32.32548349999979,32.78057889999991,34.05842849999999,34.05842849999999,x,0.7711573000001408,None,,,,,,,,,,,GSR_en,001,2025-03-07_11h22.39.146,MainFlow,2024.2.4,102.50176046791483,2025-03-07 11h22.56.146756 +0700,
2,28,1,word/worden0281.png,image/True/img28.png,8,8,0,z,0.6414144000000306,None,0,8,8,8,34.84493139999995,,,,,,,36.348421000000144,35.8625548,35.86730379999972,35.86730379999972,36.34228639999992,37.65280769999981,37.65280769999981,z,0.6414144000000306,None,35.86730379999972,,,,,,,,,,GSR_en,001,2025-03-07_11h22.39.146,MainFlow,2024.2.4,102.50176046791483,2025-03-07 11h22.56.146756 +0700,
2,38,1,word/worden0381.png,image/True/img38.png,9,9,0,z,0.6533787000003031,None,0,9,9,9,38.31072119999999,,,,,,,39.81319769999982,39.355348499999764,39.361977600000046,39.361977600000046,39.80690259999983,41.05829760000006,41.05829760000006,z,0.6533787000003031,None,,,,,,,,,,,GSR_en,001,2025-03-07_11h22.39.146,MainFlow,2024.2.4,102.50176046791483,2025-03-07 11h22.56.146756 +0700,
2,33,0,word/worden0331.png,image/False/imgf33.png,10,10,0,x,0.5900268999998843,None,0,10,10,10,41.728245700000116,,,,,,,43.235927100000026,42.74396519999982,42.75125389999994,42.75125389999994,43.229839099999936,44.509440899999845,44.509440899999845,x,0.5900268999998843,None,,,,,,,,,,,GSR_en,001,2025-03-07_11h22.39.146,MainFlow,2024.2.4,102.50176046791483,2025-03-07 11h22.56.146756 +0700,
2,76,1,word/worden0761.png,image/True/img76.png,11,11,0,z,0.6058778999999959,None,0,11,11,11,45.114847199999986,,,,,,,46.617213600000014,46.15752599999996,46.163977799999884,46.163977799999884,46.610979600000064,47.87376180000001,47.87376180000001,z,0.6058778999999959,None,,,,,,,,,,,GSR_en,001,2025-03-07_11h22.39.146,MainFlow,2024.2.4,102.50176046791483,2025-03-07 11h22.56.146756 +0700,
2,75,0,word/worden0751.png,image/False/imgf75.png,12,12,0,x,0.750919900000099,None,0,12,12,12,48.48915880000004,,,,,,,49.99159019999979,49.53265099999999,49.5391224,49.5391224,49.98526529999981,51.30921399999988,51.30921399999988,x,0.750919900000099,None,,,,,,,,,,,GSR_en,001,2025-03-07_11h22.39.146,MainFlow,2024.2.4,102.50176046791483,2025-03-07 11h22.56.146756 +0700,
2,7,1,word/worden0071.png,image/True/img07.png,13,13,0,z,0.7184531000002607,None,0,13,13,13,52.072264800000085,,,,,,,53.57409039999993,53.08131090000006,53.08768629999986,53.08768629999986,53.567689699999846,54.81359359999988,54.81359359999988,z,0.7184531000002607,None,,,,,,,,,,,GSR_en,001,2025-03-07_11h22.39.146,MainFlow,2024.2.4,102.50176046791483,2025-03-07 11h22.56.146756 +0700,
2,51,1,word/worden0511.png,image/True/img51.png,14,14,0,z,0.5666722999999365,None,0,14,14,14,55.5422067999998,,,,,,,57.045881799999734,56.58598459999985,56.593121899999915,56.593121899999915,57.039612600000055,58.28591719999986,58.28591719999986,z,0.5666722999999365,None,56.593121899999915,,,,,,,,,,GSR_en,001,2025-03-07_11h22.39.146,MainFlow,2024.2.4,102.50176046791483,2025-03-07 11h22.56.146756 +0700,
2,59,0,word/worden0591.png,image/False/imgf59.png,15,15,0,x,0.42712159999973665,None,0,15,15,15,58.86143589999983,,,,,,,60.36472389999972,59.90401799999972,59.910579699999744,59.910579699999744,60.35850339999979,61.56325169999991,61.56325169999991,x,0.42712159999973665,None,59.910579699999744,,,,,,,,,,GSR_en,001,2025-03-07_11h22.39.146,MainFlow,2024.2.4,102.50176046791483,2025-03-07 11h22.56.146756 +0700,
2,54,0,word/worden0541.png,image/False/imgf54.png,16,16,0,x,0.8494359999999688,None,0,16,16,16,61.99962069999992,,,,,,,63.50304099999994,63.041601699999774,63.04800680000017,63.04800680000017,63.49674389999973,64.74729789999992,64.74729789999992,x,0.8494359999999688,None,63.04800680000017,,,,,,,,,,GSR_en,001,2025-03-07_11h22.39.146,MainFlow,2024.2.4,102.50176046791483,2025-03-07 11h22.56.146756 +0700,
2,6,1,word/worden0061.png,image/True/img06.png,17,17,0,z,0.6777809000000161,None,0,17,17,17,65.61075919999985,,,,,,,67.11322680000012,66.65129500000012,66.6578242999999,66.6578242999999,67.10679840000012,68.33195549999982,68.33195549999982,z,0.6777809000000161,None,,,,,,,,,,,GSR_en,001,2025-03-07_11h22.39.146,MainFlow,2024.2.4,102.50176046791483,2025-03-07 11h22.56.146756 +0700,
2,41,1,word/worden0411.png,image/True/img41.png,18,18,0,z,1.5308094000001802,None,0,18,18,18,69.02219139999988,,,,,,,70.52248269999973,70.05932209999992,70.06660699999975,70.06660699999975,70.51608459999989,71.79408550000016,71.79408550000016,z,1.5308094000001802,None,,,,,,,,,,,GSR_en,001,2025-03-07_11h22.39.146,MainFlow,2024.2.4,102.50176046791483,2025-03-07 11h22.56.146756 +0700,
2,42,0,word/worden0421.png,image/False/imgf42.png,19,19,0,x,0.5461583999999675,None,0,19,19,19,73.3393173999998,,,,,,,74.84098799999992,74.37555780000002,74.38241870000002,74.38241870000002,74.83472799999981,76.09744030000002,76.09744030000002,x,0.5461583999999675,None,,,,,,,,,,,GSR_en,001,2025-03-07_11h22.39.146,MainFlow,2024.2.4,102.50176046791483,2025-03-07 11h22.56.146756 +0700,
2,64,0,word/worden0641.png,image/False/imgf64.png,20,20,0,x,0.7787591999999677,None,0,20,20,20,76.6551101,,,,,,,78.15981349999993,77.69291369999974,77.69985029999998,77.69985029999998,78.15350929999977,79.35017139999991,79.35017139999991,x,0.7787591999999677,None,,,,,,,,,,,GSR_en,001,2025-03-07_11h22.39.146,MainFlow,2024.2.4,102.50176046791483,2025-03-07 11h22.56.146756 +0700,
2,96,1,word/worden0961.png,image/True/img96.png,21,21,0,z,3.053907999999865,None,0,21,21,21,80.14117110000007,,,,,,,81.6451661000001,81.18358949999993,81.19023169999991,81.19023169999991,81.63905669999986,82.9196066999998,82.9196066999998,z,3.053907999999865,None,81.19023169999991,,,,,,,,,,GSR_en,001,2025-03-07_11h22.39.146,MainFlow,2024.2.4,102.50176046791483,2025-03-07 11h22.56.146756 +0700,
2,76,0,word/worden0761.png,image/False/imgf76.png,22,22,0,x,0.6565089999999145,None,0,22,22,22,85.98820049999995,,,,,,,87.4912918,87.0046084999999,87.0110525,87.0110525,87.48501159999978,88.80667979999998,88.80667979999998,x,0.6565089999999145,None,87.0110525,,,,,,,,,,GSR_en,001,2025-03-07_11h22.39.146,MainFlow,2024.2.4,102.50176046791483,2025-03-07 11h22.56.146756 +0700,
2,17,1,word/worden0171.png,image/True/img17.png,23,23,0,z,0.4903074999997443,None,0,23,23,23,89.46979220000003,,,,,,,90.97675329999993,90.50802590000012,90.51472960000001,90.51472960000001,90.97044649999998,92.23208169999998,92.23208169999998,z,0.4903074999997443,None,,,,,,,,,,,GSR_en,001,2025-03-07_11h22.39.146,MainFlow,2024.2.4,102.50176046791483,2025-03-07 11h22.56.146756 +0700,
2,6,1,word/worden0061.png,image/True/img06.png,24,24,0,z,0.7502936999999292,None,0,24,24,24,92.73581349999995,,,,,,,94.23999259999982,93.74743439999975,93.75403449999976,93.75403449999976,94.23393619999979,95.43388789999972,95.43388789999972,z,0.7502936999999292,None,,,,,,,,,,,GSR_en,001,2025-03-07_11h22.39.146,MainFlow,2024.2.4,102.50176046791483,2025-03-07 11h22.56.146756 +0700,
2,88,1,word/worden0881.png,image/True/img88.png,25,25,0,z,0.7040594000000056,None,0,25,25,25,96.19570440000007,,,,,,,97.69764119999991,97.22775379999985,97.23405520000006,97.23405520000006,97.6915383999999,98.9391169999999,98.9391169999999,z,0.7040594000000056,None,,,,,,,,,,,GSR_en,001,2025-03-07_11h22.39.146,MainFlow,2024.2.4,102.50176046791483,2025-03-07 11h22.56.146756 +0700,
2,44,1,word/worden0441.png,image/True/img44.png,26,26,0,z,0.628302099999928,None,0,26,26,26,99.65275049999991,,,,,,,101.15566219999982,100.69830730000012,100.70590889999994,100.70590889999994,101.14930360000017,102.41394579999996,102.41394579999996,z,0.628302099999928,None,,,,,,,,,,,GSR_en,001,2025-03-07_11h22.39.146,MainFlow,2024.2.4,102.50176046791483,2025-03-07 11h22.56.146756 +0700,
2,27,0,word/worden0271.png,image/False/imgf27.png,27,27,0,x,0.5837405000002036,None,0,27,27,27,103.05107300000009,,,,,,,104.55766689999973,104.09146039999996,104.09832520000009,104.09832520000009,104.55135440000004,105.80265109999982,105.80265109999982,x,0.5837405000002036,None,,,,,,,,,,,GSR_en,001,2025-03-07_11h22.39.146,MainFlow,2024.2.4,102.50176046791483,2025-03-07 11h22.56.146756 +0700,
2,14,0,word/worden0141.png,image/False/imgf14.png,28,28,0,x,0.7608582000002571,None,0,28,28,28,106.4000559000001,,,,,,,107.90406080000002,107.42406359999995,107.42884700000013,107.42884700000013,107.89791370000012,109.16721120000011,109.16721120000011,x,0.7608582000002571,None,107.42884700000013,,,,,,,,,,GSR_en,001,2025-03-07_11h22.39.146,MainFlow,2024.2.4,102.50176046791483,2025-03-07 11h22.56.146756 +0700,
2,40,0,word/worden0401.png,image/False/imgf40.png,29,29,0,x,0.5384110999998484,None,0,29,29,29,109.9466223999998,,,,,,,111.45207179999989,110.98901969999997,110.9961803000001,110.9961803000001,111.44580219999989,112.6999480999998,112.6999480999998,x,0.5384110999998484,None,,,,,,,,,,,GSR_en,001,2025-03-07_11h22.39.146,MainFlow,2024.2.4,102.50176046791483,2025-03-07 11h22.56.146756 +0700,
2,1,0,word/worden0011.png,image/False/imgf01.png,30,30,0,x,0.8201613999999608,None,0,30,30,30,113.2548354999999,,,,,,,114.75690940000004,114.30477399999972,114.31123829999979,114.31123829999979,114.75059869999995,115.9991172,115.9991172,x,0.8201613999999608,None,,,,,,,,,,,GSR_en,001,2025-03-07_11h22.39.146,MainFlow,2024.2.4,102.50176046791483,2025-03-07 11h22.56.146756 +0700,
2,3,0,word/worden0031.png,image/False/imgf03.png,31,31,0,x,0.6799915999999939,None,0,31,31,31,116.82870300000013,,,,,,,118.3325721000001,117.87358570000015,117.8802971,117.8802971,118.32645599999978,119.57161309999992,119.57161309999992,x,0.6799915999999939,None,117.8802971,,,,,,,,,,GSR_en,001,2025-03-07_11h22.39.146,MainFlow,2024.2.4,102.50176046791483,2025-03-07 11h22.56.146756 +0700,
2,57,1,word/worden0571.png,image/True/img57.png,32,32,0,z,0.5742961999999352,None,0,32,32,32,120.27028930000006,,,,,,,121.77646139999979,121.30951109999978,121.31601169999976,121.31601169999976,121.77001289999998,123.03646459999982,123.03646459999982,z,0.5742961999999352,None,,,,,,,,,,,GSR_en,001,2025-03-07_11h22.39.146,MainFlow,2024.2.4,102.50176046791483,2025-03-07 11h22.56.146756 +0700,
2,88,0,word/worden0881.png,image/False/imgf88.png,33,33,0,x,0.6468620000000556,None,0,33,33,33,123.6233615000001,,,,,,,125.12983589999976,124.64192319999984,124.64957120000008,124.64957120000008,125.12370610000016,126.37512620000007,126.37512620000007,x,0.6468620000000556,None,,,,,,,,,,,GSR_en,001,2025-03-07_11h22.39.146,MainFlow,2024.2.4,102.50176046791483,2025-03-07 11h22.56.146756 +0700,
2,52,0,word/worden0521.png,image/False/imgf52.png,34,34,0,x,1.1102061000001413,None,0,34,34,34,127.03706729999976,,,,,,,128.53907500000014,128.08047149999993,128.08703960000003,128.08703960000003,128.53298170000016,129.75441079999973,129.75441079999973,x,1.1102061000001413,None,,,,,,,,,,,GSR_en,001,2025-03-07_11h22.39.146,MainFlow,2024.2.4,102.50176046791483,2025-03-07 11h22.56.146756 +0700,
2,50,0,word/worden0501.png,image/False/imgf50.png,35,35,0,x,0.6830583999999362,None,0,35,35,35,130.8751441999998,,,,,,,132.37851769999997,131.8914509000001,131.8988887999999,131.8988887999999,132.37233060000017,133.62444800000003,133.62444800000003,x,0.6830583999999362,None,131.8988887999999,,,,,,,,,,GSR_en,001,2025-03-07_11h22.39.146,MainFlow,2024.2.4,102.50176046791483,2025-03-07 11h22.56.146756 +0700,
2,78,1,word/worden0781.png,image/True/img78.png,36,36,0,z,0.5323834999999235,None,0,36,36,36,134.32175629999983,,,,,,,135.8223321999999,135.36049449999973,135.36701510000012,135.36701510000012,135.81605390000004,137.0535273999999,137.0535273999999,z,0.5323834999999235,None,,,,,,,,,,,GSR_en,001,2025-03-07_11h22.39.146,MainFlow,2024.2.4,102.50176046791483,2025-03-07 11h22.56.146756 +0700,
2,61,0,word/worden0611.png,image/False/imgf61.png,37,37,0,z,2.666046699999697,None,0,37,37,37,137.59751340000003,,,,,,,139.09930299999996,138.64444109999977,138.6518891999999,138.6518891999999,139.09286470000006,140.3739301999999,140.3739301999999,z,2.666046699999697,None,,,,,,,,,,,GSR_en,001,2025-03-07_11h22.39.146,MainFlow,2024.2.4,102.50176046791483,2025-03-07 11h22.56.146756 +0700,
2,36,0,word/worden0361.png,image/False/imgf36.png,38,38,0,x,0.9505062000002908,None,0,38,38,38,143.05418770000006,,,,,,,144.55690379999987,144.09825,144.10484259999976,144.10484259999976,144.55058169999984,145.8138567000001,145.8138567000001,x,0.9505062000002908,None,,,,,,,,,,,GSR_en,001,2025-03-07_11h22.39.146,MainFlow,2024.2.4,102.50176046791483,2025-03-07 11h22.56.146756 +0700,
2,10,1,word/worden0101.png,image/True/img10.png,39,39,0,z,0.5438609999996515,None,0,39,39,39,146.7739446999999,,,,,,,148.27131539999982,147.77696359999982,147.78182650000008,147.78182650000008,148.26634190000004,149.4803078,149.4803078,z,0.5438609999996515,None,149.4803078,148.27131539999982,148.27131539999982,,,,,,,,GSR_en,001,2025-03-07_11h22.39.146,MainFlow,2024.2.4,102.50176046791483,2025-03-07 11h22.56.146756 +0700,
2,75,1,word/worden0751.png,image/True/img75.png,40,40,0,z,1.8547169000003123,None,0,40,40,40,150.03871130000016,,,,,,,151.54146140000012,151.0546948000001,151.06132879999996,151.06132879999996,151.53528019999976,152.79383710000002,152.79383710000002,z,1.8547169000003123,None,,,,,,,,,,,GSR_en,001,2025-03-07_11h22.39.146,MainFlow,2024.2.4,102.50176046791483,2025-03-07 11h22.56.146756 +0700,
2,1,1,word/worden0011.png,image/True/img01.png,41,41,0,z,0.8821714000000611,None,0,41,41,41,154.66238250000015,,,,,,,156.16583579999997,155.67951540000013,155.68610769999987,155.68610769999987,156.15970549999975,157.4428450999999,157.4428450999999,z,0.8821714000000611,None,155.68610769999987,,,,,,,,,,GSR_en,001,2025-03-07_11h22.39.146,MainFlow,2024.2.4,102.50176046791483,2025-03-07 11h22.56.146756 +0700,
2,37,1,word/worden0371.png,image/True/img37.png,42,42,0,z,1.4075479000002815,None,0,42,42,42,158.33638800000017,,,,,,,159.83842679999998,159.3694230000001,159.3778069,159.3778069,159.83221879999974,161.10348059999978,161.10348059999978,z,1.4075479000002815,None,,,,,,,,,,,GSR_en,001,2025-03-07_11h22.39.146,MainFlow,2024.2.4,102.50176046791483,2025-03-07 11h22.56.146756 +0700,
2,66,0,word/worden0661.png,image/False/imgf66.png,43,43,0,x,0.7756989999998041,None,0,43,43,43,162.52881100000013,,,,,,,164.03217360000008,163.574568,163.58105149999983,163.58105149999983,164.02602530000013,165.27008190000015,165.27008190000015,x,0.7756989999998041,None,163.58105149999983,,,,,,,,,,GSR_en,001,2025-03-07_11h22.39.146,MainFlow,2024.2.4,102.50176046791483,2025-03-07 11h22.56.146756 +0700,
2,55,1,word/worden0551.png,image/True/img55.png,44,44,0,z,0.6055220000002919,None,0,44,44,44,166.05719069999986,,,,,,,167.55922610000016,167.09131609999986,167.097761,167.097761,167.5529750999999,168.82428960000016,168.82428960000016,z,0.6055220000002919,None,,,,,,,,,,,GSR_en,001,2025-03-07_11h22.39.146,MainFlow,2024.2.4,102.50176046791483,2025-03-07 11h22.56.146756 +0700,
2,70,0,word/worden0701.png,image/False/imgf70.png,45,45,0,x,0.4995926999999938,None,0,45,45,45,169.4462066000001,,,,,,,170.94736009999997,170.4910749999999,170.4975986999998,170.4975986999998,170.94107059999988,172.15419569999995,172.15419569999995,x,0.4995926999999938,None,,,,,,,,,,,GSR_en,001,2025-03-07_11h22.39.146,MainFlow,2024.2.4,102.50176046791483,2025-03-07 11h22.56.146756 +0700,
2,68,0,word/worden0681.png,image/False/imgf68.png,46,46,0,x,0.9751922000000377,None,0,46,46,46,172.66624649999994,,,,,,,174.16873329999999,173.7068946999998,173.71366110000008,173.71366110000008,174.16232459999992,175.43400889999975,175.43400889999975,x,0.9751922000000377,None,,,,,,,,,,,GSR_en,001,2025-03-07_11h22.39.146,MainFlow,2024.2.4,102.50176046791483,2025-03-07 11h22.56.146756 +0700,
2,75,1,word/worden0751.png,image/True/img75.png,47,47,0,z,0.43298379999987446,None,0,47,47,47,176.42282999999998,,,,,,,177.9252032999998,177.4380129000001,177.44467050000003,177.44467050000003,177.91911690000006,179.15166309999995,179.15166309999995,z,0.43298379999987446,None,,,,,,,,,,,GSR_en,001,2025-03-07_11h22.39.146,MainFlow,2024.2.4,102.50176046791483,2025-03-07 11h22.56.146756 +0700,
2,38,1,word/worden0381.png,image/True/img38.png,48,48,0,z,0.4434241999997539,None,0,48,48,48,179.6025853000001,,,,,,,181.10528470000008,180.6212276000001,180.62860679999994,180.62860679999994,181.09912919999988,182.29681040000014,182.29681040000014,z,0.4434241999997539,None,,,,,,,,,,,GSR_en,001,2025-03-07_11h22.39.146,MainFlow,2024.2.4,102.50176046791483,2025-03-07 11h22.56.146756 +0700,
2,42,1,word/worden0421.png,image/True/img42.png,49,49,0,z,0.4043292000001202,None,0,49,49,49,182.75380799999994,,,,,,,184.25737759999993,183.76191599999993,183.7684863999998,183.7684863999998,184.25124849999975,185.51470179999978,185.51470179999978,z,0.4043292000001202,None,,,,,,,,,,,GSR_en,001,2025-03-07_11h22.39.146,MainFlow,2024.2.4,102.50176046791483,2025-03-07 11h22.56.146756 +0700,
2,11,0,word/worden0111.png,image/False/imgf11.png,50,50,0,x,0.6423472999999831,None,0,50,50,50,185.93553100000008,,,,,,,187.43699779999997,186.97645280000006,186.98399089999975,186.98399089999975,187.43065829999978,188.70922560000008,188.70922560000008,x,0.6423472999999831,None,,,,,,,,,,,GSR_en,001,2025-03-07_11h22.39.146,MainFlow,2024.2.4,102.50176046791483,2025-03-07 11h22.56.146756 +0700,
2,41,0,word/worden0411.png,image/False/imgf41.png,51,51,0,x,0.5831639000002724,None,0,51,51,51,189.36519929999986,,,,,,,190.86715509999976,190.37807500000008,190.38440820000005,190.38440820000005,190.8609637999998,192.02185929999996,192.02185929999996,x,0.5831639000002724,None,,,,,,,,,,,GSR_en,001,2025-03-07_11h22.39.146,MainFlow,2024.2.4,102.50176046791483,2025-03-07 11h22.56.146756 +0700,
2,82,1,word/worden0821.png,image/True/img82.png,52,52,0,z,0.9304677000000083,None,0,52,52,52,192.61940109999978,,,,,,,194.11651619999975,193.65320889999975,193.65978959999984,193.65978959999984,194.1103874999999,195.32698440000013,195.32698440000013,z,0.9304677000000083,None,,,,,,,,,,,GSR_en,001,2025-03-07_11h22.39.146,MainFlow,2024.2.4,102.50176046791483,2025-03-07 11h22.56.146756 +0700,
2,88,0,word/worden0881.png,image/False/imgf88.png,53,53,0,x,0.5574286000000939,None,0,53,53,53,196.2687246999999,,,,,,,197.7756374999999,197.2799240999998,197.28669209999998,197.28669209999998,197.76932350000016,198.97271659999979,198.97271659999979,x,0.5574286000000939,None,,,,,,,,,,,GSR_en,001,2025-03-07_11h22.39.146,MainFlow,2024.2.4,102.50176046791483,2025-03-07 11h22.56.146756 +0700,
2,8,1,word/worden0081.png,image/True/img08.png,54,54,0,z,0.5660006999996767,None,0,54,54,54,199.54297020000013,,,,,,,201.04571099999976,200.58543929999996,200.59332339999992,200.59332339999992,201.03942989999996,202.26425519999975,202.26425519999975,z,0.5660006999996767,None,,,,,,,,,,,GSR_en,001,2025-03-07_11h22.39.146,MainFlow,2024.2.4,102.50176046791483,2025-03-07 11h22.56.146756 +0700,
2,16,0,word/worden0161.png,image/False/imgf16.png,55,55,0,x,0.5600022000003264,None,0,55,55,55,202.8401933,,,,,,,204.34388059999992,203.88363320000008,203.89054829999986,203.89054829999986,204.33743679999998,205.5867945,205.5867945,x,0.5600022000003264,None,203.89054829999986,,,,,,,,,,GSR_en,001,2025-03-07_11h22.39.146,MainFlow,2024.2.4,102.50176046791483,2025-03-07 11h22.56.146756 +0700,
2,10,0,word/worden0101.png,image/False/imgf10.png,56,56,0,x,0.6248552999995809,None,0,56,56,56,206.15820159999976,,,,,,,207.6631056000001,207.16954959999975,207.17616080000016,207.17616080000016,207.65625249999994,208.9387410999998,208.9387410999998,x,0.6248552999995809,None,,,,,,,,,,,GSR_en,001,2025-03-07_11h22.39.146,MainFlow,2024.2.4,102.50176046791483,2025-03-07 11h22.56.146756 +0700,
2,76,0,word/worden0761.png,image/False/imgf76.png,57,57,0,x,0.6513131000001522,None,0,57,57,57,209.5763495000001,,,,,,,211.0785347000001,210.5894705999999,210.59593360000008,210.59593360000008,211.07226949999995,212.33683389999987,212.33683389999987,x,0.6513131000001522,None,,,,,,,,,,,GSR_en,001,2025-03-07_11h22.39.146,MainFlow,2024.2.4,102.50176046791483,2025-03-07 11h22.56.146756 +0700,
2,42,1,word/worden0421.png,image/True/img42.png,58,58,0,z,0.4678783999997904,None,0,58,58,58,213.0010895999999,,,,,,,214.50150970000004,214.01977880000004,214.02735080000002,214.02735080000002,214.49492389999978,215.71283989999984,215.71283989999984,z,0.4678783999997904,None,,,,,,,,,,,GSR_en,001,2025-03-07_11h22.39.146,MainFlow,2024.2.4,102.50176046791483,2025-03-07 11h22.56.146756 +0700,
2,26,0,word/worden0261.png,image/False/imgf26.png,59,59,0,x,0.9372858000001543,None,0,59,59,59,216.19696759999988,,,,,,,217.70219050000014,217.24224090000007,217.2491374000001,217.2491374000001,217.69620200000008,218.95987349999996,218.95987349999996,x,0.9372858000001543,None,,,,,,,,,,,GSR_en,001,2025-03-07_11h22.39.146,MainFlow,2024.2.4,102.50176046791483,2025-03-07 11h22.56.146756 +0700,
2,26,1,word/worden0261.png,image/True/img26.png,60,60,0,z,0.5650818999997682,None,0,60,60,60,219.91382599999997,,,,,,,221.41690149999977,220.92455329999984,220.93123960000003,220.93123960000003,221.41048909999972,222.67376549999972,222.67376549999972,z,0.5650818999997682,None,,,,,,,,,,,GSR_en,001,2025-03-07_11h22.39.146,MainFlow,2024.2.4,102.50176046791483,2025-03-07 11h22.56.146756 +0700,
2,48,1,word/worden0481.png,image/True/img48.png,61,61,0,z,0.5433212000002641,None,0,61,61,61,223.24873350000007,,,,,,,224.74960699999974,224.28932750000013,224.29587519999995,224.29587519999995,224.7439429000001,226.03476390000014,226.03476390000014,z,0.5433212000002641,None,,,,,,,,,,,GSR_en,001,2025-03-07_11h22.39.146,MainFlow,2024.2.4,102.50176046791483,2025-03-07 11h22.56.146756 +0700,
2,71,0,word/worden0711.png,image/False/imgf71.png,62,62,0,x,0.9244250000001557,None,0,62,62,62,226.58874979999973,,,,,,,228.08906960000013,227.6283883000001,227.63579769999978,227.63579769999978,228.082766,229.3947831999999,229.3947831999999,x,0.9244250000001557,None,,,,,,,,,,,GSR_en,001,2025-03-07_11h22.39.146,MainFlow,2024.2.4,102.50176046791483,2025-03-07 11h22.56.146756 +0700,
2,93,1,word/worden0931.png,image/True/img93.png,63,63,0,z,0.7480643000003511,None,0,63,63,63,230.32791240000006,,,,,,,231.83164510000006,231.34490189999997,231.3514667999998,231.3514667999998,231.82537079999975,233.0657409999999,233.0657409999999,z,0.7480643000003511,None,231.3514667999998,,,,,,,,,,GSR_en,001,2025-03-07_11h22.39.146,MainFlow,2024.2.4,102.50176046791483,2025-03-07 11h22.56.146756 +0700,
2,51,1,word/worden0511.png,image/True/img51.png,64,64,0,z,0.5493606,None,0,64,64,64,233.82552910000004,,,,,,,235.33079409999982,234.83584740000015,234.84221669999988,234.84221669999988,235.32473429999982,236.53627749999987,236.53627749999987,z,0.5493606,None,,,,,,,,,,,GSR_en,001,2025-03-07_11h22.39.146,MainFlow,2024.2.4,102.50176046791483,2025-03-07 11h22.56.146756 +0700,
2,78,0,word/worden0781.png,image/False/imgf78.png,65,65,0,x,0.5732874999998785,None,0,65,65,65,237.10109079999984,,,,,,,238.60111300000017,238.1160979000001,238.12253469999996,238.12253469999996,238.59480339999982,239.82890829999997,239.82890829999997,x,0.5732874999998785,None,,,,,,,,,,,GSR_en,001,2025-03-07_11h22.39.146,MainFlow,2024.2.4,102.50176046791483,2025-03-07 11h22.56.146756 +0700,
2,64,0,word/worden0641.png,image/False/imgf64.png,66,66,0,x,0.5712143000000651,None,0,66,66,66,240.41550039999993,,,,,,,241.91978519999975,241.43425049999996,241.4403953000001,241.4403953000001,241.9135652,243.0885312999999,243.0885312999999,x,0.5712143000000651,None,241.4403953000001,,,,,,,,,,GSR_en,001,2025-03-07_11h22.39.146,MainFlow,2024.2.4,102.50176046791483,2025-03-07 11h22.56.146756 +0700,
2,68,1,word/worden0681.png,image/True/img68.png,67,67,0,z,0.5460651999997026,None,0,67,67,67,243.67288000000008,,,,,,,245.17626539999992,244.6919244999999,244.69946889999983,244.69946889999983,245.17011039999988,246.38341050000008,246.38341050000008,z,0.5460651999997026,None,244.69946889999983,,,,,,,,,,GSR_en,001,2025-03-07_11h22.39.146,MainFlow,2024.2.4,102.50176046791483,2025-03-07 11h22.56.146756 +0700,
2,57,0,word/worden0571.png,image/False/imgf57.png,68,68,0,x,0.7486288999998578,None,0,68,68,68,246.94416629999978,,,,,,,248.44644419999986,247.95913359999986,247.96569939999972,247.96569939999972,248.44016199999987,249.7317355,249.7317355,x,0.7486288999998578,None,,,,,,,,,,,GSR_en,001,2025-03-07_11h22.39.146,MainFlow,2024.2.4,102.50176046791483,2025-03-07 11h22.56.146756 +0700,
2,31,0,word/worden0311.png,image/False/imgf31.png,69,69,0,x,1.2868322999997872,None,0,69,69,69,250.49175749999995,,,,,,,251.99426630000016,251.53685259999975,251.54338800000005,251.54338800000005,251.98796429999993,253.19320019999986,253.19320019999986,x,1.2868322999997872,None,,,,,,,,,,,GSR_en,001,2025-03-07_11h22.39.146,MainFlow,2024.2.4,102.50176046791483,2025-03-07 11h22.56.146756 +0700,
2,31,0,word/worden0311.png,image/False/imgf31.png,70,70,0,x,0.7734755000001314,None,0,70,70,70,254.49202849999983,,,,,,,255.9935663000001,255.49803459999976,255.5045881000001,255.5045881000001,255.98732139999993,257.13946209999995,257.13946209999995,x,0.7734755000001314,None,,,,,,,,,,,GSR_en,001,2025-03-07_11h22.39.146,MainFlow,2024.2.4,102.50176046791483,2025-03-07 11h22.56.146756 +0700,
2,55,1,word/worden0551.png,image/True/img55.png,71,71,0,z,0.44698590000007243,None,0,71,71,71,257.9282353999997,,,,,,,259.4303841000001,258.94548480000003,258.9519494000001,258.9519494000001,259.42434460000004,260.6512392999998,260.6512392999998,z,0.44698590000007243,None,,,,,,,,,,,GSR_en,001,2025-03-07_11h22.39.146,MainFlow,2024.2.4,102.50176046791483,2025-03-07 11h22.56.146756 +0700,
2,36,1,word/worden0361.png,image/True/img36.png,72,72,0,z,0.6546376999999666,None,0,72,72,72,261.11693779999996,,,,,,,262.61714269999993,262.1289877999998,262.1353653000001,262.1353653000001,262.61090590000003,263.83985859999984,263.83985859999984,z,0.6546376999999666,None,,,,,,,,,,,GSR_en,001,2025-03-07_11h22.39.146,MainFlow,2024.2.4,102.50176046791483,2025-03-07 11h22.56.146756 +0700,
2,8,0,word/worden0081.png,image/False/imgf08.png,73,73,0,x,0.6674912000003133,None,0,73,73,73,264.5094887999999,,,,,,,266.01238699999976,265.52431769999976,265.53058439999995,265.53058439999995,266.0062364999999,267.21605390000013,267.21605390000013,x,0.6674912000003133,None,265.53058439999995,,,,,,,,,,GSR_en,001,2025-03-07_11h22.39.146,MainFlow,2024.2.4,102.50176046791483,2025-03-07 11h22.56.146756 +0700,
2,82,0,word/worden0821.png,image/False/imgf82.png,74,74,0,x,0.9754265999999916,None,0,74,74,74,267.89283109999997,,,,,,,269.3938769000001,268.90658900000017,268.91340149999996,268.91340149999996,269.38775529999975,270.6534163000001,270.6534163000001,x,0.9754265999999916,None,,,,,,,,,,,GSR_en,001,2025-03-07_11h22.39.146,MainFlow,2024.2.4,102.50176046791483,2025-03-07 11h22.56.146756 +0700,
2,14,0,word/worden0141.png,image/False/imgf14.png,75,75,0,x,0.4850357999998778,None,0,75,75,75,271.63915739999993,,,,,,,273.14311450000014,272.6555186999999,272.66230300000007,272.66230300000007,273.13687230000005,274.33932079999977,274.33932079999977,x,0.4850357999998778,None,272.66230300000007,,,,,,,,,,GSR_en,001,2025-03-07_11h22.39.146,MainFlow,2024.2.4,102.50176046791483,2025-03-07 11h22.56.146756 +0700,
2,71,1,word/worden0711.png,image/True/img71.png,76,76,0,z,0.5256051999999727,None,0,76,76,76,274.83514149999974,,,,,,,276.3366354,275.84917529999984,275.8556533000001,275.8556533000001,276.33036170000014,277.6090423999999,277.6090423999999,z,0.5256051999999727,None,,,,,,,,,,,GSR_en,001,2025-03-07_11h22.39.146,MainFlow,2024.2.4,102.50176046791483,2025-03-07 11h22.56.146756 +0700,
2,22,0,word/worden0221.png,image/False/imgf22.png,77,77,0,x,0.59482509999998,None,0,77,77,77,278.1495839999998,,,,,,,279.6486759999998,279.1890800000001,279.1955904000001,279.1955904000001,279.64260719999993,280.88779609999983,280.88779609999983,x,0.59482509999998,None,,,,,,,,,,,GSR_en,001,2025-03-07_11h22.39.146,MainFlow,2024.2.4,102.50176046791483,2025-03-07 11h22.56.146756 +0700,
2,78,1,word/worden0781.png,image/True/img78.png,78,78,0,z,0.5278432999998586,None,0,78,78,78,281.5007013999998,,,,,,,283.0021772,282.51486699999987,282.5212627000001,282.5212627000001,282.99579289999974,284.18658779999987,284.18658779999987,z,0.5278432999998586,None,,,,,,,,,,,GSR_en,001,2025-03-07_11h22.39.146,MainFlow,2024.2.4,102.50176046791483,2025-03-07 11h22.56.146756 +0700,
2,51,0,word/worden0511.png,image/False/imgf51.png,79,79,0,x,0.38556999999991604,None,0,79,79,79,284.7290005,,,,,,,286.2306703999998,285.7440434,285.75069759999997,285.75069759999997,286.2244004999998,287.4633343999999,287.4633343999999,x,0.38556999999991604,None,,,,,,,,,,,GSR_en,001,2025-03-07_11h22.39.146,MainFlow,2024.2.4,102.50176046791483,2025-03-07 11h22.56.146756 +0700,
2,56,1,word/worden0561.png,image/True/img56.png,80,80,0,z,0.5119306999999935,None,0,80,80,80,287.85971870000003,,,,,,,289.36212650000016,288.9075290999999,288.91434690000006,288.91434690000006,289.35588849999976,290.60159799999974,290.60159799999974,z,0.5119306999999935,None,,,,,,,,,,,GSR_en,001,2025-03-07_11h22.39.146,MainFlow,2024.2.4,102.50176046791483,2025-03-07 11h22.56.146756 +0700,
2,60,1,word/worden0601.png,image/True/img60.png,81,81,0,z,0.4377380999999332,None,0,81,81,81,291.12955980000015,,,,,,,292.6323561999998,292.1744012999998,292.18089869999994,292.18089869999994,292.62612720000016,293.8650186,293.8650186,z,0.4377380999999332,None,,,,,,,,,,,GSR_en,001,2025-03-07_11h22.39.146,MainFlow,2024.2.4,102.50176046791483,2025-03-07 11h22.56.146756 +0700,
2,96,0,word/worden0961.png,image/False/imgf96.png,82,82,0,x,0.5908989999998084,None,0,82,82,82,294.3145034999998,,,,,,,295.81915309999977,295.32515209999974,295.33149189999995,295.33149189999995,295.81311529999994,297.0887259000001,297.0887259000001,x,0.5908989999998084,None,,,,,,,,,,,GSR_en,001,2025-03-07_11h22.39.146,MainFlow,2024.2.4,102.50176046791483,2025-03-07 11h22.56.146756 +0700,
2,3,0,word/worden0031.png,image/False/imgf03.png,83,83,0,x,0.6782728000002862,None,0,83,83,83,297.6890242999998,,,,,,,299.19337140000016,298.69885399999976,298.70526459999974,298.70526459999974,299.18729859999985,300.4052671999998,300.4052671999998,x,0.6782728000002862,None,,,,,,,,,,,GSR_en,001,2025-03-07_11h22.39.146,MainFlow,2024.2.4,102.50176046791483,2025-03-07 11h22.56.146756 +0700,
2,55,0,word/worden0551.png,image/False/imgf55.png,84,84,0,x,0.7703260000002956,None,0,84,84,84,301.09282989999974,,,,,,,302.5957605999997,302.1074933,302.11496499999976,302.11496499999976,302.58945200000016,303.8089605,303.8089605,x,0.7703260000002956,None,,,,,,,,,,,GSR_en,001,2025-03-07_11h22.39.146,MainFlow,2024.2.4,102.50176046791483,2025-03-07 11h22.56.146756 +0700,
2,71,1,word/worden0711.png,image/True/img71.png,85,85,0,z,0.5687654999996994,None,0,85,85,85,304.59178429999974,,,,,,,306.09496089999993,305.6076465000001,305.6141053000001,305.6141053000001,306.08877029999985,307.31193840000014,307.31193840000014,z,0.5687654999996994,None,305.6141053000001,,,,,,,,,,GSR_en,001,2025-03-07_11h22.39.146,MainFlow,2024.2.4,102.50176046791483,2025-03-07 11h22.56.146756 +0700,
2,3,1,word/worden0031.png,image/True/img03.png,86,86,0,z,0.6728012000003218,None,0,86,86,86,307.88660720000007,,,,,,,309.3929373000001,308.9010509999998,308.90768590000016,308.90768590000016,309.38684639999974,310.6260893999997,310.6260893999997,z,0.6728012000003218,None,,,,,,,,,,,GSR_en,001,2025-03-07_11h22.39.146,MainFlow,2024.2.4,102.50176046791483,2025-03-07 11h22.56.146756 +0700,
2,52,1,word/worden0521.png,image/True/img52.png,87,87,0,z,0.3795694000000367,None,0,87,87,87,311.3133131999998,,,,,,,312.80898019999995,312.3153277000001,312.3197749000001,312.3197749000001,312.80411779999986,314.09906790000014,314.09906790000014,z,0.3795694000000367,None,314.09906790000014,312.80898019999995,312.80898019999995,,,,,,,,GSR_en,001,2025-03-07_11h22.39.146,MainFlow,2024.2.4,102.50176046791483,2025-03-07 11h22.56.146756 +0700,
2,95,0,word/worden0951.png,image/False/imgf95.png,88,88,0,x,0.5180956999997761,None,0,88,88,88,314.49490549999973,,,,,,,315.99584219999997,315.50757440000007,315.5139405,315.5139405,315.9895271999999,317.22617390000005,317.22617390000005,x,0.5180956999997761,None,,,,,,,,,,,GSR_en,001,2025-03-07_11h22.39.146,MainFlow,2024.2.4,102.50176046791483,2025-03-07 11h22.56.146756 +0700,
2,6,0,word/worden0061.png,image/False/imgf06.png,89,89,0,x,0.5268668000003345,None,0,89,89,89,317.7593818999999,,,,,,,319.2606264000001,318.77432120000003,318.7806265999998,318.7806265999998,319.25280029999976,320.4762495,320.4762495,x,0.5268668000003345,None,,,,,,,,,,,GSR_en,001,2025-03-07_11h22.39.146,MainFlow,2024.2.4,102.50176046791483,2025-03-07 11h22.56.146756 +0700,
2,79,1,word/worden0791.png,image/True/img79.png,90,90,0,z,0.4393478000001778,None,0,90,90,90,321.0210336,,,,,,,322.52230340000006,322.0588072999999,322.06515720000016,322.06515720000016,322.51602890000004,323.7678646999998,323.7678646999998,z,0.4393478000001778,None,,,,,,,,,,,GSR_en,001,2025-03-07_11h22.39.146,MainFlow,2024.2.4,102.50176046791483,2025-03-07 11h22.56.146756 +0700,
2,61,0,word/worden0611.png,image/False/imgf61.png,91,91,0,z,0.5782521000000997,None,0,91,91,91,324.2193662999998,,,,,,,325.72283370000014,325.2364650999998,325.2440615999999,325.2440615999999,325.71643889999996,326.9502305000001,326.9502305000001,z,0.5782521000000997,None,325.2440615999999,,,,,,,,,,GSR_en,001,2025-03-07_11h22.39.146,MainFlow,2024.2.4,102.50176046791483,2025-03-07 11h22.56.146756 +0700,
2,46,0,word/worden0461.png,image/False/imgf46.png,92,92,0,x,0.627820299999712,None,0,92,92,92,327.5384745000001,,,,,,,329.0421272999997,328.5755045000001,328.58216429999993,328.58216429999993,329.0357862999999,330.3231345999998,330.3231345999998,x,0.627820299999712,None,,,,,,,,,,,GSR_en,001,2025-03-07_11h22.39.146,MainFlow,2024.2.4,102.50176046791483,2025-03-07 11h22.56.146756 +0700,
2,89,1,word/worden0891.png,image/True/img89.png,93,93,0,z,0.4124891999999818,None,0,93,93,93,330.9647273999999,,,,,,,332.47191829999974,332.00925529999995,332.01615319999974,332.01615319999974,332.4655733999998,333.69338830000015,333.69338830000015,z,0.4124891999999818,None,,,,,,,,,,,GSR_en,001,2025-03-07_11h22.39.146,MainFlow,2024.2.4,102.50176046791483,2025-03-07 11h22.56.146756 +0700,
2,26,0,word/worden0261.png,image/False/imgf26.png,94,94,0,x,0.4357933999999659,None,0,94,94,94,334.11880429999974,,,,,,,335.6169781999997,335.1307260999997,335.1370907999999,335.1370907999999,335.6111065,336.85826499999985,336.85826499999985,x,0.4357933999999659,None,,,,,,,,,,,GSR_en,001,2025-03-07_11h22.39.146,MainFlow,2024.2.4,102.50176046791483,2025-03-07 11h22.56.146756 +0700,
2,44,0,word/worden0441.png,image/False/imgf44.png,95,95,0,x,0.68513669999993,None,0,95,95,95,337.30817960000013,,,,,,,338.8106552999998,338.31863829999975,338.3249980999999,338.3249980999999,338.80440439999984,340.0780433,340.0780433,x,0.68513669999993,None,,,,,,,,,,,GSR_en,001,2025-03-07_11h22.39.146,MainFlow,2024.2.4,102.50176046791483,2025-03-07 11h22.56.146756 +0700,
2,82,1,word/worden0821.png,image/True/img82.png,96,96,0,z,0.38013420000015685,None,0,96,96,96,340.7747666,,,,,,,342.2753840999999,341.788239,341.7946922000001,341.7946922000001,342.26907470000015,343.41031429999975,343.41031429999975,z,0.38013420000015685,None,,,,,,,,,,,GSR_en,001,2025-03-07_11h22.39.146,MainFlow,2024.2.4,102.50176046791483,2025-03-07 11h22.56.146756 +0700,
2,16,1,word/worden0161.png,image/True/img16.png,97,97,0,z,1.1217415000000983,None,0,97,97,97,343.8026824999997,,,,,,,345.3026952,344.8137115999998,344.82139499999994,344.82139499999994,345.29665639999985,346.5927278999998,346.5927278999998,z,1.1217415000000983,None,,,,,,,,,,,GSR_en,001,2025-03-07_11h22.39.146,MainFlow,2024.2.4,102.50176046791483,2025-03-07 11h22.56.146756 +0700,
2,20,1,word/worden0201.png,image/True/img20.png,98,98,0,z,0.6029469000000063,None,0,98,98,98,347.7255046,,,,,,,349.2327728999999,348.76723319999974,348.7743639,348.7743639,349.22632350000003,350.5131901,350.5131901,z,0.6029469000000063,None,,,,,,,,,,,GSR_en,001,2025-03-07_11h22.39.146,MainFlow,2024.2.4,102.50176046791483,2025-03-07 11h22.56.146756 +0700,
2,20,1,word/worden0201.png,image/True/img20.png,99,99,0,z,0.49562879999984943,None,0,99,99,99,351.12605799999983,,,,,,,352.6277184999999,352.12849860000006,352.13332149999997,352.13332149999997,352.62153450000005,353.83927760000006,353.83927760000006,z,0.49562879999984943,None,,,,,,,,,,,GSR_en,001,2025-03-07_11h22.39.146,MainFlow,2024.2.4,102.50176046791483,2025-03-07 11h22.56.146756 +0700,
2,96,1,word/worden0961.png,image/True/img96.png,100,100,0,z,0.3997967999998764,None,0,100,100,100,354.3451626000001,,,,,,,355.8489347999998,355.35824189999994,355.3648241000001,355.3648241000001,355.8427022999999,357.0491929,357.0491929,z,0.3997967999998764,None,,,,,,,,,,,GSR_en,001,2025-03-07_11h22.39.146,MainFlow,2024.2.4,102.50176046791483,2025-03-07 11h22.56.146756 +0700,
2,64,1,word/worden0641.png,image/True/img64.png,101,101,0,z,0.5587731000000531,None,0,101,101,101,357.4609483999998,,,,,,,358.95974590000014,358.4732408,358.47953929999994,358.47953929999994,358.953567,360.1617931999999,360.1617931999999,z,0.5587731000000531,None,,,,,,,,,,,GSR_en,001,2025-03-07_11h22.39.146,MainFlow,2024.2.4,102.50176046791483,2025-03-07 11h22.56.146756 +0700,
2,78,0,word/worden0781.png,image/False/imgf78.png,102,102,0,x,0.6282224999999926,None,0,102,102,102,360.7366960999998,,,,,,,362.24392769999986,361.7485766,361.75498449999986,361.75498449999986,362.2376061,363.41859710000017,363.41859710000017,x,0.6282224999999926,None,,,,,,,,,,,GSR_en,001,2025-03-07_11h22.39.146,MainFlow,2024.2.4,102.50176046791483,2025-03-07 11h22.56.146756 +0700,
2,20,0,word/worden0201.png,image/False/imgf20.png,103,103,0,x,0.4643404999997074,None,0,103,103,103,364.0596750999998,,,,,,,365.5623639999999,365.0698437000001,365.0774462999998,365.0774462999998,365.55599789999997,366.8690621999999,366.8690621999999,x,0.4643404999997074,None,,,,,,,,,,,GSR_en,001,2025-03-07_11h22.39.146,MainFlow,2024.2.4,102.50176046791483,2025-03-07 11h22.56.146756 +0700,
2,89,1,word/worden0891.png,image/True/img89.png,104,104,0,z,0.45450030000029074,None,0,104,104,104,367.34403239999983,,,,,,,368.8468769000001,368.35915369999975,368.3658359000001,368.3658359000001,368.84050049999996,369.9902739999998,369.9902739999998,z,0.45450030000029074,None,,,,,,,,,,,GSR_en,001,2025-03-07_11h22.39.146,MainFlow,2024.2.4,102.50176046791483,2025-03-07 11h22.56.146756 +0700,
2,59,0,word/worden0591.png,image/False/imgf59.png,105,105,0,x,0.42591399999992063,None,0,105,105,105,370.45511080000006,,,,,,,371.9573274999998,371.46912939999993,371.4758963999998,371.4758963999998,371.95098800000005,373.1223909999999,373.1223909999999,x,0.42591399999992063,None,,,,,,,,,,,GSR_en,001,2025-03-07_11h22.39.146,MainFlow,2024.2.4,102.50176046791483,2025-03-07 11h22.56.146756 +0700,
2,24,0,word/worden0241.png,image/False/imgf24.png,106,106,0,x,0.9923642999997355,None,0,106,106,106,373.5643922999998,,,,,,,375.06771789999993,374.57381179999993,374.57760359999975,374.57760359999975,375.0614310000001,376.30419559999973,376.30419559999973,x,0.9923642999997355,None,374.57760359999975,,,,,,,,,,GSR_en,001,2025-03-07_11h22.39.146,MainFlow,2024.2.4,102.50176046791483,2025-03-07 11h22.56.146756 +0700,
2,28,0,word/worden0281.png,image/False/imgf28.png,107,107,0,x,2.4582242999999835,None,0,107,107,107,377.31129409999994,,,,,,,378.81670540000005,378.32585830000016,378.3321998000001,378.3321998000001,378.81045319999976,380.08609350000006,380.08609350000006,x,2.4582242999999835,None,,,,,,,,,,,GSR_en,001,2025-03-07_11h22.39.146,MainFlow,2024.2.4,102.50176046791483,2025-03-07 11h22.56.146756 +0700,
2,15,0,word/worden0151.png,image/False/imgf15.png,108,108,0,x,1.0338284999997995,None,0,108,108,108,382.5571156000001,,,,,,,384.05915779999987,383.62068610000006,383.62716869999986,383.62716869999986,384.0529628999998,385.3189398999998,385.3189398999998,x,1.0338284999997995,None,,,,,,,,,,,GSR_en,001,2025-03-07_11h22.39.146,MainFlow,2024.2.4,102.50176046791483,2025-03-07 11h22.56.146756 +0700,
2,30,1,word/worden0301.png,image/True/img30.png,109,109,0,z,0.5673012000002018,None,0,109,109,109,386.36628659999997,,,,,,,387.87078629999996,387.40708349999977,387.41477480000003,387.41477480000003,387.8643963999998,389.11016789999985,389.11016789999985,z,0.5673012000002018,None,387.41477480000003,,,,,,,,,,GSR_en,001,2025-03-07_11h22.39.146,MainFlow,2024.2.4,102.50176046791483,2025-03-07 11h22.56.146756 +0700,
2,64,1,word/worden0641.png,image/True/img64.png,110,110,0,z,0.3707656000001407,None,0,110,110,110,389.68817469999976,,,,,,,391.1897045999999,390.7046273000001,390.71119550000003,390.71119550000003,391.18345069999987,392.3443398999998,392.3443398999998,z,0.3707656000001407,None,,,,,,,,,,,GSR_en,001,2025-03-07_11h22.39.146,MainFlow,2024.2.4,102.50176046791483,2025-03-07 11h22.56.146756 +0700,
2,52,0,word/worden0521.png,image/False/imgf52.png,111,111,0,x,0.41637600000012753,None,0,111,111,111,392.72495149999986,,,,,,,394.23081749999983,393.73760029999994,393.74395270000014,393.74395270000014,394.22442,395.4048032999999,395.4048032999999,x,0.41637600000012753,None,,,,,,,,,,,GSR_en,001,2025-03-07_11h22.39.146,MainFlow,2024.2.4,102.50176046791483,2025-03-07 11h22.56.146756 +0700,
2,33,1,word/worden0331.png,image/True/img33.png,112,112,0,z,0.4275161999999,None,0,112,112,112,395.8326112,,,,,,,397.3345383000001,396.84718569999995,396.85389570000007,396.85389570000007,397.32797949999986,398.55265599999984,398.55265599999984,z,0.4275161999999,None,,,,,,,,,,,GSR_en,001,2025-03-07_11h22.39.146,MainFlow,2024.2.4,102.50176046791483,2025-03-07 11h22.56.146756 +0700,
2,23,1,word/worden0231.png,image/True/img23.png,113,113,0,z,0.46803490000002057,None,0,113,113,113,398.9943330000001,,,,,,,400.49343050000016,400.00556860000006,400.01238969999986,400.01238969999986,400.48733319999974,401.71470480000016,401.71470480000016,z,0.46803490000002057,None,,,,,,,,,,,GSR_en,001,2025-03-07_11h22.39.146,MainFlow,2024.2.4,102.50176046791483,2025-03-07 11h22.56.146756 +0700,
2,11,1,word/worden0111.png,image/True/img11.png,114,114,0,z,0.616928899999948,None,0,114,114,114,402.19770930000004,,,,,,,403.7011862999998,403.21547009999995,403.2218905999998,403.2218905999998,403.69491400000015,404.96813840000004,404.96813840000004,z,0.616928899999948,None,403.2218905999998,,,,,,,,,,GSR_en,001,2025-03-07_11h22.39.146,MainFlow,2024.2.4,102.50176046791483,2025-03-07 11h22.56.146756 +0700,
2,22,1,word/worden0221.png,image/True/img22.png,115,115,0,z,0.6576506000001245,None,0,115,115,115,405.5982248999999,,,,,,,407.10328489999984,406.61111979999987,406.61759029999985,406.61759029999985,407.09698130000015,408.40189729999975,408.40189729999975,z,0.6576506000001245,None,,,,,,,,,,,GSR_en,001,2025-03-07_11h22.39.146,MainFlow,2024.2.4,102.50176046791483,2025-03-07 11h22.56.146756 +0700,
2,37,0,word/worden0371.png,image/False/imgf37.png,116,116,0,x,0.5580197999997836,None,0,116,116,116,409.07484859999977,,,,,,,410.5748516999997,410.08111819999976,410.08781659999977,410.08781659999977,410.5685091,411.8760293999999,411.8760293999999,x,0.5580197999997836,None,,,,,,,,,,,GSR_en,001,2025-03-07_11h22.39.146,MainFlow,2024.2.4,102.50176046791483,2025-03-07 11h22.56.146756 +0700,
2,79,0,word/worden0791.png,image/False/imgf79.png,117,117,0,x,0.6367392000001928,None,0,117,117,117,412.4474304999999,,,,,,,413.9490181000001,413.45644519999996,413.4631595000001,413.4631595000001,413.94288449999976,415.15689759999987,415.15689759999987,x,0.6367392000001928,None,,,,,,,,,,,GSR_en,001,2025-03-07_11h22.39.146,MainFlow,2024.2.4,102.50176046791483,2025-03-07 11h22.56.146756 +0700,
2,56,1,word/worden0561.png,image/True/img56.png,118,118,0,z,0.5418794000001981,None,0,118,118,118,415.8087227000001,,,,,,,417.30978909999976,416.8149841999998,416.8218747000001,416.8218747000001,417.30346929999996,418.4991522999999,418.4991522999999,z,0.5418794000001981,None,,,,,,,,,,,GSR_en,001,2025-03-07_11h22.39.146,MainFlow,2024.2.4,102.50176046791483,2025-03-07 11h22.56.146756 +0700,
2,68,1,word/worden0681.png,image/True/img68.png,119,119,0,z,0.4230817000002389,None,0,119,119,119,419.0521712,,,,,,,420.5590152,420.06497609999997,420.07209079999984,420.07209079999984,420.55282910000005,421.7110330999999,421.7110330999999,z,0.4230817000002389,None,,,,,,,,,,,GSR_en,001,2025-03-07_11h22.39.146,MainFlow,2024.2.4,102.50176046791483,2025-03-07 11h22.56.146756 +0700,
2,27,0,word/worden0271.png,image/False/imgf27.png,120,120,0,x,0.6161987999998928,None,0,120,120,120,422.14711439999974,,,,,,,423.64835029999995,423.1547018000001,423.16162589999976,423.16162589999976,423.64210980000007,424.8309215999998,424.8309215999998,x,0.6161987999998928,None,,,,,,,,,,,GSR_en,001,2025-03-07_11h22.39.146,MainFlow,2024.2.4,102.50176046791483,2025-03-07 11h22.56.146756 +0700,
2,3,1,word/worden0031.png,image/True/img03.png,121,121,0,z,0.5384124999995947,None,0,121,121,121,425.4565207999999,,,,,,,426.9605670000001,426.4726915000001,426.47945149999987,426.47945149999987,426.9543693999999,428.1752563,428.1752563,z,0.5384124999995947,None,426.47945149999987,,,,,,,,,,GSR_en,001,2025-03-07_11h22.39.146,MainFlow,2024.2.4,102.50176046791483,2025-03-07 11h22.56.146756 +0700,
2,38,0,word/worden0381.png,image/False/imgf38.png,122,122,0,x,2.580841899999996,None,0,122,122,122,428.7270665000001,,,,,,,430.2311934999998,429.7363187000001,429.7434389,429.7434389,430.2244013999998,431.53376960000014,431.53376960000014,x,2.580841899999996,None,,,,,,,,,,,GSR_en,001,2025-03-07_11h22.39.146,MainFlow,2024.2.4,102.50176046791483,2025-03-07 11h22.56.146756 +0700,
2,59,1,word/worden0591.png,image/True/img59.png,123,123,0,z,0.47213509999983216,None,0,123,123,123,434.1297150999999,,,,,,,435.63217570000006,435.13292090000004,435.13774490000014,435.13774490000014,435.62588819999974,436.8271289999998,436.8271289999998,z,0.47213509999983216,None,,,,,,,,,,,GSR_en,001,2025-03-07_11h22.39.146,MainFlow,2024.2.4,102.50176046791483,2025-03-07 11h22.56.146756 +0700,
2,18,1,word/worden0181.png,image/True/img18.png,124,124,0,z,0.500001599999905,None,0,124,124,124,437.3092624000001,,,,,,,438.81235960000004,438.35497929999974,438.36184719999983,438.36184719999983,438.80608470000016,440.0335064000001,440.0335064000001,z,0.500001599999905,None,,,,,,,,,,,GSR_en,001,2025-03-07_11h22.39.146,MainFlow,2024.2.4,102.50176046791483,2025-03-07 11h22.56.146756 +0700,
2,60,1,word/worden0601.png,image/True/img60.png,125,125,0,z,0.3725350999998227,None,0,125,125,125,440.54436609999993,,,,,,,442.04098250000015,441.54667100000006,441.55133290000003,441.55133290000003,442.03596500000003,443.2463305000001,443.2463305000001,z,0.3725350999998227,None,443.2463305000001,442.04098250000015,442.04098250000015,,,,,,,,GSR_en,001,2025-03-07_11h22.39.146,MainFlow,2024.2.4,102.50176046791483,2025-03-07 11h22.56.146756 +0700,
2,9,1,word/worden0091.png,image/True/img09.png,126,126,0,z,0.3853793000002952,None,0,126,126,126,443.62779599999976,,,,,,,445.1308153,444.6745713999999,444.68131360000007,444.68131360000007,445.1246299999998,446.30378900000005,446.30378900000005,z,0.3853793000002952,None,,,,,,,,,,,GSR_en,001,2025-03-07_11h22.39.146,MainFlow,2024.2.4,102.50176046791483,2025-03-07 11h22.56.146756 +0700,
2,9,0,word/worden0091.png,image/False/imgf09.png,127,127,0,x,0.5793807999998535,None,0,127,127,127,446.7040727999997,,,,,,,448.2064486999998,447.71802320000006,447.72447509999984,447.72447509999984,448.2007245,449.4062107999998,449.4062107999998,x,0.5793807999998535,None,,,,,,,,,,,GSR_en,001,2025-03-07_11h22.39.146,MainFlow,2024.2.4,102.50176046791483,2025-03-07 11h22.56.146756 +0700,
2,94,0,word/worden0941.png,image/False/imgf94.png,128,128,0,x,0.5978617999999187,None,0,128,128,128,450.0039655999999,,,,,,,451.50423219999993,451.04562910000004,451.0523721999998,451.0523721999998,451.4980935999997,452.8031900000001,452.8031900000001,x,0.5978617999999187,None,,,,,,,,,,,GSR_en,001,2025-03-07_11h22.39.146,MainFlow,2024.2.4,102.50176046791483,2025-03-07 11h22.56.146756 +0700,
2,66,1,word/worden0661.png,image/True/img66.png,129,129,0,z,0.4509819999998399,None,0,129,129,129,453.4110452,,,,,,,454.9132175,454.42488520000006,454.43123579999974,454.43123579999974,454.9067535999998,456.2451977999999,456.2451977999999,z,0.4509819999998399,None,,,,,,,,,,,GSR_en,001,2025-03-07_11h22.39.146,MainFlow,2024.2.4,102.50176046791483,2025-03-07 11h22.56.146756 +0700,
2,1,0,word/worden0011.png,image/False/imgf01.png,130,130,0,x,0.6113651000000573,None,0,130,130,130,456.70955030000005,,,,,,,458.21135860000004,457.71677580000005,457.7232011000001,457.7232011000001,458.20521400000007,459.38441139999986,459.38441139999986,x,0.6113651000000573,None,,,,,,,,,,,GSR_en,001,2025-03-07_11h22.39.146,MainFlow,2024.2.4,102.50176046791483,2025-03-07 11h22.56.146756 +0700,
2,89,0,word/worden0891.png,image/False/imgf89.png,131,131,0,x,0.6262985999997,None,0,131,131,131,460.00537889999987,,,,,,,461.50970370000005,461.0150398999999,461.02180080000016,461.02180080000016,461.50329120000015,462.7438237000001,462.7438237000001,x,0.6262985999997,None,,,,,,,,,,,GSR_en,001,2025-03-07_11h22.39.146,MainFlow,2024.2.4,102.50176046791483,2025-03-07 11h22.56.146756 +0700,
2,48,1,word/worden0481.png,image/True/img48.png,132,132,0,z,0.4439527999998063,None,0,132,132,132,463.38186080000014,,,,,,,464.88387839999996,464.38731469999993,464.3946455,464.3946455,464.8776042999998,466.1022072999999,466.1022072999999,z,0.4439527999998063,None,,,,,,,,,,,GSR_en,001,2025-03-07_11h22.39.146,MainFlow,2024.2.4,102.50176046791483,2025-03-07 11h22.56.146756 +0700,
2,63,0,word/worden0631.png,image/False/imgf63.png,133,133,0,x,3.9955950000003213,None,0,133,133,133,466.56344249999984,,,,,,,468.0634553,467.60764770000014,467.61412729999984,467.61412729999984,468.05714720000014,469.3254649999999,469.3254649999999,x,3.9955950000003213,None,,,,,,,,,,,GSR_en,001,2025-03-07_11h22.39.146,MainFlow,2024.2.4,102.50176046791483,2025-03-07 11h22.56.146756 +0700,
2,23,1,word/worden0231.png,image/True/img23.png,134,134,0,z,0.43209470000010697,None,0,134,134,134,473.3365872999998,,,,,,,474.8400951999997,474.34025680000013,474.34497120000015,474.34497120000015,474.8338813999999,476.0548196999998,476.0548196999998,z,0.43209470000010697,None,474.34497120000015,,,,,,,,,,GSR_en,001,2025-03-07_11h22.39.146,MainFlow,2024.2.4,102.50176046791483,2025-03-07 11h22.56.146756 +0700,
2,40,0,word/worden0401.png,image/False/imgf40.png,135,135,0,x,0.9002996999997777,None,0,135,135,135,476.49644720000015,,,,,,,477.99930200000017,477.5004549999999,477.50555559999975,477.50555559999975,477.9929987999999,479.2075113000001,479.2075113000001,x,0.9002996999997777,None,,,,,,,,,,,GSR_en,001,2025-03-07_11h22.39.146,MainFlow,2024.2.4,102.50176046791483,2025-03-07 11h22.56.146756 +0700,
2,52,1,word/worden0521.png,image/True/img52.png,136,136,0,z,0.35526400000026115,None,0,136,136,136,480.1230910999998,,,,,,,481.63023999999996,481.13789689999976,481.14515500000016,481.14515500000016,481.6238592999998,482.85563420000017,482.85563420000017,z,0.35526400000026115,None,,,,,,,,,,,GSR_en,001,2025-03-07_11h22.39.146,MainFlow,2024.2.4,102.50176046791483,2025-03-07 11h22.56.146756 +0700,
2,30,1,word/worden0301.png,image/True/img30.png,137,137,0,z,0.48031399999990754,None,0,137,137,137,483.2243856,,,,,,,484.7271354999998,484.2412592999999,484.2477482999998,484.2477482999998,484.7209177,486.0369876,486.0369876,z,0.48031399999990754,None,484.2477482999998,,,,,,,,,,GSR_en,001,2025-03-07_11h22.39.146,MainFlow,2024.2.4,102.50176046791483,2025-03-07 11h22.56.146756 +0700,
2,15,1,word/worden0151.png,image/True/img15.png,138,138,0,z,0.37999900000022535,None,0,138,138,138,486.5296518,,,,,,,488.0318619999998,487.54393149999987,487.55028809999976,487.55028809999976,488.025447,489.32121819999975,489.32121819999975,z,0.37999900000022535,None,,,,,,,,,,,GSR_en,001,2025-03-07_11h22.39.146,MainFlow,2024.2.4,102.50176046791483,2025-03-07 11h22.56.146756 +0700,
2,46,1,word/worden0461.png,image/True/img46.png,139,139,0,z,0.4445827999998073,None,0,139,139,139,489.71532579999985,,,,,,,491.2118753999998,490.71844239999973,490.72276999999985,490.72276999999985,491.2069827,492.5575988999999,492.5575988999999,z,0.4445827999998073,None,492.5575988999999,491.2118753999998,491.2118753999998,,,,,,,,GSR_en,001,2025-03-07_11h22.39.146,MainFlow,2024.2.4,102.50176046791483,2025-03-07 11h22.56.146756 +0700,
2,14,1,word/worden0141.png,image/True/img14.png,140,140,0,z,0.49277669999992213,None,0,140,140,140,493.01777949999996,,,,,,,494.52379410000003,494.02931179999996,494.03564819999974,494.03564819999974,494.51755679999997,495.7680854,495.7680854,z,0.49277669999992213,None,,,,,,,,,,,GSR_en,001,2025-03-07_11h22.39.146,MainFlow,2024.2.4,102.50176046791483,2025-03-07 11h22.56.146756 +0700,
2,66,0,word/worden0661.png,image/False/imgf66.png,141,141,0,x,0.6136360999998942,None,0,141,141,141,496.271612,,,,,,,497.7732667,497.2855767000001,497.2921719000001,497.2921719000001,497.7668798999998,498.98689019999983,498.98689019999983,x,0.6136360999998942,None,,,,,,,,,,,GSR_en,001,2025-03-07_11h22.39.146,MainFlow,2024.2.4,102.50176046791483,2025-03-07 11h22.56.146756 +0700,
2,46,0,word/worden0461.png,image/False/imgf46.png,142,142,0,x,0.6017569999999068,None,0,142,142,142,499.6129608000001,,,,,,,501.11992740000005,500.62451809999993,500.6312109999999,500.6312109999999,501.11371959999997,502.33682120000003,502.33682120000003,x,0.6017569999999068,None,,,,,,,,,,,GSR_en,001,2025-03-07_11h22.39.146,MainFlow,2024.2.4,102.50176046791483,2025-03-07 11h22.56.146756 +0700,
2,18,1,word/worden0181.png,image/True/img18.png,143,143,0,z,0.40744580000000497,None,0,143,143,143,502.9500496999999,,,,,,,504.44558629999983,503.9516700999998,503.9564526999998,503.9564526999998,504.4407424000001,505.6383802999999,505.6383802999999,z,0.40744580000000497,None,505.6383802999999,504.44558629999983,504.44558629999983,,,,,,,,GSR_en,001,2025-03-07_11h22.39.146,MainFlow,2024.2.4,102.50176046791483,2025-03-07 11h22.56.146756 +0700,
2,51,0,word/worden0511.png,image/False/imgf51.png,144,144,0,x,0.6488352000001214,None,0,144,144,144,506.0611395000001,,,,,,,507.56298160000006,507.0747173999998,507.08115580000003,507.08115580000003,507.55678179999995,508.73289339999974,508.73289339999974,x,0.6488352000001214,None,,,,,,,,,,,GSR_en,001,2025-03-07_11h22.39.146,MainFlow,2024.2.4,102.50176046791483,2025-03-07 11h22.56.146756 +0700,
2,76,1,word/worden0761.png,image/True/img76.png,145,145,0,z,0.5084618999999293,None,0,145,145,145,509.39160790000005,,,,,,,510.8955953999998,510.4009001999998,510.4074482000001,510.4074482000001,510.88933480000014,512.0963284,512.0963284,z,0.5084618999999293,None,,,,,,,,,,,GSR_en,001,2025-03-07_11h22.39.146,MainFlow,2024.2.4,102.50176046791483,2025-03-07 11h22.56.146756 +0700,
2,57,1,word/worden0571.png,image/True/img57.png,146,146,0,z,0.6464634999997543,None,0,146,146,146,512.6119242999998,,,,,,,514.1172655999999,513.6315500999999,513.6382585000001,513.6382585000001,514.1111049000001,515.3350446999998,515.3350446999998,z,0.6464634999997543,None,513.6382585000001,,,,,,,,,,GSR_en,001,2025-03-07_11h22.39.146,MainFlow,2024.2.4,102.50176046791483,2025-03-07 11h22.56.146756 +0700,
2,48,0,word/worden0481.png,image/False/imgf48.png,147,147,0,x,0.4796998000001622,None,0,147,147,147,515.9939555999999,,,,,,,517.4986752999998,517.0107534999997,517.0175254000001,517.0175254000001,517.4925413000001,518.7813013,518.7813013,x,0.4796998000001622,None,517.0175254000001,,,,,,,,,,GSR_en,001,2025-03-07_11h22.39.146,MainFlow,2024.2.4,102.50176046791483,2025-03-07 11h22.56.146756 +0700,
2,37,0,word/worden0371.png,image/False/imgf37.png,148,148,0,x,0.470484899999974,None,0,148,148,148,519.2738411999999,,,,,,,520.7758441000001,520.2811032,520.2885016,520.2885016,520.7696744999998,521.9981084000001,521.9981084000001,x,0.470484899999974,None,,,,,,,,,,,GSR_en,001,2025-03-07_11h22.39.146,MainFlow,2024.2.4,102.50176046791483,2025-03-07 11h22.56.146756 +0700,
2,60,0,word/worden0601.png,image/False/imgf60.png,149,149,0,x,0.47559540000020206,None,0,149,149,149,522.4802713999998,,,,,,,523.9835459000001,523.4985901999999,523.5049706999998,523.5049706999998,523.9772665999999,525.2330298000002,525.2330298000002,x,0.47559540000020206,None,523.5049706999998,,,,,,,,,,GSR_en,001,2025-03-07_11h22.39.146,MainFlow,2024.2.4,102.50176046791483,2025-03-07 11h22.56.146756 +0700,
2,24,1,word/worden0241.png,image/True/img24.png,150,150,0,z,0.5625730000001568,None,0,150,150,150,525.7187703,,,,,,,527.2213188000001,526.7307333999997,526.7371300999998,526.7371300999998,527.2127222999998,528.4165276999997,528.4165276999997,z,0.5625730000001568,None,,,,,,,,,,,GSR_en,001,2025-03-07_11h22.39.146,MainFlow,2024.2.4,102.50176046791483,2025-03-07 11h22.56.146756 +0700,
2,40,1,word/worden0401.png,image/True/img40.png,151,151,0,z,0.620353399999658,None,0,151,151,151,528.9926563999998,,,,,,,530.4958249000001,530.0072821999997,530.0135587,530.0135587,530.4894696000001,531.8020078,531.8020078,z,0.620353399999658,None,530.0135587,,,,,,,,,,GSR_en,001,2025-03-07_11h22.39.146,MainFlow,2024.2.4,102.50176046791483,2025-03-07 11h22.56.146756 +0700,
2,54,1,word/worden0541.png,image/True/img54.png,152,152,0,z,0.5312956000002487,None,0,152,152,152,532.4383773,,,,,,,533.9398354,533.4523902000001,533.4590054999999,533.4590054999999,533.9337415,535.2045801999998,535.2045801999998,z,0.5312956000002487,None,,,,,,,,,,,GSR_en,001,2025-03-07_11h22.39.146,MainFlow,2024.2.4,102.50176046791483,2025-03-07 11h22.56.146756 +0700,
2,44,0,word/worden0441.png,image/False/imgf44.png,153,153,0,x,0.7117448000003606,None,0,153,153,153,535.7531159999999,,,,,,,537.2587245,536.7656253999999,536.7731958999998,536.7731958999998,537.2526053000001,538.4701684000001,538.4701684000001,x,0.7117448000003606,None,,,,,,,,,,,GSR_en,001,2025-03-07_11h22.39.146,MainFlow,2024.2.4,102.50176046791483,2025-03-07 11h22.56.146756 +0700,
2,79,1,word/worden0791.png,image/True/img79.png,154,154,0,z,0.5578636999998707,None,0,154,154,154,539.1929045000002,,,,,,,540.69562,540.2015302,540.2081901000001,540.2081901000001,540.6893389000002,541.9017039,541.9017039,z,0.5578636999998707,None,,,,,,,,,,,GSR_en,001,2025-03-07_11h22.39.146,MainFlow,2024.2.4,102.50176046791483,2025-03-07 11h22.56.146756 +0700,
2,95,1,word/worden0951.png,image/True/img95.png,155,155,0,z,0.5912896999998338,None,0,155,155,155,542.4690234,,,,,,,543.9723223000001,543.4841034000001,543.4905254999999,543.4905254999999,543.9660313999998,545.2664985000001,545.2664985000001,z,0.5912896999998338,None,543.4905254999999,,,,,,,,,,GSR_en,001,2025-03-07_11h22.39.146,MainFlow,2024.2.4,102.50176046791483,2025-03-07 11h22.56.146756 +0700,
2,37,1,word/worden0371.png,image/True/img37.png,156,156,0,z,0.42257329999983995,None,0,156,156,156,545.8718282999998,,,,,,,547.3747579000001,546.8863425999998,546.8928556000001,546.8928556000001,547.3685033000002,548.5964874000001,548.5964874000001,z,0.42257329999983995,None,,,,,,,,,,,GSR_en,001,2025-03-07_11h22.39.146,MainFlow,2024.2.4,102.50176046791483,2025-03-07 11h22.56.146756 +0700,
2,70,1,word/worden0701.png,image/True/img70.png,157,157,0,z,0.509058599999662,None,0,157,157,157,549.0416805999998,,,,,,,550.5406263999998,550.0452415,550.0521020000001,550.0521020000001,550.5346183000001,551.7712415999999,551.7712415999999,z,0.509058599999662,None,,,,,,,,,,,GSR_en,001,2025-03-07_11h22.39.146,MainFlow,2024.2.4,102.50176046791483,2025-03-07 11h22.56.146756 +0700,
2,40,1,word/worden0401.png,image/True/img40.png,158,158,0,z,0.40309479999996256,None,0,158,158,158,552.2944047000001,,,,,,,553.7970568999999,553.3091150999999,553.3166498999999,553.3166498999999,553.7909257000001,555.0500535000001,555.0500535000001,z,0.40309479999996256,None,,,,,,,,,,,GSR_en,001,2025-03-07_11h22.39.146,MainFlow,2024.2.4,102.50176046791483,2025-03-07 11h22.56.146756 +0700,
2,30,0,word/worden0301.png,image/False/imgf30.png,159,159,0,x,0.9609713999998348,None,0,159,159,159,555.4657152,,,,,,,556.9701546000001,556.4827934,556.4895965000001,556.4895965000001,556.9640795999999,558.2202699,558.2202699,x,0.9609713999998348,None,556.4895965000001,,,,,,,,,,GSR_en,001,2025-03-07_11h22.39.146,MainFlow,2024.2.4,102.50176046791483,2025-03-07 11h22.56.146756 +0700,
2,88,1,word/worden0881.png,image/True/img88.png,160,160,0,z,0.6334544000001188,None,0,160,160,160,559.195416,,,,,,,560.6986940000002,560.2106137000001,560.2172872000001,560.2172872000001,560.6923016000001,561.8693076,561.8693076,z,0.6334544000001188,None,560.2172872000001,,,,,,,,,,GSR_en,001,2025-03-07_11h22.39.146,MainFlow,2024.2.4,102.50176046791483,2025-03-07 11h22.56.146756 +0700,
2,15,1,word/worden0151.png,image/True/img15.png,161,161,0,z,0.36432349999995495,None,0,161,161,161,562.5158040000001,,,,,,,564.0173875999999,563.5287527999999,563.5350767,563.5350767,564.0112848999997,565.2597658,565.2597658,z,0.36432349999995495,None,,,,,,,,,,,GSR_en,001,2025-03-07_11h22.39.146,MainFlow,2024.2.4,102.50176046791483,2025-03-07 11h22.56.146756 +0700,
2,54,1,word/worden0541.png,image/True/img54.png,162,162,0,z,0.46478309999974954,None,0,162,162,162,565.6388865999998,,,,,,,567.1418128999999,566.6544061999998,566.6608839999999,566.6608839999999,567.1354504999999,568.3851427999998,568.3851427999998,z,0.46478309999974954,None,,,,,,,,,,,GSR_en,001,2025-03-07_11h22.39.146,MainFlow,2024.2.4,102.50176046791483,2025-03-07 11h22.56.146756 +0700,
2,11,0,word/worden0111.png,image/False/imgf11.png,163,163,0,x,0.5403364999997393,None,0,163,163,163,568.8598383999997,,,,,,,570.3631618,569.8769401,569.8834725000002,569.8834725000002,570.3566679,571.7024791999997,571.7024791999997,x,0.5403364999997393,None,569.8834725000002,,,,,,,,,,GSR_en,001,2025-03-07_11h22.39.146,MainFlow,2024.2.4,102.50176046791483,2025-03-07 11h22.56.146756 +0700,
2,16,1,word/worden0161.png,image/True/img16.png,164,164,0,z,0.7112852000000203,None,0,164,164,164,572.2573079999997,,,,,,,573.7586274999999,573.2706254,573.2777922,573.2777922,573.7521404999998,575.0533342999997,575.0533342999997,z,0.7112852000000203,None,,,,,,,,,,,GSR_en,001,2025-03-07_11h22.39.146,MainFlow,2024.2.4,102.50176046791483,2025-03-07 11h22.56.146756 +0700,
2,1,1,word/worden0011.png,image/True/img01.png,165,165,0,z,0.3849758000001202,None,0,165,165,165,575.7741775,,,,,,,577.2787263999999,576.7924266,576.7991241999998,576.7991241999998,577.2726540999997,578.5082656999998,578.5082656999998,z,0.3849758000001202,None,576.7991241999998,,,,,,,,,,GSR_en,001,2025-03-07_11h22.39.146,MainFlow,2024.2.4,102.50176046791483,2025-03-07 11h22.56.146756 +0700,
2,22,0,word/worden0221.png,image/False/imgf22.png,166,166,0,x,0.5344804999999724,None,0,166,166,166,578.9084561,,,,,,,580.4100439999997,579.9150765999998,579.9207391999998,579.9207391999998,580.4038476999999,581.6571076999999,581.6571076999999,x,0.5344804999999724,None,,,,,,,,,,,GSR_en,001,2025-03-07_11h22.39.146,MainFlow,2024.2.4,102.50176046791483,2025-03-07 11h22.56.146756 +0700,
2,63,1,word/worden0631.png,image/True/img63.png,167,167,0,z,0.5647345000002133,None,0,167,167,167,582.2043167000002,,,,,,,583.7079386999999,583.2221945000001,583.2286952,583.2286952,583.7016257,584.9629611,584.9629611,z,0.5647345000002133,None,583.2286952,,,,,,,,,,GSR_en,001,2025-03-07_11h22.39.146,MainFlow,2024.2.4,102.50176046791483,2025-03-07 11h22.56.146756 +0700,
2,87,1,word/worden0871.png,image/True/img87.png,168,168,0,z,0.5660112000000481,None,0,168,168,168,585.5397626999998,,,,,,,587.0406045,586.5523171999998,586.5586634000001,586.5586634000001,587.0343742999999,588.3147703,588.3147703,z,0.5660112000000481,None,,,,,,,,,,,GSR_en,001,2025-03-07_11h22.39.146,MainFlow,2024.2.4,102.50176046791483,2025-03-07 11h22.56.146756 +0700,
2,57,0,word/worden0571.png,image/False/imgf57.png,169,169,0,x,0.6517345000002024,None,0,169,169,169,588.8910713,,,,,,,590.3943261,589.907244,589.9139660999999,589.9139660999999,590.3879220999997,591.6024287,591.6024287,x,0.6517345000002024,None,589.9139660999999,,,,,,,,,,GSR_en,001,2025-03-07_11h22.39.146,MainFlow,2024.2.4,102.50176046791483,2025-03-07 11h22.56.146756 +0700,
2,94,0,word/worden0941.png,image/False/imgf94.png,170,170,0,x,0.5402007000002413,None,0,170,170,170,592.2656862999997,,,,,,,593.7620935,593.2646623999999,593.2689639,593.2689639,593.7568588999998,595.002379,595.002379,x,0.5402007000002413,None,595.002379,593.7620935,593.7620935,,,,,,,,GSR_en,001,2025-03-07_11h22.39.146,MainFlow,2024.2.4,102.50176046791483,2025-03-07 11h22.56.146756 +0700,
2,93,0,word/worden0931.png,image/False/imgf93.png,171,171,0,x,0.5724791000002369,None,0,171,171,171,595.5564325999999,,,,,,,597.0595835999998,596.5709947999999,596.5777017999999,596.5777017999999,597.0537421999998,598.2336344999999,598.2336344999999,x,0.5724791000002369,None,596.5777017999999,,,,,,,,,,GSR_en,001,2025-03-07_11h22.39.146,MainFlow,2024.2.4,102.50176046791483,2025-03-07 11h22.56.146756 +0700,
2,61,1,word/worden0611.png,image/True/img61.png,172,172,0,z,0.5368746000003739,None,0,172,172,172,598.8213046000001,,,,,,,600.3228347999998,599.8347872999998,599.8416139000001,599.8416139000001,600.3165648999998,601.5783034000001,601.5783034000001,z,0.5368746000003739,None,,,,,,,,,,,GSR_en,001,2025-03-07_11h22.39.146,MainFlow,2024.2.4,102.50176046791483,2025-03-07 11h22.56.146756 +0700,
2,28,1,word/worden0281.png,image/True/img28.png,173,173,0,z,0.6669643000000178,None,0,173,173,173,602.1249579,,,,,,,603.6277897,603.1419354,603.1483942999998,603.1483942999998,603.6215081,604.8700137999999,604.8700137999999,z,0.6669643000000178,None,,,,,,,,,,,GSR_en,001,2025-03-07_11h22.39.146,MainFlow,2024.2.4,102.50176046791483,2025-03-07 11h22.56.146756 +0700,
2,46,1,word/worden0461.png,image/True/img46.png,174,174,0,z,0.5896477000001141,None,0,174,174,174,605.5473332000001,,,,,,,607.0507911,606.5620029000002,606.5683829999998,606.5683829999998,607.0444953000001,608.2802994999997,608.2802994999997,z,0.5896477000001141,None,606.5683829999998,,,,,,,,,,GSR_en,001,2025-03-07_11h22.39.146,MainFlow,2024.2.4,102.50176046791483,2025-03-07 11h22.56.146756 +0700,
2,22,1,word/worden0221.png,image/True/img22.png,175,175,0,z,0.5536191000001054,None,0,175,175,175,608.8855899999999,,,,,,,610.3902657999997,609.8947174,609.9018264000001,609.9018264000001,610.3841950000001,611.5944288000001,611.5944288000001,z,0.5536191000001054,None,,,,,,,,,,,GSR_en,001,2025-03-07_11h22.39.146,MainFlow,2024.2.4,102.50176046791483,2025-03-07 11h22.56.146756 +0700,
2,93,1,word/worden0931.png,image/True/img93.png,176,176,0,z,0.7192622000002302,None,0,176,176,176,612.1599258000001,,,,,,,613.6608591999998,613.1746549,613.1814134000001,613.1814134000001,613.6544309999999,614.8414204000001,614.8414204000001,z,0.7192622000002302,None,613.1814134000001,,,,,,,,,,GSR_en,001,2025-03-07_11h22.39.146,MainFlow,2024.2.4,102.50176046791483,2025-03-07 11h22.56.146756 +0700,
2,95,1,word/worden0951.png,image/True/img95.png,177,177,0,z,0.6192126999999346,None,0,177,177,177,615.5706347,,,,,,,617.0767486999998,616.5815659999998,616.5880604999998,616.5880604999998,617.0703481999999,618.3081474999999,618.3081474999999,z,0.6192126999999346,None,,,,,,,,,,,GSR_en,001,2025-03-07_11h22.39.146,MainFlow,2024.2.4,102.50176046791483,2025-03-07 11h22.56.146756 +0700,
2,17,0,word/worden0171.png,image/False/imgf17.png,178,178,0,x,0.7412758000000395,None,0,178,178,178,618.9424005000001,,,,,,,620.4437225000001,619.9605277000001,619.9684576999998,619.9684576999998,620.4375175,621.7421126999998,621.7421126999998,x,0.7412758000000395,None,,,,,,,,,,,GSR_en,001,2025-03-07_11h22.39.146,MainFlow,2024.2.4,102.50176046791483,2025-03-07 11h22.56.146756 +0700,
2,26,1,word/worden0261.png,image/True/img26.png,179,179,0,z,0.5724307000000408,None,0,179,179,179,622.4951901,,,,,,,623.998853,623.511998,623.5185667999999,623.5185667999999,623.9925788,625.2289941999998,625.2289941999998,z,0.5724307000000408,None,623.5185667999999,,,,,,,,,,GSR_en,001,2025-03-07_11h22.39.146,MainFlow,2024.2.4,102.50176046791483,2025-03-07 11h22.56.146756 +0700,
2,27,1,word/worden0271.png,image/True/img27.png,180,180,0,z,0.46783289999984845,None,0,180,180,180,625.8179366999998,,,,,,,627.3175931000001,626.8293694999998,626.8364885999999,626.8364885999999,627.3113751999999,628.5438285,628.5438285,z,0.46783289999984845,None,,,,,,,,,,,GSR_en,001,2025-03-07_11h22.39.146,MainFlow,2024.2.4,102.50176046791483,2025-03-07 11h22.56.146756 +0700,
2,31,1,word/worden0311.png,image/True/img31.png,181,181,0,z,0.4592594000000645,None,0,181,181,181,629.024148,,,,,,,630.5253874,630.0300216999999,630.0364177000001,630.0364177000001,630.5192124,631.7440167999998,631.7440167999998,z,0.4592594000000645,None,,,,,,,,,,,GSR_en,001,2025-03-07_11h22.39.146,MainFlow,2024.2.4,102.50176046791483,2025-03-07 11h22.56.146756 +0700,
2,33,0,word/worden0331.png,image/False/imgf33.png,182,182,0,x,0.5275360000000546,None,0,182,182,182,632.2183335,,,,,,,633.7260316000002,633.2316154,633.2381710999998,633.2381710999998,633.7197461999999,634.9399939999998,634.9399939999998,x,0.5275360000000546,None,,,,,,,,,,,GSR_en,001,2025-03-07_11h22.39.146,MainFlow,2024.2.4,102.50176046791483,2025-03-07 11h22.56.146756 +0700,
2,59,1,word/worden0591.png,image/True/img59.png,183,183,0,z,0.4447325000001001,None,0,183,183,183,635.4787461000001,,,,,,,636.9824330000001,636.4937906999999,636.5003312999997,636.5003312999997,636.9762368000002,638.1437827999998,638.1437827999998,z,0.4447325000001001,None,636.5003312999997,,,,,,,,,,GSR_en,001,2025-03-07_11h22.39.146,MainFlow,2024.2.4,102.50176046791483,2025-03-07 11h22.56.146756 +0700,
2,8,1,word/worden0081.png,image/True/img08.png,184,184,0,z,0.5031663999998273,None,0,184,184,184,638.6027141999998,,,,,,,640.1069025000002,639.6189770000001,639.6253526,639.6253526,640.1006487,641.2898615999998,641.2898615999998,z,0.5031663999998273,None,639.6253526,,,,,,,,,,GSR_en,001,2025-03-07_11h22.39.146,MainFlow,2024.2.4,102.50176046791483,2025-03-07 11h22.56.146756 +0700,
2,63,0,word/worden0631.png,image/False/imgf63.png,185,185,0,x,0.5364663999998811,None,0,185,185,185,641.8051068999998,,,,,,,643.3075531999998,642.8118783999998,642.8182063999998,642.8182063999998,643.3016499999999,644.5152394000002,644.5152394000002,x,0.5364663999998811,None,,,,,,,,,,,GSR_en,001,2025-03-07_11h22.39.146,MainFlow,2024.2.4,102.50176046791483,2025-03-07 11h22.56.146756 +0700,
2,30,0,word/worden0301.png,image/False/imgf30.png,186,186,0,x,0.5911450999997214,None,0,186,186,186,645.0609076999999,,,,,,,646.5639952000001,646.0763437999999,646.0828627000001,646.0828627000001,646.5576345999998,647.7583467,647.7583467,x,0.5911450999997214,None,,,,,,,,,,,GSR_en,001,2025-03-07_11h22.39.146,MainFlow,2024.2.4,102.50176046791483,2025-03-07 11h22.56.146756 +0700,
2,15,0,word/worden0151.png,image/False/imgf15.png,187,187,0,x,0.6385595000001558,None,0,187,187,187,648.3560263999998,,,,,,,649.8619346,649.3662297000001,649.3732669000001,649.3732669000001,649.8558321,651.0759171999998,651.0759171999998,x,0.6385595000001558,None,,,,,,,,,,,GSR_en,001,2025-03-07_11h22.39.146,MainFlow,2024.2.4,102.50176046791483,2025-03-07 11h22.56.146756 +0700,
2,71,0,word/worden0711.png,image/False/imgf71.png,188,188,0,x,0.43137380000007397,None,0,188,188,188,651.7223801999999,,,,,,,653.2295104,652.7336144999999,652.7405804,652.7405804,653.2232469999999,654.4492304999999,654.4492304999999,x,0.43137380000007397,None,,,,,,,,,,,GSR_en,001,2025-03-07_11h22.39.146,MainFlow,2024.2.4,102.50176046791483,2025-03-07 11h22.56.146756 +0700,
2,10,0,word/worden0101.png,image/False/imgf10.png,189,189,0,x,0.3884093000001485,None,0,189,189,189,654.8909943999997,,,,,,,656.3951894000002,655.9168865000001,655.9237567,655.9237567,656.3888876000001,657.5761183,657.5761183,x,0.3884093000001485,None,655.9237567,,,,,,,,,,GSR_en,001,2025-03-07_11h22.39.146,MainFlow,2024.2.4,102.50176046791483,2025-03-07 11h22.56.146756 +0700,
2,54,0,word/worden0541.png,image/False/imgf54.png,190,190,0,x,0.5367323999998916,None,0,190,190,190,657.9765333,,,,,,,659.4781386,658.9822779000001,658.9892691999999,658.9892691999999,659.4719629000001,660.6516096999999,660.6516096999999,x,0.5367323999998916,None,,,,,,,,,,,GSR_en,001,2025-03-07_11h22.39.146,MainFlow,2024.2.4,102.50176046791483,2025-03-07 11h22.56.146756 +0700,
2,60,0,word/worden0601.png,image/False/imgf60.png,191,191,0,x,0.5779496000000108,None,0,191,191,191,661.2010930000001,,,,,,,662.7066933000001,662.2145012000001,662.2209499,662.2209499,662.7003111999998,663.9226478,663.9226478,x,0.5779496000000108,None,,,,,,,,,,,GSR_en,001,2025-03-07_11h22.39.146,MainFlow,2024.2.4,102.50176046791483,2025-03-07 11h22.56.146756 +0700,
2,16,0,word/worden0161.png,image/False/imgf16.png,192,192,0,x,0.4437617999997201,None,0,192,192,192,664.5168371999998,,,,,,,666.0184285999999,665.5307382999999,665.5375711000002,665.5375711000002,666.0122793999999,667.2400990000001,667.2400990000001,x,0.4437617999997201,None,,,,,,,,,,,GSR_en,001,2025-03-07_11h22.39.146,MainFlow,2024.2.4,102.50176046791483,2025-03-07 11h22.56.146756 +0700,
2,50,1,word/worden0501.png,image/True/img50.png,193,193,0,z,0.398638099999971,None,0,193,193,193,667.7022480999999,,,,,,,669.2052623,668.7189705000001,668.7258176,668.7258176,669.1991155000001,670.4638335999998,670.4638335999998,z,0.398638099999971,None,668.7258176,,,,,,,,,,GSR_en,001,2025-03-07_11h22.39.146,MainFlow,2024.2.4,102.50176046791483,2025-03-07 11h22.56.146756 +0700,
2,63,1,word/worden0631.png,image/True/img63.png,194,194,0,z,0.7705455000000256,None,0,194,194,194,670.8740806999999,,,,,,,672.3783976,671.8824337000001,671.8888391999999,671.8888391999999,672.3721907999998,673.5869265000001,673.5869265000001,z,0.7705455000000256,None,,,,,,,,,,,GSR_en,001,2025-03-07_11h22.39.146,MainFlow,2024.2.4,102.50176046791483,2025-03-07 11h22.56.146756 +0700,
2,24,0,word/worden0241.png,image/False/imgf24.png,195,195,0,x,0.6921837999998388,None,0,195,195,195,674.3720902999999,,,,,,,675.8776675999998,675.3964707,675.4027563,675.4027563,675.8715710000001,677.0685260999999,677.0685260999999,x,0.6921837999998388,None,,,,,,,,,,,GSR_en,001,2025-03-07_11h22.39.146,MainFlow,2024.2.4,102.50176046791483,2025-03-07 11h22.56.146756 +0700,
2,89,0,word/worden0891.png,image/False/imgf89.png,196,196,0,x,0.7290682999996534,None,0,196,196,196,677.7703898,,,,,,,679.2728437000001,678.7861846000001,678.7927341999998,678.7927341999998,679.2666958999998,680.4614455999999,680.4614455999999,x,0.7290682999996534,None,,,,,,,,,,,GSR_en,001,2025-03-07_11h22.39.146,MainFlow,2024.2.4,102.50176046791483,2025-03-07 11h22.56.146756 +0700,
2,6,0,word/worden0061.png,image/False/imgf06.png,197,197,0,x,0.48554420000027676,None,0,197,197,197,681.2001571000001,,,,,,,682.7025086999997,682.2135533000001,682.2199121999997,682.2199121999997,682.6960915,683.8940532000001,683.8940532000001,x,0.48554420000027676,None,,,,,,,,,,,GSR_en,001,2025-03-07_11h22.39.146,MainFlow,2024.2.4,102.50176046791483,2025-03-07 11h22.56.146756 +0700,
2,41,0,word/worden0411.png,image/False/imgf41.png,198,198,0,x,0.5931139000003895,None,0,198,198,198,684.3932147,,,,,,,685.8967638999998,685.4085921000001,685.4151824999999,685.4151824999999,685.8906271999999,687.0417131999998,687.0417131999998,x,0.5931139000003895,None,685.4151824999999,,,,,,,,,,GSR_en,001,2025-03-07_11h22.39.146,MainFlow,2024.2.4,102.50176046791483,2025-03-07 11h22.56.146756 +0700,
2,79,0,word/worden0791.png,image/False/imgf79.png,199,199,0,x,0.42770000000018626,None,0,199,199,199,687.6498940000001,,,,,,,689.1530078000001,688.6662155999998,688.672705,688.672705,689.146698,690.3871243999997,690.3871243999997,x,0.42770000000018626,None,,,,,,,,,,,GSR_en,001,2025-03-07_11h22.39.146,MainFlow,2024.2.4,102.50176046791483,2025-03-07 11h22.56.146756 +0700,
2,70,1,word/worden0701.png,image/True/img70.png,200,200,0,z,0.3643004000000474,None,0,200,200,200,690.8291012,,,,,,,692.3328812999998,691.8459831999999,691.8525516,691.8525516,692.3267314999998,693.5746014000001,693.5746014000001,z,0.3643004000000474,None,691.8525516,,,,,,,,,,GSR_en,001,2025-03-07_11h22.39.146,MainFlow,2024.2.4,102.50176046791483,2025-03-07 11h22.56.146756 +0700,
2,31,1,word/worden0311.png,image/True/img31.png,201,201,0,z,0.45896440000024086,None,0,201,201,201,693.9498393999997,,,,,,,695.4502748999998,694.9668330999998,694.9736617999997,694.9736617999997,695.4440236,696.6466578999998,696.6466578999998,z,0.45896440000024086,None,,,,,,,,,,,GSR_en,001,2025-03-07_11h22.39.146,MainFlow,2024.2.4,102.50176046791483,2025-03-07 11h22.56.146756 +0700,
2,9,1,word/worden0091.png,image/True/img09.png,202,202,0,z,0.44249879999961195,None,0,202,202,202,697.1164129999997,,,,,,,698.6232891,698.1280102000001,698.1344221999998,698.1344221999998,698.6169356999999,699.7417417000001,699.7417417000001,z,0.44249879999961195,None,,,,,,,,,,,GSR_en,001,2025-03-07_11h22.39.146,MainFlow,2024.2.4,102.50176046791483,2025-03-07 11h22.56.146756 +0700,
2,27,1,word/worden0271.png,image/True/img27.png,203,203,0,z,0.4253212000003259,None,0,203,203,203,700.1954731999999,,,,,,,701.6993363000001,701.2107385999998,701.2171758,701.2171758,701.6929603999997,702.8892980999999,702.8892980999999,z,0.4253212000003259,None,701.2171758,,,,,,,,,,GSR_en,001,2025-03-07_11h22.39.146,MainFlow,2024.2.4,102.50176046791483,2025-03-07 11h22.56.146756 +0700,
2,75,0,word/worden0751.png,image/False/imgf75.png,204,204,0,x,0.5496798000003764,None,0,204,204,204,703.3300494999999,,,,,,,704.8373471999998,704.3432128,704.3500638999999,704.3500638999999,704.8311432,706.0314992999997,706.0314992999997,x,0.5496798000003764,None,,,,,,,,,,,GSR_en,001,2025-03-07_11h22.39.146,MainFlow,2024.2.4,102.50176046791483,2025-03-07 11h22.56.146756 +0700,
2,87,0,word/worden0871.png,image/False/imgf87.png,205,205,0,x,0.6361329999999725,None,0,205,205,205,706.5902793,,,,,,,708.0936327999998,707.6096226,707.6161182000001,707.6161182000001,708.0873739999997,709.2983807,709.2983807,x,0.6361329999999725,None,707.6161182000001,,,,,,,,,,GSR_en,001,2025-03-07_11h22.39.146,MainFlow,2024.2.4,102.50176046791483,2025-03-07 11h22.56.146756 +0700,
2,8,0,word/worden0081.png,image/False/imgf08.png,206,206,0,x,0.5932284000000436,None,0,206,206,206,709.9471736999999,,,,,,,711.4471687999999,710.9589169999999,710.9653635999998,710.9653635999998,711.4409310000001,712.6828203,712.6828203,x,0.5932284000000436,None,,,,,,,,,,,GSR_en,001,2025-03-07_11h22.39.146,MainFlow,2024.2.4,102.50176046791483,2025-03-07 11h22.56.146756 +0700,
2,24,1,word/worden0241.png,image/True/img24.png,207,207,0,z,0.5245316999998977,None,0,207,207,207,713.2908935,,,,,,,714.7937643999999,714.3056529999999,714.3118844999999,714.3118844999999,714.7874766,715.9395199999999,715.9395199999999,z,0.5245316999998977,None,,,,,,,,,,,GSR_en,001,2025-03-07_11h22.39.146,MainFlow,2024.2.4,102.50176046791483,2025-03-07 11h22.56.146756 +0700,
2,14,1,word/worden0141.png,image/True/img14.png,208,208,0,z,0.4474129999998695,None,0,208,208,208,716.4764700999999,,,,,,,717.9809866,717.4930914000001,717.4998304000001,717.4998304000001,717.9747342999999,719.1782345000001,719.1782345000001,z,0.4474129999998695,None,717.4998304000001,,,,,,,,,,GSR_en,001,2025-03-07_11h22.39.146,MainFlow,2024.2.4,102.50176046791483,2025-03-07 11h22.56.146756 +0700,
2,87,1,word/worden0871.png,image/True/img87.png,209,209,0,x,0.48842080000031274,None,0,209,209,209,719.6344346999999,,,,,,,721.1403918999999,720.6440133000001,720.6515829999998,720.6515829999998,721.1335881,722.3523927000001,722.3523927000001,x,0.48842080000031274,None,,,,,,,,,,,GSR_en,001,2025-03-07_11h22.39.146,MainFlow,2024.2.4,102.50176046791483,2025-03-07 11h22.56.146756 +0700,
2,42,0,word/worden0421.png,image/False/imgf42.png,210,210,0,x,0.6365434000003916,None,0,210,210,210,722.8486929000001,,,,,,,724.3547451,723.8596493,723.8661947,723.8661947,724.3483112999998,725.5699593999998,725.5699593999998,x,0.6365434000003916,None,,,,,,,,,,,GSR_en,001,2025-03-07_11h22.39.146,MainFlow,2024.2.4,102.50176046791483,2025-03-07 11h22.56.146756 +0700,
2,48,0,word/worden0481.png,image/False/imgf48.png,211,211,0,x,0.41902870000012626,None,0,211,211,211,726.2173493999999,,,,,,,727.7218103,727.2238732000001,727.2283702999998,727.2283702999998,727.7155592999998,728.9564654000001,728.9564654000001,x,0.41902870000012626,None,727.2283702999998,,,,,,,,,,GSR_en,001,2025-03-07_11h22.39.146,MainFlow,2024.2.4,102.50176046791483,2025-03-07 11h22.56.146756 +0700,
2,56,0,word/worden0561.png,image/False/imgf56.png,212,212,0,x,0.6467276000003039,None,0,212,212,212,729.3931103,,,,,,,730.8948672000001,730.4080749,730.4145304999997,730.4145304999997,730.8884861000001,732.1670374,732.1670374,x,0.6467276000003039,None,,,,,,,,,,,GSR_en,001,2025-03-07_11h22.39.146,MainFlow,2024.2.4,102.50176046791483,2025-03-07 11h22.56.146756 +0700,
2,18,0,word/worden0181.png,image/False/imgf18.png,213,213,0,x,0.4745471000001089,None,0,213,213,213,732.8295703999997,,,,,,,734.3316617,733.8443272999998,733.8515220999998,733.8515220999998,734.3255267999998,735.5905899999998,735.5905899999998,x,0.4745471000001089,None,,,,,,,,,,,GSR_en,001,2025-03-07_11h22.39.146,MainFlow,2024.2.4,102.50176046791483,2025-03-07 11h22.56.146756 +0700,
2,18,0,word/worden0181.png,image/False/imgf18.png,214,214,0,x,1.5139417000000321,None,0,214,214,214,736.0741748999999,,,,,,,737.5810735999999,737.0870359999999,737.0938643,737.0938643,737.5748754000001,738.7796681,738.7796681,x,1.5139417000000321,None,,,,,,,,,,,GSR_en,001,2025-03-07_11h22.39.146,MainFlow,2024.2.4,102.50176046791483,2025-03-07 11h22.56.146756 +0700,
2,9,0,word/worden0091.png,image/False/imgf09.png,215,215,0,x,0.9006650999999692,None,0,215,215,215,740.3078455,,,,,,,741.8096623000001,741.3155984,741.3222233000001,741.3222233000001,741.8034174,742.9754013000002,742.9754013000002,x,0.9006650999999692,None,,,,,,,,,,,GSR_en,001,2025-03-07_11h22.39.146,MainFlow,2024.2.4,102.50176046791483,2025-03-07 11h22.56.146756 +0700,
2,55,0,word/worden0551.png,image/False/imgf55.png,216,216,0,x,0.5919038999995792,None,0,216,216,216,743.8893419000001,,,,,,,745.3919237,744.9062040999997,744.9128562999999,744.9128562999999,745.3856634999997,746.6040586999998,746.6040586999998,x,0.5919038999995792,None,,,,,,,,,,,GSR_en,001,2025-03-07_11h22.39.146,MainFlow,2024.2.4,102.50176046791483,2025-03-07 11h22.56.146756 +0700,
2,17,0,word/worden0171.png,image/False/imgf17.png,217,217,0,x,0.6115609999997105,None,0,217,217,217,747.2093132999998,,,,,,,748.7109240999998,748.2180730999999,748.2247069999999,748.2247069999999,748.7046437999998,749.9210413999999,749.9210413999999,x,0.6115609999997105,None,,,,,,,,,,,GSR_en,001,2025-03-07_11h22.39.146,MainFlow,2024.2.4,102.50176046791483,2025-03-07 11h22.56.146756 +0700,
2,50,1,word/worden0501.png,image/True/img50.png,218,218,0,z,0.4225166999999601,None,0,218,218,218,750.5505938000001,,,,,,,752.0505804999998,751.5647290000002,751.5712224999997,751.5712224999997,752.0443388999997,753.2610672000001,753.2610672000001,z,0.4225166999999601,None,,,,,,,,,,,GSR_en,001,2025-03-07_11h22.39.146,MainFlow,2024.2.4,102.50176046791483,2025-03-07 11h22.56.146756 +0700,
2,20,0,word/worden0201.png,image/False/imgf20.png,219,219,0,x,0.5653602000002138,None,0,219,219,219,753.6948713000002,,,,,,,755.1955800000001,754.7103957999998,754.7177080000001,754.7177080000001,755.1893838999999,756.4909029,756.4909029,x,0.5653602000002138,None,,,,,,,,,,,GSR_en,001,2025-03-07_11h22.39.146,MainFlow,2024.2.4,102.50176046791483,2025-03-07 11h22.56.146756 +0700,
2,36,0,word/worden0361.png,image/False/imgf36.png,220,220,0,x,0.6376773000001776,None,0,220,220,220,757.0631436999997,,,,,,,758.5559760000001,758.0597586999997,758.0635880999998,758.0635880999998,758.5503687,759.8050179000002,759.8050179000002,x,0.6376773000001776,None,759.8050179000002,758.5559760000001,758.5559760000001,,,,,,,,GSR_en,001,2025-03-07_11h22.39.146,MainFlow,2024.2.4,102.50176046791483,2025-03-07 11h22.56.146756 +0700,
2,7,0,word/worden0071.png,image/False/imgf07.png,221,221,0,x,0.4271433999997498,None,0,221,221,221,760.4570343,,,,,,,761.9583957,761.4712933000001,761.4779946999997,761.4779946999997,761.9523513999998,763.1524003,763.1524003,x,0.4271433999997498,None,,,,,,,,,,,GSR_en,001,2025-03-07_11h22.39.146,MainFlow,2024.2.4,102.50176046791483,2025-03-07 11h22.56.146756 +0700,
2,7,1,word/worden0071.png,image/True/img07.png,222,222,0,z,0.5131139000000076,None,0,222,222,222,763.5949219999998,,,,,,,765.0966877000001,764.6099236999999,764.6164374,764.6164374,765.0903751999999,766.3021966000001,766.3021966000001,z,0.5131139000000076,None,,,,,,,,,,,GSR_en,001,2025-03-07_11h22.39.146,MainFlow,2024.2.4,102.50176046791483,2025-03-07 11h22.56.146756 +0700,
2,70,0,word/worden0701.png,image/False/imgf70.png,223,223,0,x,0.7254686000001129,None,0,223,223,223,766.8303572999998,,,,,,,768.3320159999998,767.8452176999999,767.8520820999997,767.8520820999997,768.3257156,769.5303921,769.5303921,x,0.7254686000001129,None,,,,,,,,,,,GSR_en,001,2025-03-07_11h22.39.146,MainFlow,2024.2.4,102.50176046791483,2025-03-07 11h22.56.146756 +0700,
2,68,0,word/worden0681.png,image/False/imgf68.png,224,224,0,x,0.491226000000097,None,0,224,224,224,770.2669713,,,,,,,771.7686988999999,771.281324,771.2877008999999,771.2877008999999,771.7625840000001,772.9420485,772.9420485,x,0.491226000000097,None,,,,,,,,,,,GSR_en,001,2025-03-07_11h22.39.146,MainFlow,2024.2.4,102.50176046791483,2025-03-07 11h22.56.146756 +0700,
2,23,0,word/worden0231.png,image/False/imgf23.png,225,225,0,x,0.4569726999998238,None,0,225,225,225,773.4446013000002,,,,,,,774.9488379,774.4628613,774.4693119999997,774.4693119999997,774.9426801999998,776.1903803,776.1903803,x,0.4569726999998238,None,774.4693119999997,,,,,,,,,,GSR_en,001,2025-03-07_11h22.39.146,MainFlow,2024.2.4,102.50176046791483,2025-03-07 11h22.56.146756 +0700,
2,56,0,word/worden0561.png,image/False/imgf56.png,226,226,0,x,0.4793315000001712,None,0,226,226,226,776.6629834999999,,,,,,,778.1633370999998,777.6781602000001,777.6872217999999,777.6872217999999,778.1568914,779.3598978999999,779.3598978999999,x,0.4793315000001712,None,,,,,,,,,,,GSR_en,001,2025-03-07_11h22.39.146,MainFlow,2024.2.4,102.50176046791483,2025-03-07 11h22.56.146756 +0700,
2,17,1,word/worden0171.png,image/True/img17.png,227,227,0,z,0.5542659000002459,None,0,227,227,227,779.8532743999999,,,,,,,781.3434093000001,780.8497625,780.8545537,780.8545537,781.3383665000001,782.5421271999999,782.5421271999999,z,0.5542659000002459,None,782.5421271999999,781.3434093000001,781.3434093000001,,,,,,,,GSR_en,001,2025-03-07_11h22.39.146,MainFlow,2024.2.4,102.50176046791483,2025-03-07 11h22.56.146756 +0700,
2,94,1,word/worden0941.png,image/True/img94.png,228,228,0,z,0.5601288000002569,None,0,228,228,228,783.1138922999999,,,,,,,784.6207381999998,784.1286058000001,784.1359340999998,784.1359340999998,784.6143797,785.8604258999999,785.8604258999999,z,0.5601288000002569,None,,,,,,,,,,,GSR_en,001,2025-03-07_11h22.39.146,MainFlow,2024.2.4,102.50176046791483,2025-03-07 11h22.56.146756 +0700,
2,96,0,word/worden0961.png,image/False/imgf96.png,229,229,0,x,0.5630248000002211,None,0,229,229,229,786.4367735000001,,,,,,,787.9392929,787.4520001999999,787.4583069,787.4583069,787.9330762999998,789.1438444999999,789.1438444999999,x,0.5630248000002211,None,,,,,,,,,,,GSR_en,001,2025-03-07_11h22.39.146,MainFlow,2024.2.4,102.50176046791483,2025-03-07 11h22.56.146756 +0700,
2,82,0,word/worden0821.png,image/False/imgf82.png,230,230,0,x,0.5622825000000375,None,0,230,230,230,789.7167113999999,,,,,,,791.2236030999998,790.7299462000001,790.7364029999999,790.7364029999999,791.2171410999999,792.4263961000001,792.4263961000001,x,0.5622825000000375,None,,,,,,,,,,,GSR_en,001,2025-03-07_11h22.39.146,MainFlow,2024.2.4,102.50176046791483,2025-03-07 11h22.56.146756 +0700,
2,36,1,word/worden0361.png,image/True/img36.png,231,231,0,z,0.6215439999996306,None,0,231,231,231,793.0018197999998,,,,,,,794.5005845000001,793.9998394999998,794.0048339,794.0048339,794.4955334000001,795.6919207000001,795.6919207000001,z,0.6215439999996306,None,,794.5005845000001,794.5005845000001,,,,,,,,GSR_en,001,2025-03-07_11h22.39.146,MainFlow,2024.2.4,102.50176046791483,2025-03-07 11h22.56.146756 +0700,
2,44,1,word/worden0441.png,image/True/img44.png,232,232,0,z,0.7277812999996058,None,0,232,232,232,796.3231925999999,,,,,,,797.8266041000002,797.3390853000001,797.3457285999998,797.3457285999998,797.8202431,799.0098635999998,799.0098635999998,z,0.7277812999996058,None,797.3457285999998,,,,,,,,,,GSR_en,001,2025-03-07_11h22.39.146,MainFlow,2024.2.4,102.50176046791483,2025-03-07 11h22.56.146756 +0700,
2,66,1,word/worden0661.png,image/True/img66.png,233,233,0,z,0.609025599999768,None,0,233,233,233,799.7524098999997,,,,,,,801.2564099000001,800.7684645999998,800.7750262,800.7750262,801.2502441000001,802.4619208999998,802.4619208999998,z,0.609025599999768,None,800.7750262,,,,,,,,,,GSR_en,001,2025-03-07_11h22.39.146,MainFlow,2024.2.4,102.50176046791483,2025-03-07 11h22.56.146756 +0700,
2,38,0,word/worden0381.png,image/False/imgf38.png,234,234,0,x,0.4676700999998502,None,0,234,234,234,803.0824837,,,,,,,804.5888601000001,804.0942870999997,804.1006930999997,804.1006930999997,804.5827675,805.8501686999998,805.8501686999998,x,0.4676700999998502,None,,,,,,,,,,,GSR_en,001,2025-03-07_11h22.39.146,MainFlow,2024.2.4,102.50176046791483,2025-03-07 11h22.56.146756 +0700,
2,11,1,word/worden0111.png,image/True/img11.png,235,235,0,z,0.7553592999997818,None,0,235,235,235,806.3274455000001,,,,,,,807.8313955999997,807.3312855999998,807.3359608000001,807.3359608000001,807.8250947000001,809.1458708999999,809.1458708999999,z,0.7553592999997818,None,807.3359608000001,,,,,,,,,,GSR_en,001,2025-03-07_11h22.39.146,MainFlow,2024.2.4,102.50176046791483,2025-03-07 11h22.56.146756 +0700,
2,94,1,word/worden0941.png,image/True/img94.png,236,236,0,z,0.4342877999997654,None,0,236,236,236,809.9137074999999,,,,,,,811.4139596,810.9196934000001,810.9258144,810.9258144,811.4079352999997,812.6971843000001,812.6971843000001,z,0.4342877999997654,None,,,,,,,,,,,GSR_en,001,2025-03-07_11h22.39.146,MainFlow,2024.2.4,102.50176046791483,2025-03-07 11h22.56.146756 +0700,
2,28,0,word/worden0281.png,image/False/imgf28.png,237,237,0,x,0.5970955000002505,None,0,237,237,237,813.1431711,,,,,,,814.6494984999999,814.1564623999998,814.1628606999998,814.1628606999998,814.6431555999998,815.8468705999999,815.8468705999999,x,0.5970955000002505,None,,,,,,,,,,,GSR_en,001,2025-03-07_11h22.39.146,MainFlow,2024.2.4,102.50176046791483,2025-03-07 11h22.56.146756 +0700,
2,61,1,word/worden0611.png,image/True/img61.png,238,238,0,z,0.5520802000000913,None,0,238,238,238,816.4581217,,,,,,,817.9616206999999,817.4742731000001,817.4816359000001,817.4816359000001,817.9553322000002,819.1665244000001,819.1665244000001,z,0.5520802000000913,None,817.4816359000001,,,,,,,,,,GSR_en,001,2025-03-07_11h22.39.146,MainFlow,2024.2.4,102.50176046791483,2025-03-07 11h22.56.146756 +0700,
2,41,1,word/worden0411.png,image/True/img41.png,239,239,0,z,0.6146537999998145,None,0,239,239,239,819.730638,,,,,,,821.2316259999998,820.7438686,820.7503132000002,820.7503132000002,821.2255528000001,822.4431347999998,822.4431347999998,z,0.6146537999998145,None,,,,,,,,,,,GSR_en,001,2025-03-07_11h22.39.146,MainFlow,2024.2.4,102.50176046791483,2025-03-07 11h22.56.146756 +0700,
,,,,,,,,,,,,,,,,,,,,,,,,,,,,,,,,,,,823.0613751000001,823.0722376999997,823.0722376999997,824.5947053,space,1.5179183999998713,None,GSR_en,001,2025-03-07_11h22.39.146,MainFlow,2024.2.4,102.50176046791483,2025-03-07 11h22.56.146756 +0700,
