lang,wordid,truestate,worddir,imgdir,thisN,thisTrialN,thisRepN,key_resp.keys,key_resp.rt,key_resp.duration,trials.thisRepN,trials.thisTrialN,trials.thisN,trials.thisIndex,thisRow.t,notes,tutorial.started,tutorial.stopped,key_instruct.keys,key_instruct.rt,key_instruct.duration,plusblank.started,wordshow.started,image.started,plsuer.started,wordshow.stopped,imageword.started,key_resp.started,trials.key_resp.keys,trials.key_resp.rt,trials.key_resp.duration,plusblank.stopped,image.stopped,plsuer.stopped,ending.started,text_3.started,ending_key.started,ending.stopped,ending_key.keys,ending_key.rt,ending_key.duration,participant,session,date,expName,psychopyVersion,frameRate,expStart,
,,,,,,,,,,,,,,,,,0.0056785000001582375,1.5281458999997994,space,1.4806287000001248,None,,,,,,,,,,,,,,,,,,,,,GSR_th,001,2025-03-07_11h37.46.767,MainFlow,2024.2.4,146.4757209166979,2025-03-07 11h38.11.485926 +0700,
1,51,0,word/wordth0511.png,image/False/imgf51.png,0,0,0,x,0.5274441999999908,None,0,0,0,0,1.6517794000001231,,,,,,,3.0373239999998987,2.6476435999998102,2.7100193000001127,2.7100193000001127,3.030680200000006,4.3301086000001305,4.3301086000001305,x,0.5274441999999908,None,,,,,,,,,,,GSR_th,001,2025-03-07_11h37.46.767,MainFlow,2024.2.4,146.4757209166979,2025-03-07 11h38.11.485926 +0700,
1,66,1,word/wordth0661.png,image/True/img66.png,1,1,0,z,0.3906995000002098,None,0,1,1,1,4.867066199999954,,,,,,,6.3700872999997955,5.913669200000186,5.920179400000052,5.920179400000052,6.363796300000104,7.567027600000074,7.567027600000074,z,0.3906995000002098,None,,,,,,,,,,,GSR_th,001,2025-03-07_11h37.46.767,MainFlow,2024.2.4,146.4757209166979,2025-03-07 11h38.11.485926 +0700,
1,60,1,word/wordth0601.png,image/True/img60.png,2,2,0,z,0.5184764000000541,None,0,2,2,2,7.968127099999947,,,,,,,9.473803800000042,9.010934800000086,9.017615000000205,9.017615000000205,9.46760489999997,10.650388699999894,10.650388699999894,z,0.5184764000000541,None,,,,,,,,,,,GSR_th,001,2025-03-07_11h37.46.767,MainFlow,2024.2.4,146.4757209166979,2025-03-07 11h38.11.485926 +0700,
1,46,0,word/wordth0461.png,image/False/imgf46.png,3,3,0,x,0.5471333000000413,None,0,3,3,3,11.180636399999912,,,,,,,12.682187899999917,12.221494699999766,12.230522800000017,12.230522800000017,12.676105000000007,13.912224600000172,13.912224600000172,x,0.5471333000000413,None,,,,,,,,,,,GSR_th,001,2025-03-07_11h37.46.767,MainFlow,2024.2.4,146.4757209166979,2025-03-07 11h38.11.485926 +0700,
1,24,1,word/wordth0241.png,image/True/img24.png,4,4,0,z,0.3620637999997598,None,0,4,4,4,14.47037309999996,,,,,,,15.973061300000154,15.51496589999988,15.522976400000061,15.522976400000061,15.96689460000016,17.12365890000001,17.12365890000001,z,0.3620637999997598,None,,,,,,,,,,,GSR_th,001,2025-03-07_11h37.46.767,MainFlow,2024.2.4,146.4757209166979,2025-03-07 11h38.11.485926 +0700,
1,68,1,word/wordth0681.png,image/True/img68.png,5,5,0,z,0.3874166000000514,None,0,5,5,5,17.50226100000009,,,,,,,19.007366100000127,18.543047300000126,18.55078850000018,18.55078850000018,19.001351299999897,20.156926099999964,20.156926099999964,z,0.3874166000000514,None,,,,,,,,,,,GSR_th,001,2025-03-07_11h37.46.767,MainFlow,2024.2.4,146.4757209166979,2025-03-07 11h38.11.485926 +0700,
1,22,0,word/wordth0221.png,image/False/imgf22.png,6,6,0,x,0.48165770000014163,None,0,6,6,6,20.556059399999867,,,,,,,22.062355300000036,21.594705800000156,21.6028795000002,21.6028795000002,22.056286399999863,23.262438799999927,23.262438799999927,x,0.48165770000014163,None,,,,,,,,,,,GSR_th,001,2025-03-07_11h37.46.767,MainFlow,2024.2.4,146.4757209166979,2025-03-07 11h38.11.485926 +0700,
1,36,1,word/wordth0361.png,image/True/img36.png,7,7,0,z,0.38658910000003743,None,0,7,7,7,23.756051800000023,,,,,,,25.25516349999998,24.79795980000017,24.80425439999999,24.80425439999999,25.249008100000083,26.429624700000204,26.429624700000204,z,0.38658910000003743,None,,,,,,,,,,,GSR_th,001,2025-03-07_11h37.46.767,MainFlow,2024.2.4,146.4757209166979,2025-03-07 11h38.11.485926 +0700,
1,68,0,word/wordth0681.png,image/False/imgf68.png,8,8,0,z,0.3931597000000693,None,0,8,8,8,26.826506299999892,,,,,,,28.33112859999983,27.835455899999943,27.841914799999813,27.841914799999813,28.3248451999998,29.46997169999986,29.46997169999986,z,0.3931597000000693,None,,,,,,,,,,,GSR_th,001,2025-03-07_11h37.46.767,MainFlow,2024.2.4,146.4757209166979,2025-03-07 11h38.11.485926 +0700,
1,16,1,word/wordth0161.png,image/True/img16.png,9,9,0,z,0.4469938000002003,None,0,9,9,9,29.875700399999914,,,,,,,31.379570200000217,30.92385490000015,30.930911299999934,30.930911299999934,31.3735072999998,32.62109109999983,32.62109109999983,z,0.4469938000002003,None,,,,,,,,,,,GSR_th,001,2025-03-07_11h37.46.767,MainFlow,2024.2.4,146.4757209166979,2025-03-07 11h38.11.485926 +0700,
1,94,1,word/wordth0941.png,image/True/img94.png,10,10,0,z,0.748640300000261,None,0,10,10,10,33.08483440000009,,,,,,,34.58772339999996,34.131521899999825,34.139306699999906,34.139306699999906,34.58173739999984,35.78391099999999,35.78391099999999,z,0.748640300000261,None,,,,,,,,,,,GSR_th,001,2025-03-07_11h37.46.767,MainFlow,2024.2.4,146.4757209166979,2025-03-07 11h38.11.485926 +0700,
1,95,0,word/wordth0951.png,image/False/imgf95.png,11,11,0,x,0.49941820000003645,None,0,11,11,11,36.543323599999894,,,,,,,38.04417620000004,37.584983300000204,37.591633399999864,37.591633399999864,38.037793500000134,39.252876800000195,39.252876800000195,x,0.49941820000003645,None,,,,,,,,,,,GSR_th,001,2025-03-07_11h37.46.767,MainFlow,2024.2.4,146.4757209166979,2025-03-07 11h38.11.485926 +0700,
1,30,0,word/wordth0301.png,image/False/imgf30.png,12,12,0,x,0.7754550999998173,None,0,12,12,12,39.761729899999864,,,,,,,41.26621549999982,40.79998680000017,40.80667809999977,40.80667809999977,41.26010899999983,42.54859859999988,42.54859859999988,x,0.7754550999998173,None,,,,,,,,,,,GSR_th,001,2025-03-07_11h37.46.767,MainFlow,2024.2.4,146.4757209166979,2025-03-07 11h38.11.485926 +0700,
1,20,1,word/wordth0201.png,image/True/img20.png,13,13,0,z,0.6005784000003587,None,0,13,13,13,43.337358400000085,,,,,,,44.84189500000002,44.37732679999999,44.38391619999993,44.38391619999993,44.8356503,46.05667009999979,46.05667009999979,z,0.6005784000003587,None,,,,,,,,,,,GSR_th,001,2025-03-07_11h37.46.767,MainFlow,2024.2.4,146.4757209166979,2025-03-07 11h38.11.485926 +0700,
1,42,0,word/wordth0421.png,image/False/imgf42.png,14,14,0,x,0.4095078000000285,None,0,14,14,14,46.67386170000009,,,,,,,48.17502590000004,47.714565499999935,47.72184100000004,47.72184100000004,48.168924799999786,49.40345530000013,49.40345530000013,x,0.4095078000000285,None,,,,,,,,,,,GSR_th,001,2025-03-07_11h37.46.767,MainFlow,2024.2.4,146.4757209166979,2025-03-07 11h38.11.485926 +0700,
1,31,1,word/wordth0311.png,image/True/img31.png,15,15,0,z,0.4278260999999475,None,0,15,15,15,49.82421190000014,,,,,,,51.32755610000004,50.8623462999999,50.87023390000013,50.87023390000013,51.32149500000014,52.510058599999866,52.510058599999866,z,0.4278260999999475,None,,,,,,,,,,,GSR_th,001,2025-03-07_11h37.46.767,MainFlow,2024.2.4,146.4757209166979,2025-03-07 11h38.11.485926 +0700,
1,55,1,word/wordth0551.png,image/True/img55.png,16,16,0,z,1.0789223000001584,None,0,16,16,16,52.955412499999966,,,,,,,54.458040900000015,54.001108399999794,54.00755079999999,54.00755079999999,54.45159590000003,55.67944519999992,55.67944519999992,z,1.0789223000001584,None,,,,,,,,,,,GSR_th,001,2025-03-07_11h37.46.767,MainFlow,2024.2.4,146.4757209166979,2025-03-07 11h38.11.485926 +0700,
1,36,1,word/wordth0361.png,image/True/img36.png,17,17,0,z,0.5913784000003943,None,0,17,17,17,56.771125400000074,,,,,,,58.276842000000215,57.78394960000014,57.79062990000011,57.79062990000011,58.27064490000021,59.45574559999977,59.45574559999977,z,0.5913784000003943,None,,,,,,,,,,,GSR_th,001,2025-03-07_11h37.46.767,MainFlow,2024.2.4,146.4757209166979,2025-03-07 11h38.11.485926 +0700,
1,9,1,word/wordth0091.png,image/True/img09.png,18,18,0,z,0.6973527000000104,None,0,18,18,18,60.05915090000008,,,,,,,61.56144670000003,61.100133899999946,61.10768250000001,61.10768250000001,61.55539640000006,62.72163330000012,62.72163330000012,z,0.6973527000000104,None,,,,,,,,,,,GSR_th,001,2025-03-07_11h37.46.767,MainFlow,2024.2.4,146.4757209166979,2025-03-07 11h38.11.485926 +0700,
1,64,1,word/wordth0641.png,image/True/img64.png,19,19,0,z,0.7040461000001415,None,0,19,19,19,63.430900700000166,,,,,,,64.9347815000001,64.47259089999989,64.47902590000012,64.47902590000012,64.9283532999998,66.0873388,66.0873388,z,0.7040461000001415,None,,,,,,,,,,,GSR_th,001,2025-03-07_11h37.46.767,MainFlow,2024.2.4,146.4757209166979,2025-03-07 11h38.11.485926 +0700,
1,95,1,word/wordth0951.png,image/True/img95.png,20,20,0,z,0.6150971000001846,None,0,20,20,20,66.80712409999978,,,,,,,68.30938460000016,67.82176410000011,67.82822669999996,67.82822669999996,68.30341039999985,69.52700719999984,69.52700719999984,z,0.6150971000001846,None,,,,,,,,,,,GSR_th,001,2025-03-07_11h37.46.767,MainFlow,2024.2.4,146.4757209166979,2025-03-07 11h38.11.485926 +0700,
1,41,1,word/wordth0411.png,image/True/img41.png,21,21,0,z,2.402907299999697,None,0,21,21,21,70.15291939999997,,,,,,,71.65639730000021,71.19383209999978,71.20088609999993,71.20088609999993,71.6503803999999,72.87571209999987,72.87571209999987,z,2.402907299999697,None,,,,,,,,,,,GSR_th,001,2025-03-07_11h37.46.767,MainFlow,2024.2.4,146.4757209166979,2025-03-07 11h38.11.485926 +0700,
1,8,1,word/wordth0081.png,image/True/img08.png,22,22,0,z,0.6476308999999674,None,0,22,22,22,75.28931079999984,,,,,,,76.79401820000021,76.3275294,76.33407720000014,76.33407720000014,76.78763429999981,77.96859349999977,77.96859349999977,z,0.6476308999999674,None,,,,,,,,,,,GSR_th,001,2025-03-07_11h37.46.767,MainFlow,2024.2.4,146.4757209166979,2025-03-07 11h38.11.485926 +0700,
1,60,1,word/wordth0601.png,image/True/img60.png,23,23,0,z,1.046895900000436,None,0,23,23,23,78.62857949999989,,,,,,,80.13351640000019,79.64040729999988,79.64674139999988,79.64674139999988,80.1272085999999,81.32200590000002,81.32200590000002,z,1.046895900000436,None,,,,,,,,,,,GSR_th,001,2025-03-07_11h37.46.767,MainFlow,2024.2.4,146.4757209166979,2025-03-07 11h38.11.485926 +0700,
1,48,0,word/wordth0481.png,image/False/imgf48.png,24,24,0,x,0.657130000000052,None,0,24,24,24,82.37727039999982,,,,,,,83.88266879999992,83.41846690000011,83.42497510000021,83.42497510000021,83.87643320000006,85.11416139999983,85.11416139999983,x,0.657130000000052,None,,,,,,,,,,,GSR_th,001,2025-03-07_11h37.46.767,MainFlow,2024.2.4,146.4757209166979,2025-03-07 11h38.11.485926 +0700,
1,41,0,word/wordth0411.png,image/False/imgf41.png,25,25,0,x,0.6532521999997698,None,0,25,25,25,85.77816029999985,,,,,,,87.28502380000009,86.79130399999985,86.79800209999985,86.79800209999985,87.27867969999988,88.43328250000013,88.43328250000013,x,0.6532521999997698,None,,,,,,,,,,,GSR_th,001,2025-03-07_11h37.46.767,MainFlow,2024.2.4,146.4757209166979,2025-03-07 11h38.11.485926 +0700,
1,54,0,word/wordth0541.png,image/False/imgf54.png,26,26,0,x,0.5838963999999578,None,0,26,26,26,89.10091060000013,,,,,,,90.60469779999994,90.14665560000003,90.15421860000015,90.15421860000015,90.59734620000017,91.77178869999989,91.77178869999989,x,0.5838963999999578,None,90.15421860000015,,,,,,,,,,GSR_th,001,2025-03-07_11h37.46.767,MainFlow,2024.2.4,146.4757209166979,2025-03-07 11h38.11.485926 +0700,
1,54,1,word/wordth0541.png,image/True/img54.png,27,27,0,z,0.6957609000000957,None,0,27,27,27,92.36854230000017,,,,,,,93.87406629999987,93.3799211999999,93.3865138000001,93.3865138000001,93.86778539999978,95.10265119999985,95.10265119999985,z,0.6957609000000957,None,,,,,,,,,,,GSR_th,001,2025-03-07_11h37.46.767,MainFlow,2024.2.4,146.4757209166979,2025-03-07 11h38.11.485926 +0700,
1,63,0,word/wordth0631.png,image/False/imgf63.png,28,28,0,x,0.8725134999999682,None,0,28,28,28,95.80862810000008,,,,,,,97.31064890000016,96.85381760000018,96.86032509999995,96.86032509999995,97.30477920000021,98.54116999999997,98.54116999999997,x,0.8725134999999682,None,,,,,,,,,,,GSR_th,001,2025-03-07_11h37.46.767,MainFlow,2024.2.4,146.4757209166979,2025-03-07 11h38.11.485926 +0700,
1,37,0,word/wordth0371.png,image/False/imgf37.png,29,29,0,x,2.4544763999997485,None,0,29,29,29,99.4235279999998,,,,,,,100.92810740000004,100.44538469999998,100.45010890000003,100.45010890000003,100.92199729999993,102.18441810000013,102.18441810000013,x,2.4544763999997485,None,100.45010890000003,,,,,,,,,,GSR_th,001,2025-03-07_11h37.46.767,MainFlow,2024.2.4,146.4757209166979,2025-03-07 11h38.11.485926 +0700,
1,54,0,word/wordth0541.png,image/False/imgf54.png,30,30,0,x,0.6140270999999302,None,0,30,30,30,104.65518470000006,,,,,,,106.15640519999988,105.67178130000002,105.67929270000013,105.67929270000013,106.15010389999998,107.38766990000022,107.38766990000022,x,0.6140270999999302,None,,,,,,,,,,,GSR_th,001,2025-03-07_11h37.46.767,MainFlow,2024.2.4,146.4757209166979,2025-03-07 11h38.11.485926 +0700,
1,48,1,word/wordth0481.png,image/True/img48.png,31,31,0,z,0.7186123999999836,None,0,31,31,31,108.01282910000009,,,,,,,109.51655290000008,109.03031760000022,109.03665659999979,109.03665659999979,109.51019499999984,110.73122060000014,110.73122060000014,z,0.7186123999999836,None,109.03665659999979,,,,,,,,,,GSR_th,001,2025-03-07_11h37.46.767,MainFlow,2024.2.4,146.4757209166979,2025-03-07 11h38.11.485926 +0700,
1,26,0,word/wordth0261.png,image/False/imgf26.png,32,32,0,x,1.4104961999996704,None,0,32,32,32,111.46514329999991,,,,,,,112.96793669999988,112.5105996000002,112.5174221000002,112.5174221000002,112.96160469999995,114.21528339999986,114.21528339999986,x,1.4104961999996704,None,,,,,,,,,,,GSR_th,001,2025-03-07_11h37.46.767,MainFlow,2024.2.4,146.4757209166979,2025-03-07 11h38.11.485926 +0700,
1,59,0,word/wordth0591.png,image/False/imgf59.png,33,33,0,x,2.0448857000001226,None,0,33,33,33,115.64176450000014,,,,,,,117.14811950000012,116.68499530000008,116.69273059999978,116.69273059999978,117.14213530000006,118.29072540000016,118.29072540000016,x,2.0448857000001226,None,,,,,,,,,,,GSR_th,001,2025-03-07_11h37.46.767,MainFlow,2024.2.4,146.4757209166979,2025-03-07 11h38.11.485926 +0700,
1,8,1,word/wordth0081.png,image/True/img08.png,34,34,0,z,0.7374248000000989,None,0,34,34,34,120.3508668999998,,,,,,,121.85556760000009,121.36405650000006,121.37198850000004,121.37198850000004,121.84946320000017,122.98447149999993,122.98447149999993,z,0.7374248000000989,None,,,,,,,,,,,GSR_th,001,2025-03-07_11h37.46.767,MainFlow,2024.2.4,146.4757209166979,2025-03-07 11h38.11.485926 +0700,
1,66,1,word/wordth0661.png,image/True/img66.png,35,35,0,z,0.9137151999998423,None,0,35,35,35,123.7330078,,,,,,,125.23687969999992,124.74354959999982,124.75157350000018,124.75157350000018,125.23082669999985,126.44295749999992,126.44295749999992,z,0.9137151999998423,None,,,,,,,,,,,GSR_th,001,2025-03-07_11h37.46.767,MainFlow,2024.2.4,146.4757209166979,2025-03-07 11h38.11.485926 +0700,
1,24,0,word/wordth0241.png,image/False/imgf24.png,36,36,0,x,0.604760200000328,None,0,36,36,36,127.36714080000002,,,,,,,128.87416540000004,128.38136209999993,128.3877295000002,128.3877295000002,128.8677720999999,130.06981929999984,130.06981929999984,x,0.604760200000328,None,,,,,,,,,,,GSR_th,001,2025-03-07_11h37.46.767,MainFlow,2024.2.4,146.4757209166979,2025-03-07 11h38.11.485926 +0700,
1,14,1,word/wordth0141.png,image/True/img14.png,37,37,0,z,0.5477743999999802,None,0,37,37,37,130.69056450000016,,,,,,,132.19315589999997,131.71175690000018,131.71706730000005,131.71706730000005,132.18695949999983,133.40610000000015,133.40610000000015,z,0.5477743999999802,None,,,,,,,,,,,GSR_th,001,2025-03-07_11h37.46.767,MainFlow,2024.2.4,146.4757209166979,2025-03-07 11h38.11.485926 +0700,
1,20,0,word/wordth0201.png,image/False/imgf20.png,38,38,0,x,0.4602568999998766,None,0,38,38,38,133.97016189999977,,,,,,,135.47685450000017,134.98451479999994,134.99295399999983,134.99295399999983,135.4707924999998,136.70644399999992,136.70644399999992,x,0.4602568999998766,None,,,,,,,,,,,GSR_th,001,2025-03-07_11h37.46.767,MainFlow,2024.2.4,146.4757209166979,2025-03-07 11h38.11.485926 +0700,
1,89,0,word/wordth0891.png,image/False/imgf89.png,39,39,0,x,0.5836599999997816,None,0,39,39,39,137.1807732000002,,,,,,,138.68486970000004,138.22730430000001,138.23390449999988,138.23390449999988,138.67863380000017,139.85486189999983,139.85486189999983,x,0.5836599999997816,None,138.23390449999988,,,,,,,,,,GSR_th,001,2025-03-07_11h37.46.767,MainFlow,2024.2.4,146.4757209166979,2025-03-07 11h38.11.485926 +0700,
1,64,0,word/wordth0641.png,image/False/imgf64.png,40,40,0,x,0.6052426000001105,None,0,40,40,40,140.45472560000007,,,,,,,141.9623456999998,141.46835330000022,141.47563020000007,141.47563020000007,141.95628850000003,143.11791219999986,143.11791219999986,x,0.6052426000001105,None,,,,,,,,,,,GSR_th,001,2025-03-07_11h37.46.767,MainFlow,2024.2.4,146.4757209166979,2025-03-07 11h38.11.485926 +0700,
1,56,1,word/wordth0561.png,image/True/img56.png,41,41,0,z,0.4834773999996287,None,0,41,41,41,143.73529400000007,,,,,,,145.23876530000007,144.78260649999993,144.78905870000017,144.78905870000017,145.23238429999992,146.42026609999994,146.42026609999994,z,0.4834773999996287,None,144.78905870000017,,,,,,,,,,GSR_th,001,2025-03-07_11h37.46.767,MainFlow,2024.2.4,146.4757209166979,2025-03-07 11h38.11.485926 +0700,
1,15,1,word/wordth0151.png,image/True/img15.png,42,42,0,z,0.5914790000001631,None,0,42,42,42,146.9195890000001,,,,,,,148.42587779999985,147.96434080000017,147.9712257000001,147.9712257000001,148.41965089999985,149.6512131999998,149.6512131999998,z,0.5914790000001631,None,,,,,,,,,,,GSR_th,001,2025-03-07_11h37.46.767,MainFlow,2024.2.4,146.4757209166979,2025-03-07 11h38.11.485926 +0700,
1,88,0,word/wordth0881.png,image/False/imgf88.png,43,43,0,x,0.5967596999998932,None,0,43,43,43,150.25640169999997,,,,,,,151.7587021999998,151.3010562999998,151.30797010000015,151.30797010000015,151.75257190000002,152.96891340000002,152.96891340000002,x,0.5967596999998932,None,,,,,,,,,,,GSR_th,001,2025-03-07_11h37.46.767,MainFlow,2024.2.4,146.4757209166979,2025-03-07 11h38.11.485926 +0700,
1,94,1,word/wordth0941.png,image/True/img94.png,44,44,0,z,0.5133084999997664,None,0,44,44,44,153.58220279999978,,,,,,,155.08439039999985,154.60278500000004,154.6096625,154.6096625,155.0782875,156.28106419999995,156.28106419999995,z,0.5133084999997664,None,,,,,,,,,,,GSR_th,001,2025-03-07_11h37.46.767,MainFlow,2024.2.4,146.4757209166979,2025-03-07 11h38.11.485926 +0700,
1,40,0,word/wordth0401.png,image/False/imgf40.png,45,45,0,x,0.4765287999998691,None,0,45,45,45,156.80993489999992,,,,,,,158.31255550000014,157.85622039999998,157.8625646999999,157.8625646999999,158.3064018,159.52864099999988,159.52864099999988,x,0.4765287999998691,None,,,,,,,,,,,GSR_th,001,2025-03-07_11h37.46.767,MainFlow,2024.2.4,146.4757209166979,2025-03-07 11h38.11.485926 +0700,
1,41,0,word/wordth0411.png,image/False/imgf41.png,46,46,0,x,0.5744894999997996,None,0,46,46,46,160.01648440000008,,,,,,,161.52087630000005,161.02755380000008,161.0343495000002,161.0343495000002,161.5146936000001,162.66187200000013,162.66187200000013,x,0.5744894999997996,None,,,,,,,,,,,GSR_th,001,2025-03-07_11h37.46.767,MainFlow,2024.2.4,146.4757209166979,2025-03-07 11h38.11.485926 +0700,
1,7,1,word/wordth0071.png,image/True/img07.png,47,47,0,z,0.40676299999995535,None,0,47,47,47,163.24865080000018,,,,,,,164.75003079999988,164.29693550000002,164.30485480000016,164.30485480000016,164.743966,165.96438309999985,165.96438309999985,z,0.40676299999995535,None,,,,,,,,,,,GSR_th,001,2025-03-07_11h37.46.767,MainFlow,2024.2.4,146.4757209166979,2025-03-07 11h38.11.485926 +0700,
1,60,0,word/wordth0601.png,image/False/imgf60.png,48,48,0,x,0.486701599999833,None,0,48,48,48,166.38872570000012,,,,,,,167.88753799999995,167.3891348000002,167.39558350000016,167.39558350000016,167.8810884999998,169.09674200000018,169.09674200000018,x,0.486701599999833,None,,,,,,,,,,,GSR_th,001,2025-03-07_11h37.46.767,MainFlow,2024.2.4,146.4757209166979,2025-03-07 11h38.11.485926 +0700,
1,23,0,word/wordth0231.png,image/False/imgf23.png,49,49,0,x,0.465411000000131,None,0,49,49,49,169.6011695000002,,,,,,,171.10210779999989,170.64499669999987,170.65168660000018,170.65168660000018,171.09597810000014,172.34463199999982,172.34463199999982,x,0.465411000000131,None,,,,,,,,,,,GSR_th,001,2025-03-07_11h37.46.767,MainFlow,2024.2.4,146.4757209166979,2025-03-07 11h38.11.485926 +0700,
1,68,0,word/wordth0681.png,image/False/imgf68.png,50,50,0,x,0.48001350000004095,None,0,50,50,50,172.82165780000014,,,,,,,174.32374879999998,173.8368206,173.84389190000002,173.84389190000002,174.31748289999996,175.51466870000013,175.51466870000013,x,0.48001350000004095,None,,,,,,,,,,,GSR_th,001,2025-03-07_11h37.46.767,MainFlow,2024.2.4,146.4757209166979,2025-03-07 11h38.11.485926 +0700,
1,26,1,word/wordth0261.png,image/True/img26.png,51,51,0,z,0.7797651000000769,None,0,51,51,51,176.00356920000013,,,,,,,177.51051959999995,177.01835840000012,177.02483519999987,177.02483519999987,177.50461099999984,178.73290029999998,178.73290029999998,z,0.7797651000000769,None,,,,,,,,,,,GSR_th,001,2025-03-07_11h37.46.767,MainFlow,2024.2.4,146.4757209166979,2025-03-07 11h38.11.485926 +0700,
1,89,0,word/wordth0891.png,image/False/imgf89.png,52,52,0,x,0.5093331000002763,None,0,52,52,52,179.5236421999998,,,,,,,181.02375729999994,180.52407519999997,180.5288612999998,180.5288612999998,181.01751019999983,182.2139827000001,182.2139827000001,x,0.5093331000002763,None,,,,,,,,,,,GSR_th,001,2025-03-07_11h37.46.767,MainFlow,2024.2.4,146.4757209166979,2025-03-07 11h38.11.485926 +0700,
1,3,0,word/wordth0031.png,image/False/imgf03.png,53,53,0,x,0.4767581999999493,None,0,53,53,53,182.7366393000002,,,,,,,184.23853250000002,183.77538700000014,183.78173160000006,183.78173160000006,184.2322806000002,185.44400899999982,185.44400899999982,x,0.4767581999999493,None,,,,,,,,,,,GSR_th,001,2025-03-07_11h37.46.767,MainFlow,2024.2.4,146.4757209166979,2025-03-07 11h38.11.485926 +0700,
1,55,1,word/wordth0551.png,image/True/img55.png,54,54,0,z,0.7347574999998869,None,0,54,54,54,185.93216329999996,,,,,,,187.43237739999995,186.94581460000018,186.9524719000001,186.9524719000001,187.426156,188.6540270999999,188.6540270999999,z,0.7347574999998869,None,,,,,,,,,,,GSR_th,001,2025-03-07_11h37.46.767,MainFlow,2024.2.4,146.4757209166979,2025-03-07 11h38.11.485926 +0700,
1,46,1,word/wordth0461.png,image/True/img46.png,55,55,0,z,0.5553036999999676,None,0,55,55,55,189.40538650000008,,,,,,,190.91075069999988,190.4202307999999,190.42690380000022,190.42690380000022,190.90447700000004,192.13547900000003,192.13547900000003,z,0.5553036999999676,None,,,,,,,,,,,GSR_th,001,2025-03-07_11h37.46.767,MainFlow,2024.2.4,146.4757209166979,2025-03-07 11h38.11.485926 +0700,
1,1,1,word/wordth0011.png,image/True/img01.png,56,56,0,z,0.6340675999999803,None,0,56,56,56,192.70462450000014,,,,,,,194.2083634999999,193.75195170000006,193.75852010000017,193.75852010000017,194.2021589000001,195.4183705999999,195.4183705999999,z,0.6340675999999803,None,193.75852010000017,,,,,,,,,,GSR_th,001,2025-03-07_11h37.46.767,MainFlow,2024.2.4,146.4757209166979,2025-03-07 11h38.11.485926 +0700,
1,3,1,word/wordth0031.png,image/True/img03.png,57,57,0,z,0.5694159999998192,None,0,57,57,57,196.0677738999998,,,,,,,197.56925469999987,197.08269789999986,197.0891399000002,197.0891399000002,197.5629374,198.76226099999985,198.76226099999985,z,0.5694159999998192,None,,,,,,,,,,,GSR_th,001,2025-03-07_11h37.46.767,MainFlow,2024.2.4,146.4757209166979,2025-03-07 11h38.11.485926 +0700,
1,76,1,word/wordth0761.png,image/True/img76.png,58,58,0,z,0.4743700000003628,None,0,58,58,58,199.3408556999998,,,,,,,200.84625330000017,200.38538569999992,200.39183569999977,200.39183569999977,200.84006659999977,202.0295897000001,202.0295897000001,z,0.4743700000003628,None,,,,,,,,,,,GSR_th,001,2025-03-07_11h37.46.767,MainFlow,2024.2.4,146.4757209166979,2025-03-07 11h38.11.485926 +0700,
1,52,0,word/wordth0521.png,image/False/imgf52.png,59,59,0,x,0.6331712999999581,None,0,59,59,59,202.5163963,,,,,,,204.01934269999992,203.5640059000002,203.57136050000008,203.57136050000008,204.01302970000006,205.21230500000001,205.21230500000001,x,0.6331712999999581,None,,,,,,,,,,,GSR_th,001,2025-03-07_11h37.46.767,MainFlow,2024.2.4,146.4757209166979,2025-03-07 11h38.11.485926 +0700,
1,14,0,word/wordth0141.png,image/False/imgf14.png,60,60,0,x,0.43516600000020844,None,0,60,60,60,205.85568409999996,,,,,,,207.35885229999985,206.87136499999997,206.87802620000002,206.87802620000002,207.3524954999998,208.55453940000007,208.55453940000007,x,0.43516600000020844,None,206.87802620000002,,,,,,,,,,GSR_th,001,2025-03-07_11h37.46.767,MainFlow,2024.2.4,146.4757209166979,2025-03-07 11h38.11.485926 +0700,
1,61,1,word/wordth0611.png,image/True/img61.png,61,61,0,z,0.4476009999998496,None,0,61,61,61,208.99978340000007,,,,,,,210.50434970000015,210.03970419999996,210.04612889999999,210.04612889999999,210.49795480000012,211.71272980000003,211.71272980000003,z,0.4476009999998496,None,,,,,,,,,,,GSR_th,001,2025-03-07_11h37.46.767,MainFlow,2024.2.4,146.4757209166979,2025-03-07 11h38.11.485926 +0700,
1,93,0,word/wordth0931.png,image/False/imgf93.png,62,62,0,x,0.6533740999998372,None,0,62,62,62,212.17304259999992,,,,,,,213.67713430000003,213.2195701999999,213.22611890000007,213.22611890000007,213.67097009999998,214.85543229999985,214.85543229999985,x,0.6533740999998372,None,213.22611890000007,,,,,,,,,,GSR_th,001,2025-03-07_11h37.46.767,MainFlow,2024.2.4,146.4757209166979,2025-03-07 11h38.11.485926 +0700,
1,37,1,word/wordth0371.png,image/True/img37.png,63,63,0,z,0.9444349999998849,None,0,63,63,63,215.52668630000016,,,,,,,217.03067479999982,216.53772949999984,216.54417030000013,216.54417030000013,217.02442669999982,218.2522914000001,218.2522914000001,z,0.9444349999998849,None,,,,,,,,,,,GSR_th,001,2025-03-07_11h37.46.767,MainFlow,2024.2.4,146.4757209166979,2025-03-07 11h38.11.485926 +0700,
1,79,0,word/wordth0791.png,image/False/imgf79.png,64,64,0,x,0.6346175000003313,None,0,64,64,64,219.20665800000006,,,,,,,220.71049760000005,220.26086940000005,220.26769150000018,220.26769150000018,220.7039838999999,221.97535870000002,221.97535870000002,x,0.6346175000003313,None,220.26769150000018,,,,,,,,,,GSR_th,001,2025-03-07_11h37.46.767,MainFlow,2024.2.4,146.4757209166979,2025-03-07 11h38.11.485926 +0700,
1,37,0,word/wordth0371.png,image/False/imgf37.png,65,65,0,x,0.5302584999999453,None,0,65,65,65,222.62797839999985,,,,,,,224.13350589999982,223.6396106000002,223.64638030000015,223.64638030000015,224.12717280000015,225.35202630000003,225.35202630000003,x,0.5302584999999453,None,,,,,,,,,,,GSR_th,001,2025-03-07_11h37.46.767,MainFlow,2024.2.4,146.4757209166979,2025-03-07 11h38.11.485926 +0700,
1,3,1,word/wordth0031.png,image/True/img03.png,66,66,0,z,0.45676119999961884,None,0,66,66,66,225.8937609999998,,,,,,,227.3969232999998,226.9082152000001,226.9148097000002,226.9148097000002,227.390668,228.60881990000007,228.60881990000007,z,0.45676119999961884,None,226.9148097000002,,,,,,,,,,GSR_th,001,2025-03-07_11h37.46.767,MainFlow,2024.2.4,146.4757209166979,2025-03-07 11h38.11.485926 +0700,
1,93,0,word/wordth0931.png,image/False/imgf93.png,67,67,0,x,0.5450458999998773,None,0,67,67,67,229.07508959999996,,,,,,,230.5766921999998,230.09103629999981,230.0974987999998,230.0974987999998,230.5705939999998,231.7416902,231.7416902,x,0.5450458999998773,None,,,,,,,,,,,GSR_th,001,2025-03-07_11h37.46.767,MainFlow,2024.2.4,146.4757209166979,2025-03-07 11h38.11.485926 +0700,
1,30,1,word/wordth0301.png,image/True/img30.png,68,68,0,z,0.4719738000003417,None,0,68,68,68,232.30140570000003,,,,,,,233.8050075000001,233.32014479999998,233.32672559999992,233.32672559999992,233.7986624,234.9788096000002,234.9788096000002,z,0.4719738000003417,None,233.32672559999992,,,,,,,,,,GSR_th,001,2025-03-07_11h37.46.767,MainFlow,2024.2.4,146.4757209166979,2025-03-07 11h38.11.485926 +0700,
1,46,0,word/wordth0461.png,image/False/imgf46.png,69,69,0,x,0.538980199999969,None,0,69,69,69,235.46036109999977,,,,,,,236.96441959999993,236.4714829999998,236.47794879999992,236.47794879999992,236.95809740000004,238.2082964000001,238.2082964000001,x,0.538980199999969,None,,,,,,,,,,,GSR_th,001,2025-03-07_11h37.46.767,MainFlow,2024.2.4,146.4757209166979,2025-03-07 11h38.11.485926 +0700,
1,27,0,word/wordth0271.png,image/False/imgf27.png,70,70,0,x,0.6103981999999633,None,0,70,70,70,238.7594681999999,,,,,,,240.2623950000002,239.79821009999978,239.80491010000014,239.80491010000014,240.2561168000002,241.44795720000002,241.44795720000002,x,0.6103981999999633,None,,,,,,,,,,,GSR_th,001,2025-03-07_11h37.46.767,MainFlow,2024.2.4,146.4757209166979,2025-03-07 11h38.11.485926 +0700,
1,37,1,word/wordth0371.png,image/True/img37.png,71,71,0,z,0.4503148999997393,None,0,71,71,71,242.07096460000002,,,,,,,243.57428320000008,243.07910409999977,243.08560549999993,243.08560549999993,243.56816919999983,244.85642670000016,244.85642670000016,z,0.4503148999997393,None,,,,,,,,,,,GSR_th,001,2025-03-07_11h37.46.767,MainFlow,2024.2.4,146.4757209166979,2025-03-07 11h38.11.485926 +0700,
1,20,1,word/wordth0201.png,image/True/img20.png,72,72,0,z,0.46053570000003674,None,0,72,72,72,245.32058039999993,,,,,,,246.82362430000012,246.33766789999981,246.34420640000008,246.34420640000008,246.81751059999988,248.0343555999998,248.0343555999998,z,0.46053570000003674,None,,,,,,,,,,,GSR_th,001,2025-03-07_11h37.46.767,MainFlow,2024.2.4,146.4757209166979,2025-03-07 11h38.11.485926 +0700,
1,17,1,word/wordth0171.png,image/True/img17.png,73,73,0,z,0.46109260000002905,None,0,73,73,73,248.50631620000013,,,,,,,250.0103478000001,249.5457247999998,249.55220659999986,249.55220659999986,250.00410950000014,251.21096339999986,251.21096339999986,z,0.46109260000002905,None,,,,,,,,,,,GSR_th,001,2025-03-07_11h37.46.767,MainFlow,2024.2.4,146.4757209166979,2025-03-07 11h38.11.485926 +0700,
1,10,0,word/wordth0101.png,image/False/imgf10.png,74,74,0,x,0.5664897999999994,None,0,74,74,74,251.68636130000004,,,,,,,253.1903868999998,252.72439080000004,252.73110989999986,252.73110989999986,253.18406490000007,254.39914540000018,254.39914540000018,x,0.5664897999999994,None,,,,,,,,,,,GSR_th,001,2025-03-07_11h37.46.767,MainFlow,2024.2.4,146.4757209166979,2025-03-07 11h38.11.485926 +0700,
1,68,1,word/wordth0681.png,image/True/img68.png,75,75,0,z,0.6734661999998934,None,0,75,75,75,254.9777122999999,,,,,,,256.4743494999998,255.98063719999982,255.98531330000014,255.98531330000014,256.4693579,257.6368484999998,257.6368484999998,z,0.6734661999998934,None,257.6368484999998,256.4743494999998,256.4743494999998,,,,,,,,GSR_th,001,2025-03-07_11h37.46.767,MainFlow,2024.2.4,146.4757209166979,2025-03-07 11h38.11.485926 +0700,
1,82,0,word/wordth0821.png,image/False/imgf82.png,76,76,0,x,0.5599523000000772,None,0,76,76,76,258.32574320000003,,,,,,,259.82815389999996,259.37250489999997,259.37949320000007,259.37949320000007,259.82189289999997,261.02122039999995,261.02122039999995,x,0.5599523000000772,None,,,,,,,,,,,GSR_th,001,2025-03-07_11h37.46.767,MainFlow,2024.2.4,146.4757209166979,2025-03-07 11h38.11.485926 +0700,
1,42,1,word/wordth0421.png,image/True/img42.png,77,77,0,z,0.6619552000001931,None,0,77,77,77,261.5947371000002,,,,,,,263.0984569000002,262.6131534000001,262.6198994000001,262.6198994000001,263.09195469999986,264.3105394999998,264.3105394999998,z,0.6619552000001931,None,262.6198994000001,,,,,,,,,,GSR_th,001,2025-03-07_11h37.46.767,MainFlow,2024.2.4,146.4757209166979,2025-03-07 11h38.11.485926 +0700,
1,59,1,word/wordth0591.png,image/True/img59.png,78,78,0,z,0.5185827000000245,None,0,78,78,78,264.9794138000002,,,,,,,266.48650450000014,265.9943149999999,266.00080690000004,266.00080690000004,266.48021340000014,267.64723760000015,267.64723760000015,z,0.5185827000000245,None,,,,,,,,,,,GSR_th,001,2025-03-07_11h37.46.767,MainFlow,2024.2.4,146.4757209166979,2025-03-07 11h38.11.485926 +0700,
1,18,1,word/wordth0181.png,image/True/img18.png,79,79,0,z,0.5224629999997887,None,0,79,79,79,268.1772783000001,,,,,,,269.6802035999999,269.2079518999999,269.2126417999998,269.2126417999998,269.6740884999999,270.8553023999998,270.8553023999998,z,0.5224629999997887,None,,,,,,,,,,,GSR_th,001,2025-03-07_11h37.46.767,MainFlow,2024.2.4,146.4757209166979,2025-03-07 11h38.11.485926 +0700,
1,63,1,word/wordth0631.png,image/True/img63.png,80,80,0,z,0.6850082000000839,None,0,80,80,80,271.39227919999985,,,,,,,272.89482369999996,272.4071371,272.4135147000002,272.4135147000002,272.8885902000002,274.0815324,274.0815324,z,0.6850082000000839,None,,,,,,,,,,,GSR_th,001,2025-03-07_11h37.46.767,MainFlow,2024.2.4,146.4757209166979,2025-03-07 11h38.11.485926 +0700,
1,40,0,word/wordth0401.png,image/False/imgf40.png,81,81,0,x,1.7460054999996828,None,0,81,81,81,274.78099539999994,,,,,,,276.2830632,275.79571739999983,275.8026353999999,275.8026353999999,276.2769223999999,277.4887364000001,277.4887364000001,x,1.7460054999996828,None,,,,,,,,,,,GSR_th,001,2025-03-07_11h37.46.767,MainFlow,2024.2.4,146.4757209166979,2025-03-07 11h38.11.485926 +0700,
1,55,0,word/wordth0551.png,image/False/imgf55.png,82,82,0,x,0.9378400000000511,None,0,82,82,82,279.2451989000001,,,,,,,280.7476668999998,280.26059970000006,280.2672152,280.2672152,280.7412158000002,281.9450885000001,281.9450885000001,x,0.9378400000000511,None,,,,,,,,,,,GSR_th,001,2025-03-07_11h37.46.767,MainFlow,2024.2.4,146.4757209166979,2025-03-07 11h38.11.485926 +0700,
1,26,1,word/wordth0261.png,image/True/img26.png,83,83,0,z,0.408538199999839,None,0,83,83,83,282.8927297,,,,,,,284.39956299999994,283.90683750000017,283.9136189999999,283.9136189999999,284.3934211999999,285.6297641000001,285.6297641000001,z,0.408538199999839,None,,,,,,,,,,,GSR_th,001,2025-03-07_11h37.46.767,MainFlow,2024.2.4,146.4757209166979,2025-03-07 11h38.11.485926 +0700,
1,28,0,word/wordth0281.png,image/False/imgf28.png,84,84,0,x,0.8086386999998467,None,0,84,84,84,286.0495073000002,,,,,,,287.55182650000006,287.07795739999983,287.083212,287.083212,287.54591459999983,288.7675565999998,288.7675565999998,x,0.8086386999998467,None,,,,,,,,,,,GSR_th,001,2025-03-07_11h37.46.767,MainFlow,2024.2.4,146.4757209166979,2025-03-07 11h38.11.485926 +0700,
1,8,0,word/wordth0081.png,image/False/imgf08.png,85,85,0,x,0.6369549000000916,None,0,85,85,85,289.59113979999984,,,,,,,291.09354970000004,290.60740380000016,290.6137752999998,290.6137752999998,291.0867002,292.3035408999999,292.3035408999999,x,0.6369549000000916,None,,,,,,,,,,,GSR_th,001,2025-03-07_11h37.46.767,MainFlow,2024.2.4,146.4757209166979,2025-03-07 11h38.11.485926 +0700,
1,9,1,word/wordth0091.png,image/True/img09.png,86,86,0,z,0.42577399999981935,None,0,86,86,86,292.94994799999995,,,,,,,294.45305419999977,293.9677741999999,293.97415550000005,293.97415550000005,294.4468145999999,295.5846252000001,295.5846252000001,z,0.42577399999981935,None,293.97415550000005,,,,,,,,,,GSR_th,001,2025-03-07_11h37.46.767,MainFlow,2024.2.4,146.4757209166979,2025-03-07 11h38.11.485926 +0700,
1,78,1,word/wordth0781.png,image/True/img78.png,87,87,0,z,0.44622079999999187,None,0,87,87,87,296.0256743,,,,,,,297.52895720000015,297.07067210000014,297.0771834000002,297.0771834000002,297.52272649999986,298.7272157000002,298.7272157000002,z,0.44622079999999187,None,297.0771834000002,,,,,,,,,,GSR_th,001,2025-03-07_11h37.46.767,MainFlow,2024.2.4,146.4757209166979,2025-03-07 11h38.11.485926 +0700,
1,1,0,word/wordth0011.png,image/False/imgf01.png,88,88,0,x,0.47798950000014884,None,0,88,88,88,299.1813717,,,,,,,300.68827379999993,300.1977867999999,300.2042139,300.2042139,300.6818364999999,301.85679819999996,301.85679819999996,x,0.47798950000014884,None,,,,,,,,,,,GSR_th,001,2025-03-07_11h37.46.767,MainFlow,2024.2.4,146.4757209166979,2025-03-07 11h38.11.485926 +0700,
1,71,1,word/wordth0711.png,image/True/img71.png,89,89,0,z,0.4436378999998851,None,0,89,89,89,302.3445883999998,,,,,,,303.8473438000001,303.3890894000001,303.3943868000001,303.3943868000001,303.8413913999998,305.0636826,305.0636826,z,0.4436378999998851,None,,,,,,,,,,,GSR_th,001,2025-03-07_11h37.46.767,MainFlow,2024.2.4,146.4757209166979,2025-03-07 11h38.11.485926 +0700,
1,93,1,word/wordth0931.png,image/True/img93.png,90,90,0,z,0.6777354000000742,None,0,90,90,90,305.5193470999998,,,,,,,307.0202325,306.5210355999998,306.52579419999984,306.52579419999984,307.0140679000001,308.18037730000015,308.18037730000015,z,0.6777354000000742,None,,,,,,,,,,,GSR_th,001,2025-03-07_11h37.46.767,MainFlow,2024.2.4,146.4757209166979,2025-03-07 11h38.11.485926 +0700,
1,78,0,word/wordth0781.png,image/False/imgf78.png,91,91,0,x,0.49662810000018,None,0,91,91,91,308.86855719999994,,,,,,,310.37387750000016,309.88010209999993,309.88671190000014,309.88671190000014,310.3676513999999,311.54330960000016,311.54330960000016,x,0.49662810000018,None,,,,,,,,,,,GSR_th,001,2025-03-07_11h37.46.767,MainFlow,2024.2.4,146.4757209166979,2025-03-07 11h38.11.485926 +0700,
1,8,0,word/wordth0081.png,image/False/imgf08.png,92,92,0,x,0.57315779999999,None,0,92,92,92,312.0509664000001,,,,,,,313.5536781999999,313.0686529999998,313.07514919999994,313.07514919999994,313.5474430999998,314.7315030999998,314.7315030999998,x,0.57315779999999,None,,,,,,,,,,,GSR_th,001,2025-03-07_11h37.46.767,MainFlow,2024.2.4,146.4757209166979,2025-03-07 11h38.11.485926 +0700,
1,9,0,word/wordth0091.png,image/False/imgf09.png,93,93,0,x,0.4310292999998637,None,0,93,93,93,315.31701650000014,,,,,,,316.81944079999994,316.3190992,316.32391959999995,316.32391959999995,316.8139335000001,317.9569541000001,317.9569541000001,x,0.4310292999998637,None,,316.81944079999994,316.81944079999994,,,,,,,,GSR_th,001,2025-03-07_11h37.46.767,MainFlow,2024.2.4,146.4757209166979,2025-03-07 11h38.11.485926 +0700,
1,75,1,word/wordth0751.png,image/True/img75.png,94,94,0,z,0.45699880000029225,None,0,94,94,94,318.4024144,,,,,,,319.90657550000014,319.45062039999993,319.4571108,319.4571108,319.90040610000005,321.1249590000002,321.1249590000002,z,0.45699880000029225,None,319.4571108,,,,,,,,,,GSR_th,001,2025-03-07_11h37.46.767,MainFlow,2024.2.4,146.4757209166979,2025-03-07 11h38.11.485926 +0700,
1,95,0,word/wordth0951.png,image/False/imgf95.png,95,95,0,x,0.7097930999998425,None,0,95,95,95,321.59362740000006,,,,,,,323.10052369999994,322.6071691000002,322.6137818000002,322.6137818000002,323.09421199999997,324.30674929999986,324.30674929999986,x,0.7097930999998425,None,,,,,,,,,,,GSR_th,001,2025-03-07_11h37.46.767,MainFlow,2024.2.4,146.4757209166979,2025-03-07 11h38.11.485926 +0700,
1,70,1,word/wordth0701.png,image/True/img70.png,96,96,0,z,0.6651723999998467,None,0,96,96,96,325.0255622999998,,,,,,,326.5305824000002,326.0533636,326.0583797999998,326.0583797999998,326.5242988,327.7348957999998,327.7348957999998,z,0.6651723999998467,None,326.0583797999998,,,,,,,,,,GSR_th,001,2025-03-07_11h37.46.767,MainFlow,2024.2.4,146.4757209166979,2025-03-07 11h38.11.485926 +0700,
1,94,0,word/wordth0941.png,image/False/imgf94.png,97,97,0,x,0.5127734999996392,None,0,97,97,97,328.4130666000001,,,,,,,329.91878929999984,329.4270428,329.4336192999999,329.4336192999999,329.9124474,331.1558033000001,331.1558033000001,x,0.5127734999996392,None,,,,,,,,,,,GSR_th,001,2025-03-07_11h37.46.767,MainFlow,2024.2.4,146.4757209166979,2025-03-07 11h38.11.485926 +0700,
1,9,0,word/wordth0091.png,image/False/imgf09.png,98,98,0,x,0.45486959999971077,None,0,98,98,98,331.6781965,,,,,,,333.1819738999998,332.69793560000016,332.7043039,332.7043039,333.1758006,334.3375764000002,334.3375764000002,x,0.45486959999971077,None,332.7043039,,,,,,,,,,GSR_th,001,2025-03-07_11h37.46.767,MainFlow,2024.2.4,146.4757209166979,2025-03-07 11h38.11.485926 +0700,
1,18,0,word/wordth0181.png,image/False/imgf18.png,99,99,0,x,0.5834158999996362,None,0,99,99,99,334.8023499000001,,,,,,,336.3062248000001,335.81257670000014,335.8190513999998,335.8190513999998,336.3000396000002,337.5061601000002,337.5061601000002,x,0.5834158999996362,None,,,,,,,,,,,GSR_th,001,2025-03-07_11h37.46.767,MainFlow,2024.2.4,146.4757209166979,2025-03-07 11h38.11.485926 +0700,
1,28,1,word/wordth0281.png,image/True/img28.png,100,100,0,z,0.47415389999969193,None,0,100,100,100,338.09921269999995,,,,,,,339.6039440999998,339.1111285000002,339.11751649999997,339.11751649999997,339.59761290000006,340.8558718999998,340.8558718999998,z,0.47415389999969193,None,,,,,,,,,,,GSR_th,001,2025-03-07_11h37.46.767,MainFlow,2024.2.4,146.4757209166979,2025-03-07 11h38.11.485926 +0700,
1,23,1,word/wordth0231.png,image/True/img23.png,101,101,0,z,0.5639837999997326,None,0,101,101,101,341.3424700999999,,,,,,,342.84660889999986,342.36149019999993,342.3689739000001,342.3689739000001,342.84042910000016,344.04643179999994,344.04643179999994,z,0.5639837999997326,None,342.3689739000001,,,,,,,,,,GSR_th,001,2025-03-07_11h37.46.767,MainFlow,2024.2.4,146.4757209166979,2025-03-07 11h38.11.485926 +0700,
1,30,0,word/wordth0301.png,image/False/imgf30.png,102,102,0,x,0.5253728999996383,None,0,102,102,102,344.62092889999985,,,,,,,346.1239814999999,345.6362678999999,345.6428019,345.6428019,346.11778760000016,347.3252382999999,347.3252382999999,x,0.5253728999996383,None,,,,,,,,,,,GSR_th,001,2025-03-07_11h37.46.767,MainFlow,2024.2.4,146.4757209166979,2025-03-07 11h38.11.485926 +0700,
1,11,1,word/wordth0111.png,image/True/img11.png,103,103,0,z,0.7041700999998284,None,0,103,103,103,347.8619284000001,,,,,,,349.3662297000001,348.90763960000004,348.9140908999998,348.9140908999998,349.3605984999999,350.603791,350.603791,z,0.7041700999998284,None,,,,,,,,,,,GSR_th,001,2025-03-07_11h37.46.767,MainFlow,2024.2.4,146.4757209166979,2025-03-07 11h38.11.485926 +0700,
1,75,0,word/wordth0751.png,image/False/imgf75.png,104,104,0,x,0.6792787999997927,None,0,104,104,104,351.3198803,,,,,,,352.82380319999993,352.3321688000001,352.33860730000015,352.33860730000015,352.81746889999977,354.0261786000001,354.0261786000001,x,0.6792787999997927,None,,,,,,,,,,,GSR_th,001,2025-03-07_11h37.46.767,MainFlow,2024.2.4,146.4757209166979,2025-03-07 11h38.11.485926 +0700,
1,6,0,word/wordth0061.png,image/False/imgf06.png,105,105,0,x,0.7623877000000903,None,0,105,105,105,354.7167247000002,,,,,,,356.2190913999998,355.7634929000001,355.7699379999999,355.7699379999999,356.2128591999999,357.3705058999999,357.3705058999999,x,0.7623877000000903,None,,,,,,,,,,,GSR_th,001,2025-03-07_11h37.46.767,MainFlow,2024.2.4,146.4757209166979,2025-03-07 11h38.11.485926 +0700,
1,27,1,word/wordth0271.png,image/True/img27.png,106,106,0,z,0.4499415999998746,None,0,106,106,106,358.14983840000014,,,,,,,359.6560450000002,359.16452500000014,359.1711962999998,359.1711962999998,359.6497346000001,360.8492425999998,360.8492425999998,z,0.4499415999998746,None,,,,,,,,,,,GSR_th,001,2025-03-07_11h37.46.767,MainFlow,2024.2.4,146.4757209166979,2025-03-07 11h38.11.485926 +0700,
1,1,1,word/wordth0011.png,image/True/img01.png,107,107,0,z,0.6111022000000048,None,0,107,107,107,361.3139477999998,,,,,,,362.8149284000001,362.3295844999998,362.3363184,362.3363184,362.80879559999994,364.02835349999987,364.02835349999987,z,0.6111022000000048,None,,,,,,,,,,,GSR_th,001,2025-03-07_11h37.46.767,MainFlow,2024.2.4,146.4757209166979,2025-03-07 11h38.11.485926 +0700,
1,44,0,word/wordth0441.png,image/False/imgf44.png,108,108,0,x,0.7134870000004412,None,0,108,108,108,364.65086789999987,,,,,,,366.1544490000001,365.6889649,365.69558370000004,365.69558370000004,366.14809449999984,367.39111589999993,367.39111589999993,x,0.7134870000004412,None,,,,,,,,,,,GSR_th,001,2025-03-07_11h37.46.767,MainFlow,2024.2.4,146.4757209166979,2025-03-07 11h38.11.485926 +0700,
1,48,0,word/wordth0481.png,image/False/imgf48.png,109,109,0,x,0.5972360000000663,None,0,109,109,109,368.11514350000016,,,,,,,369.6193306,369.1253532999999,369.1321207000001,369.1321207000001,369.61322500000006,370.8317723,370.8317723,x,0.5972360000000663,None,,,,,,,,,,,GSR_th,001,2025-03-07_11h37.46.767,MainFlow,2024.2.4,146.4757209166979,2025-03-07 11h38.11.485926 +0700,
1,60,0,word/wordth0601.png,image/False/imgf60.png,110,110,0,x,0.5392980999999963,None,0,110,110,110,371.4404542000002,,,,,,,372.9454120999999,372.4520815000001,372.45879520000017,372.45879520000017,372.9390364000001,374.1324617999999,374.1324617999999,x,0.5392980999999963,None,,,,,,,,,,,GSR_th,001,2025-03-07_11h37.46.767,MainFlow,2024.2.4,146.4757209166979,2025-03-07 11h38.11.485926 +0700,
1,96,1,word/wordth0961.png,image/True/img96.png,111,111,0,z,0.4677705000003698,None,0,111,111,111,374.68499340000017,,,,,,,376.1875095999999,375.7333653999999,375.73956899999985,375.73956899999985,376.18134340000006,377.38334369999984,377.38334369999984,z,0.4677705000003698,None,,,,,,,,,,,GSR_th,001,2025-03-07_11h37.46.767,MainFlow,2024.2.4,146.4757209166979,2025-03-07 11h38.11.485926 +0700,
1,79,0,word/wordth0791.png,image/False/imgf79.png,112,112,0,x,0.5675670000000537,None,0,112,112,112,377.8604438000002,,,,,,,379.3531791999999,378.85404070000004,378.85794510000005,378.85794510000005,379.3474639000001,380.5808124,380.5808124,x,0.5675670000000537,None,380.5808124,379.3531791999999,379.3531791999999,,,,,,,,GSR_th,001,2025-03-07_11h37.46.767,MainFlow,2024.2.4,146.4757209166979,2025-03-07 11h38.11.485926 +0700,
1,7,0,word/wordth0071.png,image/False/imgf07.png,113,113,0,x,0.5256687000000966,None,0,113,113,113,381.1601002000002,,,,,,,382.66552120000006,382.17007090000016,382.1768987999999,382.1768987999999,382.65937669999994,383.83294939999996,383.83294939999996,x,0.5256687000000966,None,,,,,,,,,,,GSR_th,001,2025-03-07_11h37.46.767,MainFlow,2024.2.4,146.4757209166979,2025-03-07 11h38.11.485926 +0700,
1,36,0,word/wordth0361.png,image/False/imgf36.png,114,114,0,x,0.7461953000001813,None,0,114,114,114,384.36883690000013,,,,,,,385.8730177000002,385.37902209999993,385.38562820000016,385.38562820000016,385.8669808999998,387.1004284999999,387.1004284999999,x,0.7461953000001813,None,,,,,,,,,,,GSR_th,001,2025-03-07_11h37.46.767,MainFlow,2024.2.4,146.4757209166979,2025-03-07 11h38.11.485926 +0700,
1,71,0,word/wordth0711.png,image/False/imgf71.png,115,115,0,x,0.5914274000001569,None,0,115,115,115,387.8556228000002,,,,,,,389.35875480000004,388.87263459999986,388.8790875999998,388.8790875999998,389.3523344,390.62049479999996,390.62049479999996,x,0.5914274000001569,None,,,,,,,,,,,GSR_th,001,2025-03-07_11h37.46.767,MainFlow,2024.2.4,146.4757209166979,2025-03-07 11h38.11.485926 +0700,
1,20,0,word/wordth0201.png,image/False/imgf20.png,116,116,0,x,0.4508210000003601,None,0,116,116,116,391.2214156,,,,,,,392.72580990000006,392.2339376,392.2402989000002,392.2402989000002,392.7196309000001,393.9724071999999,393.9724071999999,x,0.4508210000003601,None,,,,,,,,,,,GSR_th,001,2025-03-07_11h37.46.767,MainFlow,2024.2.4,146.4757209166979,2025-03-07 11h38.11.485926 +0700,
1,87,1,word/wordth0871.png,image/True/img87.png,117,117,0,z,0.7583764999999403,None,0,117,117,117,394.43751539999994,,,,,,,395.9405861,395.4780472000002,395.4845627999998,395.4845627999998,395.93429349999997,397.16160549999995,397.16160549999995,z,0.7583764999999403,None,395.4845627999998,,,,,,,,,,GSR_th,001,2025-03-07_11h37.46.767,MainFlow,2024.2.4,146.4757209166979,2025-03-07 11h38.11.485926 +0700,
1,50,0,word/wordth0501.png,image/False/imgf50.png,118,118,0,x,0.773275300000023,None,0,118,118,118,397.9357721000001,,,,,,,399.43979450000006,398.9850968999999,398.99145099999987,398.99145099999987,399.4335377000002,400.6301520000002,400.6301520000002,x,0.773275300000023,None,398.99145099999987,,,,,,,,,,GSR_th,001,2025-03-07_11h37.46.767,MainFlow,2024.2.4,146.4757209166979,2025-03-07 11h38.11.485926 +0700,
1,18,1,word/wordth0181.png,image/True/img18.png,119,119,0,z,0.6741001000000324,None,0,119,119,119,401.4116183000001,,,,,,,402.91835649999985,402.4273478,402.43409569999994,402.43409569999994,402.91216299999996,404.0778137000002,404.0778137000002,z,0.6741001000000324,None,,,,,,,,,,,GSR_th,001,2025-03-07_11h37.46.767,MainFlow,2024.2.4,146.4757209166979,2025-03-07 11h38.11.485926 +0700,
1,71,0,word/wordth0711.png,image/False/imgf71.png,120,120,0,x,0.6506201000001965,None,0,120,120,120,404.76306590000013,,,,,,,406.2650947000002,405.7648309000001,405.7695122,405.7695122,406.25882920000004,407.49795189999986,407.49795189999986,x,0.6506201000001965,None,,,,,,,,,,,GSR_th,001,2025-03-07_11h37.46.767,MainFlow,2024.2.4,146.4757209166979,2025-03-07 11h38.11.485926 +0700,
1,46,1,word/wordth0461.png,image/True/img46.png,121,121,0,z,0.5797838000003139,None,0,121,121,121,408.1647810999998,,,,,,,409.66724810000005,409.1809874999999,409.1875745000002,409.1875745000002,409.6609115000001,410.91139139999996,410.91139139999996,z,0.5797838000003139,None,,,,,,,,,,,GSR_th,001,2025-03-07_11h37.46.767,MainFlow,2024.2.4,146.4757209166979,2025-03-07 11h38.11.485926 +0700,
1,10,1,word/wordth0101.png,image/True/img10.png,122,122,0,z,0.9687064000004284,None,0,122,122,122,411.5025346000002,,,,,,,413.0067303000001,412.5198411000001,412.52672570000004,412.52672570000004,413.0004899999999,414.1974863999999,414.1974863999999,z,0.9687064000004284,None,412.52672570000004,,,,,,,,,,GSR_th,001,2025-03-07_11h37.46.767,MainFlow,2024.2.4,146.4757209166979,2025-03-07 11h38.11.485926 +0700,
1,16,0,word/wordth0161.png,image/False/imgf16.png,123,123,0,x,0.4827592999999979,None,0,123,123,123,415.1752333999998,,,,,,,416.6796144,416.1861377,416.1928404999999,416.1928404999999,416.6733325,417.88593330000003,417.88593330000003,x,0.4827592999999979,None,,,,,,,,,,,GSR_th,001,2025-03-07_11h37.46.767,MainFlow,2024.2.4,146.4757209166979,2025-03-07 11h38.11.485926 +0700,
1,15,0,word/wordth0151.png,image/False/imgf15.png,124,124,0,x,0.6040069000000585,None,0,124,124,124,418.3832653999998,,,,,,,419.8874302999998,419.4011166999999,419.40745879999986,419.40745879999986,419.8810988,421.0730069000001,421.0730069000001,x,0.6040069000000585,None,419.40745879999986,,,,,,,,,,GSR_th,001,2025-03-07_11h37.46.767,MainFlow,2024.2.4,146.4757209166979,2025-03-07 11h38.11.485926 +0700,
1,59,0,word/wordth0591.png,image/False/imgf59.png,125,125,0,x,0.5369924000001447,None,0,125,125,125,421.6877089999998,,,,,,,423.1921401999998,422.7035079000002,422.7109172999999,422.7109172999999,423.18590399999994,424.3408009,424.3408009,x,0.5369924000001447,None,,,,,,,,,,,GSR_th,001,2025-03-07_11h37.46.767,MainFlow,2024.2.4,146.4757209166979,2025-03-07 11h38.11.485926 +0700,
1,11,0,word/wordth0111.png,image/False/imgf11.png,126,126,0,x,0.5599584999999934,None,0,126,126,126,424.8896027999999,,,,,,,426.3931112999999,425.90760439999985,425.91427079999994,425.91427079999994,426.38692029999993,427.6292656999999,427.6292656999999,x,0.5599584999999934,None,425.91427079999994,,,,,,,,,,GSR_th,001,2025-03-07_11h37.46.767,MainFlow,2024.2.4,146.4757209166979,2025-03-07 11h38.11.485926 +0700,
1,75,1,word/wordth0751.png,image/True/img75.png,127,127,0,z,0.8334408999999141,None,0,127,127,127,428.19803060000004,,,,,,,429.7048365999999,429.2143347000001,429.220953,429.220953,429.69943490000014,430.89754140000014,430.89754140000014,z,0.8334408999999141,None,,,,,,,,,,,GSR_th,001,2025-03-07_11h37.46.767,MainFlow,2024.2.4,146.4757209166979,2025-03-07 11h38.11.485926 +0700,
1,33,1,word/wordth0331.png,image/True/img33.png,128,128,0,z,0.6692142000001695,None,0,128,128,128,431.7434042,,,,,,,433.24549549999983,432.76506770000015,432.7694652,432.7694652,433.2394634000002,434.4765219000001,434.4765219000001,z,0.6692142000001695,None,,,,,,,,,,,GSR_th,001,2025-03-07_11h37.46.767,MainFlow,2024.2.4,146.4757209166979,2025-03-07 11h38.11.485926 +0700,
1,66,0,word/wordth0661.png,image/False/imgf66.png,129,129,0,x,0.6112702999998874,None,0,129,129,129,435.15881949999994,,,,,,,436.6618285999998,436.17548669999996,436.1818435,436.1818435,436.65551700000015,437.9105546999999,437.9105546999999,x,0.6112702999998874,None,436.1818435,,,,,,,,,,GSR_th,001,2025-03-07_11h37.46.767,MainFlow,2024.2.4,146.4757209166979,2025-03-07 11h38.11.485926 +0700,
1,38,1,word/wordth0381.png,image/True/img38.png,130,130,0,z,0.6682564000002458,None,0,130,130,130,438.5385535999999,,,,,,,440.0432734000001,439.5827709,439.5897451000001,439.5897451000001,440.0368515,441.21431930000017,441.21431930000017,z,0.6682564000002458,None,,,,,,,,,,,GSR_th,001,2025-03-07_11h37.46.767,MainFlow,2024.2.4,146.4757209166979,2025-03-07 11h38.11.485926 +0700,
1,38,1,word/wordth0381.png,image/True/img38.png,131,131,0,z,0.4379551000001811,None,0,131,131,131,441.8947088,,,,,,,443.3967739999998,442.9131978999999,442.92043569999987,442.92043569999987,443.39043459999994,444.5703923000001,444.5703923000001,z,0.4379551000001811,None,,,,,,,,,,,GSR_th,001,2025-03-07_11h37.46.767,MainFlow,2024.2.4,146.4757209166979,2025-03-07 11h38.11.485926 +0700,
1,63,1,word/wordth0631.png,image/True/img63.png,132,132,0,z,0.7109666000001198,None,0,132,132,132,445.01742539999987,,,,,,,446.52129049999985,446.02096459999984,446.02578399999993,446.02578399999993,446.51500540000006,447.72059649999983,447.72059649999983,z,0.7109666000001198,None,446.02578399999993,,,,,,,,,,GSR_th,001,2025-03-07_11h37.46.767,MainFlow,2024.2.4,146.4757209166979,2025-03-07 11h38.11.485926 +0700,
1,33,0,word/wordth0331.png,image/False/imgf33.png,133,133,0,x,0.7207201000001078,None,0,133,133,133,448.4421618000001,,,,,,,449.9442374,449.4577098999998,449.46455019999985,449.46455019999985,449.9379423999999,451.1499947000002,451.1499947000002,x,0.7207201000001078,None,,,,,,,,,,,GSR_th,001,2025-03-07_11h37.46.767,MainFlow,2024.2.4,146.4757209166979,2025-03-07 11h38.11.485926 +0700,
1,52,1,word/wordth0521.png,image/True/img52.png,134,134,0,z,0.5191016999997373,None,0,134,134,134,451.8835300999999,,,,,,,453.38791219999985,452.9009409,452.90740830000004,452.90740830000004,453.3816092000002,454.65912160000016,454.65912160000016,z,0.5191016999997373,None,452.90740830000004,,,,,,,,,,GSR_th,001,2025-03-07_11h37.46.767,MainFlow,2024.2.4,146.4757209166979,2025-03-07 11h38.11.485926 +0700,
1,11,0,word/wordth0111.png,image/False/imgf11.png,135,135,0,x,0.5162497999999687,None,0,135,135,135,455.1907121999998,,,,,,,456.6926871999999,456.20883159999994,456.21615870000005,456.21615870000005,456.6864265999998,457.9132374999999,457.9132374999999,x,0.5162497999999687,None,,,,,,,,,,,GSR_th,001,2025-03-07_11h37.46.767,MainFlow,2024.2.4,146.4757209166979,2025-03-07 11h38.11.485926 +0700,
1,1,0,word/wordth0011.png,image/False/imgf01.png,136,136,0,x,0.5406090000001313,None,0,136,136,136,458.4414204999998,,,,,,,459.94203960000004,459.4429743999999,459.4480711000001,459.4480711000001,459.9361340999999,461.11117109999986,461.11117109999986,x,0.5406090000001313,None,,,,,,,,,,,GSR_th,001,2025-03-07_11h37.46.767,MainFlow,2024.2.4,146.4757209166979,2025-03-07 11h38.11.485926 +0700,
1,96,0,word/wordth0961.png,image/False/imgf96.png,137,137,0,x,1.0681315999995604,None,0,137,137,137,461.6669474999999,,,,,,,463.1705990999999,462.6789801,462.68571759999986,462.68571759999986,463.16465789999984,464.3651912,464.3651912,x,1.0681315999995604,None,,,,,,,,,,,GSR_th,001,2025-03-07_11h37.46.767,MainFlow,2024.2.4,146.4757209166979,2025-03-07 11h38.11.485926 +0700,
1,57,1,word/wordth0571.png,image/True/img57.png,138,138,0,z,0.5293934000001173,None,0,138,138,138,465.44727539999985,,,,,,,466.9478385000002,466.49306160000015,466.49979510000003,466.49979510000003,466.9418135000001,468.13759549999986,468.13759549999986,z,0.5293934000001173,None,,,,,,,,,,,GSR_th,001,2025-03-07_11h37.46.767,MainFlow,2024.2.4,146.4757209166979,2025-03-07 11h38.11.485926 +0700,
1,30,1,word/wordth0301.png,image/True/img30.png,139,139,0,z,0.54161460000023,None,0,139,139,139,468.6799728000001,,,,,,,470.1833136,469.6979540000002,469.70504900000014,469.70504900000014,470.1770790999999,471.36174660000006,471.36174660000006,z,0.54161460000023,None,469.70504900000014,,,,,,,,,,GSR_th,001,2025-03-07_11h37.46.767,MainFlow,2024.2.4,146.4757209166979,2025-03-07 11h38.11.485926 +0700,
1,41,1,word/wordth0411.png,image/True/img41.png,140,140,0,z,1.1729669999999714,None,0,140,140,140,471.9149818000001,,,,,,,473.4187971000001,472.9336966999999,472.94016680000004,472.94016680000004,473.4125402999998,474.6304239000001,474.6304239000001,z,1.1729669999999714,None,472.94016680000004,,,,,,,,,,GSR_th,001,2025-03-07_11h37.46.767,MainFlow,2024.2.4,146.4757209166979,2025-03-07 11h38.11.485926 +0700,
1,50,1,word/wordth0501.png,image/True/img50.png,141,141,0,z,0.6074734999997418,None,0,141,141,141,475.81675240000004,,,,,,,477.32073119999995,476.82153259999995,476.8263314000001,476.8263314000001,477.3144625,478.50036550000004,478.50036550000004,z,0.6074734999997418,None,476.8263314000001,,,,,,,,,,GSR_th,001,2025-03-07_11h37.46.767,MainFlow,2024.2.4,146.4757209166979,2025-03-07 11h38.11.485926 +0700,
1,3,0,word/wordth0031.png,image/False/imgf03.png,142,142,0,x,0.5342832000001181,None,0,142,142,142,479.12062530000003,,,,,,,480.6256039,480.13842410000007,480.1450165000001,480.1450165000001,480.6193214,481.82313269999986,481.82313269999986,x,0.5342832000001181,None,480.1450165000001,,,,,,,,,,GSR_th,001,2025-03-07_11h37.46.767,MainFlow,2024.2.4,146.4757209166979,2025-03-07 11h38.11.485926 +0700,
1,78,1,word/wordth0781.png,image/True/img78.png,143,143,0,z,0.5390056000001096,None,0,143,143,143,482.3685902000002,,,,,,,483.86796719999984,483.3808224999998,483.3873223999999,483.3873223999999,483.8616837999998,485.0717843000002,485.0717843000002,z,0.5390056000001096,None,,,,,,,,,,,GSR_th,001,2025-03-07_11h37.46.767,MainFlow,2024.2.4,146.4757209166979,2025-03-07 11h38.11.485926 +0700,
1,76,0,word/wordth0761.png,image/False/imgf76.png,144,144,0,x,0.7325359999999819,None,0,144,144,144,485.61751920000006,,,,,,,487.1244259,486.63191259999985,486.6386287,486.6386287,487.11822359999996,488.3431055000001,488.3431055000001,x,0.7325359999999819,None,,,,,,,,,,,GSR_th,001,2025-03-07_11h37.46.767,MainFlow,2024.2.4,146.4757209166979,2025-03-07 11h38.11.485926 +0700,
1,6,1,word/wordth0061.png,image/True/img06.png,145,145,0,z,0.5942587999998068,None,0,145,145,145,489.08591509999997,,,,,,,490.58907980000004,490.0978025999998,490.1026313000002,490.1026313000002,490.5829597000002,491.7609791,491.7609791,z,0.5942587999998068,None,,,,,,,,,,,GSR_th,001,2025-03-07_11h37.46.767,MainFlow,2024.2.4,146.4757209166979,2025-03-07 11h38.11.485926 +0700,
1,31,0,word/wordth0311.png,image/False/imgf31.png,146,146,0,x,0.5722769000003609,None,0,146,146,146,492.3701205000002,,,,,,,493.8731673000002,493.3865390000001,493.39331660000016,493.39331660000016,493.8668146,494.99034389999997,494.99034389999997,x,0.5722769000003609,None,,,,,,,,,,,GSR_th,001,2025-03-07_11h37.46.767,MainFlow,2024.2.4,146.4757209166979,2025-03-07 11h38.11.485926 +0700,
1,22,0,word/wordth0221.png,image/False/imgf22.png,147,147,0,x,0.5866452000000208,None,0,147,147,147,495.5787099999998,,,,,,,497.0807120999998,496.5942931999998,496.60098789999984,496.60098789999984,497.0744702000002,498.2939839999999,498.2939839999999,x,0.5866452000000208,None,,,,,,,,,,,GSR_th,001,2025-03-07_11h37.46.767,MainFlow,2024.2.4,146.4757209166979,2025-03-07 11h38.11.485926 +0700,
1,28,0,word/wordth0281.png,image/False/imgf28.png,148,148,0,x,0.6020038000001477,None,0,148,148,148,498.89116109999986,,,,,,,500.3925387999998,499.9058144999999,499.9122527999998,499.9122527999998,500.3864082,501.5832869999999,501.5832869999999,x,0.6020038000001477,None,,,,,,,,,,,GSR_th,001,2025-03-07_11h37.46.767,MainFlow,2024.2.4,146.4757209166979,2025-03-07 11h38.11.485926 +0700,
1,57,0,word/wordth0571.png,image/False/imgf57.png,149,149,0,x,1.0268513999999413,None,0,149,149,149,502.1958890000001,,,,,,,503.69725930000004,503.2095892000002,503.2158797000002,503.2158797000002,503.6909466000002,504.8995745000002,504.8995745000002,x,1.0268513999999413,None,,,,,,,,,,,GSR_th,001,2025-03-07_11h37.46.767,MainFlow,2024.2.4,146.4757209166979,2025-03-07 11h38.11.485926 +0700,
1,7,0,word/wordth0071.png,image/False/imgf07.png,150,150,0,x,0.5550724999998238,None,0,150,150,150,505.9368469000001,,,,,,,507.43992930000013,506.95258650000005,506.95954789999996,506.95954789999996,507.43359359999977,508.62883469999997,508.62883469999997,x,0.5550724999998238,None,506.95954789999996,,,,,,,,,,GSR_th,001,2025-03-07_11h37.46.767,MainFlow,2024.2.4,146.4757209166979,2025-03-07 11h38.11.485926 +0700,
1,56,1,word/wordth0561.png,image/True/img56.png,151,151,0,z,0.3611505999997462,None,0,151,151,151,509.19391050000013,,,,,,,510.6963820000001,510.2110010000001,510.2178822999999,510.2178822999999,510.6902460000001,511.89023399999996,511.89023399999996,z,0.3611505999997462,None,,,,,,,,,,,GSR_th,001,2025-03-07_11h37.46.767,MainFlow,2024.2.4,146.4757209166979,2025-03-07 11h38.11.485926 +0700,
1,6,0,word/wordth0061.png,image/False/imgf06.png,152,152,0,x,0.4570736999999099,None,0,152,152,152,512.2641383999999,,,,,,,513.7651037,513.2787730999999,513.2852460999998,513.2852460999998,513.7589413999999,514.9885582000002,514.9885582000002,x,0.4570736999999099,None,,,,,,,,,,,GSR_th,001,2025-03-07_11h37.46.767,MainFlow,2024.2.4,146.4757209166979,2025-03-07 11h38.11.485926 +0700,
1,36,0,word/wordth0361.png,image/False/imgf36.png,153,153,0,x,0.6747869000000719,None,0,153,153,153,515.4564230999999,,,,,,,516.9586104999998,516.4725011999999,516.4790782,516.4790782,516.9521945000001,518.2104442,518.2104442,x,0.6747869000000719,None,,,,,,,,,,,GSR_th,001,2025-03-07_11h37.46.767,MainFlow,2024.2.4,146.4757209166979,2025-03-07 11h38.11.485926 +0700,
1,79,1,word/wordth0791.png,image/True/img79.png,154,154,0,z,0.49357980000013413,None,0,154,154,154,518.8948667999998,,,,,,,520.3957051000002,519.9089144999998,519.9153200999999,519.9153200999999,520.3892979000002,521.5825478000002,521.5825478000002,z,0.49357980000013413,None,,,,,,,,,,,GSR_th,001,2025-03-07_11h37.46.767,MainFlow,2024.2.4,146.4757209166979,2025-03-07 11h38.11.485926 +0700,
1,52,0,word/wordth0521.png,image/False/imgf52.png,155,155,0,x,0.5459332999998878,None,0,155,155,155,522.0860767999998,,,,,,,523.5895328000001,523.1025350999998,523.1089790999999,523.1089790999999,523.5832946,524.7681879000002,524.7681879000002,x,0.5459332999998878,None,523.1089790999999,,,,,,,,,,GSR_th,001,2025-03-07_11h37.46.767,MainFlow,2024.2.4,146.4757209166979,2025-03-07 11h38.11.485926 +0700,
1,18,0,word/wordth0181.png,image/False/imgf18.png,156,156,0,x,0.7333952000003592,None,0,156,156,156,525.3279732999999,,,,,,,526.8322119999998,526.3449185999998,526.3515487999998,526.3515487999998,526.8259736,528.0177862,528.0177862,x,0.7333952000003592,None,526.3515487999998,,,,,,,,,,GSR_th,001,2025-03-07_11h37.46.767,MainFlow,2024.2.4,146.4757209166979,2025-03-07 11h38.11.485926 +0700,
1,23,1,word/wordth0231.png,image/True/img23.png,157,157,0,z,0.3573300000002746,None,0,157,157,157,528.7632945999999,,,,,,,530.2686835999998,529.7761608999999,529.7828472000001,529.7828472000001,530.2623107999998,531.4807516000001,531.4807516000001,z,0.3573300000002746,None,,,,,,,,,,,GSR_th,001,2025-03-07_11h37.46.767,MainFlow,2024.2.4,146.4757209166979,2025-03-07 11h38.11.485926 +0700,
1,61,1,word/wordth0611.png,image/True/img61.png,158,158,0,z,0.40276300000004994,None,0,158,158,158,531.8470987999999,,,,,,,533.3515622999998,532.8601377999998,532.8666192000001,532.8666192000001,533.3453666,534.5494561999999,534.5494561999999,z,0.40276300000004994,None,,,,,,,,,,,GSR_th,001,2025-03-07_11h37.46.767,MainFlow,2024.2.4,146.4757209166979,2025-03-07 11h38.11.485926 +0700,
1,44,1,word/wordth0441.png,image/True/img44.png,159,159,0,z,0.6487298000001829,None,0,159,159,159,534.9648502,,,,,,,536.4689275999999,535.9828898000001,535.9893769999999,535.9893769999999,536.4626549,537.6465044000001,537.6465044000001,z,0.6487298000001829,None,535.9893769999999,,,,,,,,,,GSR_th,001,2025-03-07_11h37.46.767,MainFlow,2024.2.4,146.4757209166979,2025-03-07 11h38.11.485926 +0700,
1,10,1,word/wordth0101.png,image/True/img10.png,160,160,0,z,0.5205455999998776,None,0,160,160,160,538.3080991000002,,,,,,,539.8085390000001,539.3217788000002,539.3290510000002,539.3290510000002,539.8022996,540.9852289,540.9852289,z,0.5205455999998776,None,,,,,,,,,,,GSR_th,001,2025-03-07_11h37.46.767,MainFlow,2024.2.4,146.4757209166979,2025-03-07 11h38.11.485926 +0700,
1,31,1,word/wordth0311.png,image/True/img31.png,161,161,0,z,0.4397337999998854,None,0,161,161,161,541.5198691999999,,,,,,,543.0233383999998,542.5374671,542.5441614000001,542.5441614000001,543.0170211,544.2130999999999,544.2130999999999,z,0.4397337999998854,None,542.5441614000001,,,,,,,,,,GSR_th,001,2025-03-07_11h37.46.767,MainFlow,2024.2.4,146.4757209166979,2025-03-07 11h38.11.485926 +0700,
1,14,0,word/wordth0141.png,image/False/imgf14.png,162,162,0,x,0.5978518000001714,None,0,162,162,162,544.6655713999999,,,,,,,546.1685779999998,545.6823626999999,545.6888896,545.6888896,546.1623906,547.3589920999998,547.3589920999998,x,0.5978518000001714,None,545.6888896,,,,,,,,,,GSR_th,001,2025-03-07_11h37.46.767,MainFlow,2024.2.4,146.4757209166979,2025-03-07 11h38.11.485926 +0700,
1,15,0,word/wordth0151.png,image/False/imgf15.png,163,163,0,x,0.5589485000000423,None,0,163,163,163,547.9664928000002,,,,,,,549.4734445999998,548.9826413000001,548.9890989999999,548.9890989999999,549.4671263,550.6588907,550.6588907,x,0.5589485000000423,None,,,,,,,,,,,GSR_th,001,2025-03-07_11h37.46.767,MainFlow,2024.2.4,146.4757209166979,2025-03-07 11h38.11.485926 +0700,
1,51,1,word/wordth0511.png,image/True/img51.png,164,164,0,z,1.026502199999868,None,0,164,164,164,551.2323593000001,,,,,,,552.736684,552.2364170000001,552.2410562,552.2410562,552.7305185999999,553.9321141999999,553.9321141999999,z,1.026502199999868,None,552.2410562,,,,,,,,,,GSR_th,001,2025-03-07_11h37.46.767,MainFlow,2024.2.4,146.4757209166979,2025-03-07 11h38.11.485926 +0700,
1,82,1,word/wordth0821.png,image/True/img82.png,165,165,0,z,0.4974262999999155,None,0,165,165,165,554.9698715,,,,,,,556.4720633000002,555.9843291000002,555.9909303,555.9909303,556.4658138999998,557.6273368000002,557.6273368000002,z,0.4974262999999155,None,,,,,,,,,,,GSR_th,001,2025-03-07_11h37.46.767,MainFlow,2024.2.4,146.4757209166979,2025-03-07 11h38.11.485926 +0700,
1,27,0,word/wordth0271.png,image/False/imgf27.png,166,166,0,x,0.7250127999996039,None,0,166,166,166,558.1356919999998,,,,,,,559.6380684000001,559.1516333999998,559.1579652999999,559.1579652999999,559.6318293999998,560.8338520000002,560.8338520000002,x,0.7250127999996039,None,,,,,,,,,,,GSR_th,001,2025-03-07_11h37.46.767,MainFlow,2024.2.4,146.4757209166979,2025-03-07 11h38.11.485926 +0700,
1,78,0,word/wordth0781.png,image/False/imgf78.png,167,167,0,x,0.5339207000001807,None,0,167,167,167,561.5705665999999,,,,,,,563.0750297999998,562.5803335,562.5871192999998,562.5871192999998,563.0687361999999,564.2548508,564.2548508,x,0.5339207000001807,None,,,,,,,,,,,GSR_th,001,2025-03-07_11h37.46.767,MainFlow,2024.2.4,146.4757209166979,2025-03-07 11h38.11.485926 +0700,
1,89,1,word/wordth0891.png,image/True/img89.png,168,168,0,z,0.45815700000002835,None,0,168,168,168,564.7989311000001,,,,,,,566.3036416,565.8038492999999,565.8087933000002,565.8087933000002,566.2974730999999,567.4858294000001,567.4858294000001,z,0.45815700000002835,None,565.8087933000002,,,,,,,,,,GSR_th,001,2025-03-07_11h37.46.767,MainFlow,2024.2.4,146.4757209166979,2025-03-07 11h38.11.485926 +0700,
1,76,1,word/wordth0761.png,image/True/img76.png,169,169,0,z,0.4294297000001279,None,0,169,169,169,567.9589166000001,,,,,,,569.4626985,568.9772604,568.9836943999999,568.9836943999999,569.4562901999998,570.6624913999999,570.6624913999999,z,0.4294297000001279,None,568.9836943999999,,,,,,,,,,GSR_th,001,2025-03-07_11h37.46.767,MainFlow,2024.2.4,146.4757209166979,2025-03-07 11h38.11.485926 +0700,
1,17,0,word/wordth0171.png,image/False/imgf17.png,170,170,0,x,0.5645432999999684,None,0,170,170,170,571.1048369,,,,,,,572.6079301999998,572.1216875,572.1280596000001,572.1280596000001,572.6015161999999,573.8228973,573.8228973,x,0.5645432999999684,None,572.1280596000001,,,,,,,,,,GSR_th,001,2025-03-07_11h37.46.767,MainFlow,2024.2.4,146.4757209166979,2025-03-07 11h38.11.485926 +0700,
1,95,1,word/wordth0951.png,image/True/img95.png,171,171,0,z,0.44512250000025233,None,0,171,171,171,574.3979263000001,,,,,,,575.9058980999998,575.4131314000001,575.4196206000001,575.4196206000001,575.8996146,577.1272340999999,577.1272340999999,z,0.44512250000025233,None,,,,,,,,,,,GSR_th,001,2025-03-07_11h37.46.767,MainFlow,2024.2.4,146.4757209166979,2025-03-07 11h38.11.485926 +0700,
1,61,0,word/wordth0611.png,image/False/imgf61.png,172,172,0,z,0.4662813999998434,None,0,172,172,172,577.5815406000002,,,,,,,579.0854927,578.5970733999998,578.6038205999998,578.6038205999998,579.0791279,580.2980078,580.2980078,z,0.4662813999998434,None,,,,,,,,,,,GSR_th,001,2025-03-07_11h37.46.767,MainFlow,2024.2.4,146.4757209166979,2025-03-07 11h38.11.485926 +0700,
1,82,1,word/wordth0821.png,image/True/img82.png,173,173,0,z,0.591267699999662,None,0,173,173,173,580.7797015000001,,,,,,,582.2867467000001,581.7921520999998,581.798902,581.798902,582.2803488,583.425878,583.425878,z,0.591267699999662,None,,,,,,,,,,,GSR_th,001,2025-03-07_11h37.46.767,MainFlow,2024.2.4,146.4757209166979,2025-03-07 11h38.11.485926 +0700,
1,14,1,word/wordth0141.png,image/True/img14.png,174,174,0,z,0.7036016000001837,None,0,174,174,174,584.0336158,,,,,,,585.5359435,585.0509407999998,585.0575457999998,585.0575457999998,585.5296471000001,586.7514028999999,586.7514028999999,z,0.7036016000001837,None,,,,,,,,,,,GSR_th,001,2025-03-07_11h37.46.767,MainFlow,2024.2.4,146.4757209166979,2025-03-07 11h38.11.485926 +0700,
1,38,0,word/wordth0381.png,image/False/imgf38.png,175,175,0,x,0.6026006000001871,None,0,175,175,175,587.4691794,,,,,,,588.9726804000002,588.4882409000002,588.4946519,588.4946519,588.9664320000002,590.2278995000001,590.2278995000001,x,0.6026006000001871,None,588.4946519,,,,,,,,,,GSR_th,001,2025-03-07_11h37.46.767,MainFlow,2024.2.4,146.4757209166979,2025-03-07 11h38.11.485926 +0700,
1,17,0,word/wordth0171.png,image/False/imgf17.png,176,176,0,x,1.1796752000000197,None,0,176,176,176,590.8408445,,,,,,,592.3468174,591.8548934999999,591.8613888999998,591.8613888999998,592.3405917,593.5447472000001,593.5447472000001,x,1.1796752000000197,None,,,,,,,,,,,GSR_th,001,2025-03-07_11h37.46.767,MainFlow,2024.2.4,146.4757209166979,2025-03-07 11h38.11.485926 +0700,
1,42,0,word/wordth0421.png,image/False/imgf42.png,177,177,0,x,1.0405127999997603,None,0,177,177,177,594.7381142999998,,,,,,,596.2422572999999,595.7571772000001,595.7636370999999,595.7636370999999,596.2359384000001,597.4690356000001,597.4690356000001,x,1.0405127999997603,None,595.7636370999999,,,,,,,,,,GSR_th,001,2025-03-07_11h37.46.767,MainFlow,2024.2.4,146.4757209166979,2025-03-07 11h38.11.485926 +0700,
1,24,1,word/wordth0241.png,image/True/img24.png,178,178,0,z,0.5717951999999968,None,0,178,178,178,598.5228603999999,,,,,,,600.0261102999998,599.5386607,599.5451042,599.5451042,600.0198377000002,601.1684651999999,601.1684651999999,z,0.5717951999999968,None,599.5451042,,,,,,,,,,GSR_th,001,2025-03-07_11h37.46.767,MainFlow,2024.2.4,146.4757209166979,2025-03-07 11h38.11.485926 +0700,
1,51,1,word/wordth0511.png,image/True/img51.png,179,179,0,z,0.6893849000002774,None,0,179,179,179,601.7564498000002,,,,,,,603.2616512,602.7675401000001,602.7743948000002,602.7743948000002,603.2554457000001,604.4526811999999,604.4526811999999,z,0.6893849000002774,None,,,,,,,,,,,GSR_th,001,2025-03-07_11h37.46.767,MainFlow,2024.2.4,146.4757209166979,2025-03-07 11h38.11.485926 +0700,
1,24,0,word/wordth0241.png,image/False/imgf24.png,180,180,0,x,0.5874337000000196,None,0,180,180,180,605.1526174,,,,,,,606.6569994000001,606.1625561999999,606.1690526000002,606.1690526000002,606.6506911000001,607.8425670000001,607.8425670000001,x,0.5874337000000196,None,,,,,,,,,,,GSR_th,001,2025-03-07_11h37.46.767,MainFlow,2024.2.4,146.4757209166979,2025-03-07 11h38.11.485926 +0700,
1,23,0,word/wordth0231.png,image/False/imgf23.png,181,181,0,x,0.5396517000003769,None,0,181,181,181,608.4441399000002,,,,,,,609.9476592000001,609.4639538000001,609.4705653000001,609.4705653000001,609.9413902000001,611.1888309999999,611.1888309999999,x,0.5396517000003769,None,609.4705653000001,,,,,,,,,,GSR_th,001,2025-03-07_11h37.46.767,MainFlow,2024.2.4,146.4757209166979,2025-03-07 11h38.11.485926 +0700,
1,6,1,word/wordth0061.png,image/True/img06.png,182,182,0,z,0.6902308000003359,None,0,182,182,182,611.7406176999998,,,,,,,613.2457978000002,612.7506560000002,612.7571624000002,612.7571624000002,613.2395608000002,614.4200270000001,614.4200270000001,z,0.6902308000003359,None,,,,,,,,,,,GSR_th,001,2025-03-07_11h37.46.767,MainFlow,2024.2.4,146.4757209166979,2025-03-07 11h38.11.485926 +0700,
1,93,1,word/wordth0931.png,image/True/img93.png,183,183,0,z,0.7115456000001359,None,0,183,183,183,615.1225625000002,,,,,,,616.6271396000002,616.1428169999999,616.1492747000002,616.1492747000002,616.6208369999999,617.8163617999999,617.8163617999999,z,0.7115456000001359,None,616.1492747000002,,,,,,,,,,GSR_th,001,2025-03-07_11h37.46.767,MainFlow,2024.2.4,146.4757209166979,2025-03-07 11h38.11.485926 +0700,
1,38,0,word/wordth0381.png,image/False/imgf38.png,184,184,0,x,1.1663185000002159,None,0,184,184,184,618.5416986,,,,,,,620.0430855,619.5579017999999,619.5645676999998,619.5645676999998,620.0369231999998,621.2839002000001,621.2839002000001,x,1.1663185000002159,None,,,,,,,,,,,GSR_th,001,2025-03-07_11h37.46.767,MainFlow,2024.2.4,146.4757209166979,2025-03-07 11h38.11.485926 +0700,
1,57,1,word/wordth0571.png,image/True/img57.png,185,185,0,z,0.9399565999997321,None,0,185,185,185,622.4656847000001,,,,,,,623.9658638000001,623.4655271000001,623.4702453999998,623.4702453999998,623.9609270000001,625.1631618000001,625.1631618000001,z,0.9399565999997321,None,,623.9658638000001,623.9658638000001,,,,,,,,GSR_th,001,2025-03-07_11h37.46.767,MainFlow,2024.2.4,146.4757209166979,2025-03-07 11h38.11.485926 +0700,
1,40,1,word/wordth0401.png,image/True/img40.png,186,186,0,z,0.6332881999996971,None,0,186,186,186,626.1146064,,,,,,,627.6179256,627.1235333999998,627.1301692000002,627.1301692000002,627.6116935,628.8566581,628.8566581,z,0.6332881999996971,None,,,,,,,,,,,GSR_th,001,2025-03-07_11h37.46.767,MainFlow,2024.2.4,146.4757209166979,2025-03-07 11h38.11.485926 +0700,
1,50,0,word/wordth0501.png,image/False/imgf50.png,187,187,0,x,0.636554900000192,None,0,187,187,187,629.5022878,,,,,,,631.0065673999998,630.5202082000001,630.5266931000001,630.5266931000001,631.000219,632.1892591000001,632.1892591000001,x,0.636554900000192,None,630.5266931000001,,,,,,,,,,GSR_th,001,2025-03-07_11h37.46.767,MainFlow,2024.2.4,146.4757209166979,2025-03-07 11h38.11.485926 +0700,
1,66,0,word/wordth0661.png,image/False/imgf66.png,188,188,0,x,0.581153600000107,None,0,188,188,188,632.8350921000001,,,,,,,634.3391600999998,633.8439162999998,633.8506109999998,633.8506109999998,634.3330900000001,635.5297541999998,635.5297541999998,x,0.581153600000107,None,,,,,,,,,,,GSR_th,001,2025-03-07_11h37.46.767,MainFlow,2024.2.4,146.4757209166979,2025-03-07 11h38.11.485926 +0700,
1,44,0,word/wordth0441.png,image/False/imgf44.png,189,189,0,x,0.6017331000002741,None,0,189,189,189,636.1208861,,,,,,,637.6236681,637.1362586,637.1428538999999,637.1428538999999,637.616998,638.8486131999998,638.8486131999998,x,0.6017331000002741,None,,,,,,,,,,,GSR_th,001,2025-03-07_11h37.46.767,MainFlow,2024.2.4,146.4757209166979,2025-03-07 11h38.11.485926 +0700,
1,75,0,word/wordth0751.png,image/False/imgf75.png,190,190,0,x,0.6110712999998213,None,0,190,190,190,639.4621536999998,,,,,,,640.9624256000002,640.4747542,640.4811633999998,640.4811633999998,640.9560640999998,642.1474696,642.1474696,x,0.6110712999998213,None,,,,,,,,,,,GSR_th,001,2025-03-07_11h37.46.767,MainFlow,2024.2.4,146.4757209166979,2025-03-07 11h38.11.485926 +0700,
1,31,0,word/wordth0311.png,image/False/imgf31.png,191,191,0,x,0.8581925000003139,None,0,191,191,191,642.7727906,,,,,,,644.2745835999999,643.7888628000001,643.7953683000001,643.7953683000001,644.2684770999999,645.4019884999998,645.4019884999998,x,0.8581925000003139,None,,,,,,,,,,,GSR_th,001,2025-03-07_11h37.46.767,MainFlow,2024.2.4,146.4757209166979,2025-03-07 11h38.11.485926 +0700,
1,87,1,word/wordth0871.png,image/True/img87.png,192,192,0,z,0.4567226999997729,None,0,192,192,192,646.2717395999998,,,,,,,647.7737530999998,647.2866488,647.2932344999999,647.2932344999999,647.7676016,648.9789759,648.9789759,z,0.4567226999997729,None,,,,,,,,,,,GSR_th,001,2025-03-07_11h37.46.767,MainFlow,2024.2.4,146.4757209166979,2025-03-07 11h38.11.485926 +0700,
1,33,1,word/wordth0331.png,image/True/img33.png,193,193,0,z,0.5324890000001687,None,0,193,193,193,649.4530611999999,,,,,,,650.9539104,650.4688715000002,650.4754398999999,650.4754398999999,650.9478955,652.1500873,652.1500873,z,0.5324890000001687,None,,,,,,,,,,,GSR_th,001,2025-03-07_11h37.46.767,MainFlow,2024.2.4,146.4757209166979,2025-03-07 11h38.11.485926 +0700,
1,70,0,word/wordth0701.png,image/False/imgf70.png,194,194,0,x,0.4078171000001021,None,0,194,194,194,652.6927817999999,,,,,,,654.1960342000002,653.7028190000001,653.7092168999998,653.7092168999998,654.1897448,655.3740799000002,655.3740799000002,x,0.4078171000001021,None,,,,,,,,,,,GSR_th,001,2025-03-07_11h37.46.767,MainFlow,2024.2.4,146.4757209166979,2025-03-07 11h38.11.485926 +0700,
1,27,1,word/wordth0271.png,image/True/img27.png,195,195,0,z,0.39675830000032875,None,0,195,195,195,655.7955563999999,,,,,,,657.2999536000002,656.8128277999999,656.8190728,656.8190728,657.2936458999998,658.477284,658.477284,z,0.39675830000032875,None,656.8190728,,,,,,,,,,GSR_th,001,2025-03-07_11h37.46.767,MainFlow,2024.2.4,146.4757209166979,2025-03-07 11h38.11.485926 +0700,
1,88,1,word/wordth0881.png,image/True/img88.png,196,196,0,z,0.46719720000010057,None,0,196,196,196,658.8884379000001,,,,,,,660.3895984999999,659.9036362000002,659.9099328000002,659.9099328000002,660.3833012,661.6096554999999,661.6096554999999,z,0.46719720000010057,None,,,,,,,,,,,GSR_th,001,2025-03-07_11h37.46.767,MainFlow,2024.2.4,146.4757209166979,2025-03-07 11h38.11.485926 +0700,
1,87,0,word/wordth0871.png,image/False/imgf87.png,197,197,0,x,0.3987686999998914,None,0,197,197,197,662.0875627,,,,,,,663.5832485999999,663.0901466999999,663.0941972999999,663.0941972999999,663.5783824999999,664.768184,664.768184,x,0.3987686999998914,None,664.768184,663.5832485999999,663.5832485999999,,,,,,,,GSR_th,001,2025-03-07_11h37.46.767,MainFlow,2024.2.4,146.4757209166979,2025-03-07 11h38.11.485926 +0700,
1,11,1,word/wordth0111.png,image/True/img11.png,198,198,0,z,0.3995193000000654,None,0,198,198,198,665.1772365000002,,,,,,,666.6801615999998,666.1951414999999,666.2017940000001,666.2017940000001,666.6738482999999,667.9041308000001,667.9041308000001,z,0.3995193000000654,None,,,,,,,,,,,GSR_th,001,2025-03-07_11h37.46.767,MainFlow,2024.2.4,146.4757209166979,2025-03-07 11h38.11.485926 +0700,
1,61,0,word/wordth0611.png,image/False/imgf61.png,199,199,0,z,0.39709670000002006,None,0,199,199,199,668.3149054999999,,,,,,,669.8183104,669.3278782000002,669.3350071999998,669.3350071999998,669.8120577999998,671.0249832999998,671.0249832999998,z,0.39709670000002006,None,,,,,,,,,,,GSR_th,001,2025-03-07_11h37.46.767,MainFlow,2024.2.4,146.4757209166979,2025-03-07 11h38.11.485926 +0700,
1,15,1,word/wordth0151.png,image/True/img15.png,200,200,0,z,0.5842731000002459,None,0,200,200,200,671.4325162,,,,,,,672.9356541000002,672.4491963999999,672.4554281000001,672.4554281000001,672.9294925999998,674.1672345000002,674.1672345000002,z,0.5842731000002459,None,672.4554281000001,,,,,,,,,,GSR_th,001,2025-03-07_11h37.46.767,MainFlow,2024.2.4,146.4757209166979,2025-03-07 11h38.11.485926 +0700,
1,16,0,word/wordth0161.png,image/False/imgf16.png,201,201,0,x,0.44713039999987814,None,0,201,201,201,674.7611812,,,,,,,676.2611857000002,675.7763261999999,675.7827446000001,675.7827446000001,676.2548775999999,677.4674399,677.4674399,x,0.44713039999987814,None,,,,,,,,,,,GSR_th,001,2025-03-07_11h37.46.767,MainFlow,2024.2.4,146.4757209166979,2025-03-07 11h38.11.485926 +0700,
1,63,0,word/wordth0631.png,image/False/imgf63.png,202,202,0,x,0.5207822999996097,None,0,202,202,202,677.9236781999998,,,,,,,679.4273905999999,678.9326159000002,678.9393089999999,678.9393089999999,679.4211976000001,680.6382225000002,680.6382225000002,x,0.5207822999996097,None,,,,,,,,,,,GSR_th,001,2025-03-07_11h37.46.767,MainFlow,2024.2.4,146.4757209166979,2025-03-07 11h38.11.485926 +0700,
1,28,1,word/wordth0281.png,image/True/img28.png,203,203,0,z,0.34031770000001416,None,0,203,203,203,681.1735947000002,,,,,,,682.6769255999998,682.1907540000002,682.197846,682.197846,682.6712926999999,683.8960542999998,683.8960542999998,z,0.34031770000001416,None,682.197846,,,,,,,,,,GSR_th,001,2025-03-07_11h37.46.767,MainFlow,2024.2.4,146.4757209166979,2025-03-07 11h38.11.485926 +0700,
1,89,1,word/wordth0891.png,image/True/img89.png,204,204,0,z,0.58897799999977,None,0,204,204,204,684.2496679000001,,,,,,,685.7526963999999,685.2531220999999,685.2578474000002,685.2578474000002,685.7465566999999,686.9273644,686.9273644,z,0.58897799999977,None,,,,,,,,,,,GSR_th,001,2025-03-07_11h37.46.767,MainFlow,2024.2.4,146.4757209166979,2025-03-07 11h38.11.485926 +0700,
1,76,0,word/wordth0761.png,image/False/imgf76.png,205,205,0,x,0.5062570000000051,None,0,205,205,205,687.5264066,,,,,,,689.0298637000001,688.5455360999999,688.5519088000001,688.5519088000001,689.0235281999999,690.2618250999999,690.2618250999999,x,0.5062570000000051,None,688.5519088000001,,,,,,,,,,GSR_th,001,2025-03-07_11h37.46.767,MainFlow,2024.2.4,146.4757209166979,2025-03-07 11h38.11.485926 +0700,
1,51,0,word/wordth0511.png,image/False/imgf51.png,206,206,0,x,0.49834529999998267,None,0,206,206,206,690.7787312,,,,,,,692.2792066000002,691.7962195999999,691.8026641000001,691.8026641000001,692.2729758,693.4723887999999,693.4723887999999,x,0.49834529999998267,None,,,,,,,,,,,GSR_th,001,2025-03-07_11h37.46.767,MainFlow,2024.2.4,146.4757209166979,2025-03-07 11h38.11.485926 +0700,
1,26,0,word/wordth0261.png,image/False/imgf26.png,207,207,0,x,1.148304399999688,None,0,207,207,207,693.9845458999998,,,,,,,695.4869389,695.0010192,695.0078081000001,695.0078081000001,695.4806511000002,696.7200254999998,696.7200254999998,x,1.148304399999688,None,,,,,,,,,,,GSR_th,001,2025-03-07_11h37.46.767,MainFlow,2024.2.4,146.4757209166979,2025-03-07 11h38.11.485926 +0700,
1,16,1,word/wordth0161.png,image/True/img16.png,208,208,0,z,0.7248497000000498,None,0,208,208,208,697.8792672,,,,,,,699.3820728999999,698.8956739999999,698.9023413,698.9023413,699.3756036,700.6378088000001,700.6378088000001,z,0.7248497000000498,None,,,,,,,,,,,GSR_th,001,2025-03-07_11h37.46.767,MainFlow,2024.2.4,146.4757209166979,2025-03-07 11h38.11.485926 +0700,
1,64,1,word/wordth0641.png,image/True/img64.png,209,209,0,z,0.42220999999972264,None,0,209,209,209,701.3780127,,,,,,,702.8811067000001,702.3954987000002,702.4020817999999,702.4020817999999,702.8748166999999,704.0389749999999,704.0389749999999,z,0.42220999999972264,None,702.4020817999999,,,,,,,,,,GSR_th,001,2025-03-07_11h37.46.767,MainFlow,2024.2.4,146.4757209166979,2025-03-07 11h38.11.485926 +0700,
1,7,1,word/wordth0071.png,image/True/img07.png,210,210,0,z,0.4973503000001074,None,0,210,210,210,704.4740806999998,,,,,,,705.9780188999998,705.4903144,705.4973620999999,705.4973620999999,705.9717470999999,707.1899202,707.1899202,z,0.4973503000001074,None,705.4973620999999,,,,,,,,,,GSR_th,001,2025-03-07_11h37.46.767,MainFlow,2024.2.4,146.4757209166979,2025-03-07 11h38.11.485926 +0700,
1,10,0,word/wordth0101.png,image/False/imgf10.png,211,211,0,x,0.5962054000001444,None,0,211,211,211,707.6966937000002,,,,,,,709.1994285999999,708.7120141999999,708.7183065999998,708.7183065999998,709.1932486999999,710.3921082000002,710.3921082000002,x,0.5962054000001444,None,,,,,,,,,,,GSR_th,001,2025-03-07_11h37.46.767,MainFlow,2024.2.4,146.4757209166979,2025-03-07 11h38.11.485926 +0700,
1,22,1,word/wordth0221.png,image/True/img22.png,212,212,0,z,0.412306499999886,None,0,212,212,212,711.0012160000001,,,,,,,712.504477,712.0048740000002,712.0095127999998,712.0095127999998,712.4983621000001,713.7503667000001,713.7503667000001,z,0.412306499999886,None,,,,,,,,,,,GSR_th,001,2025-03-07_11h37.46.767,MainFlow,2024.2.4,146.4757209166979,2025-03-07 11h38.11.485926 +0700,
1,40,1,word/wordth0401.png,image/True/img40.png,213,213,0,z,0.3685833999998067,None,0,213,213,213,714.1741164,,,,,,,715.6775149999999,715.1905882000001,715.1969557000002,715.1969557000002,715.6710290999999,716.9153869000002,716.9153869000002,z,0.3685833999998067,None,715.1969557000002,,,,,,,,,,GSR_th,001,2025-03-07_11h37.46.767,MainFlow,2024.2.4,146.4757209166979,2025-03-07 11h38.11.485926 +0700,
1,57,0,word/wordth0571.png,image/False/imgf57.png,214,214,0,x,0.4779319999997824,None,0,214,214,214,717.2972371999999,,,,,,,718.8019463,718.3161633999998,718.3233744999998,718.3233744999998,718.7959073000002,720.0106971999999,720.0106971999999,x,0.4779319999997824,None,718.3233744999998,,,,,,,,,,GSR_th,001,2025-03-07_11h37.46.767,MainFlow,2024.2.4,146.4757209166979,2025-03-07 11h38.11.485926 +0700,
1,50,1,word/wordth0501.png,image/True/img50.png,215,215,0,z,0.4813478999999461,None,0,215,215,215,720.4993502000002,,,,,,,722.0027472000002,721.5162974999998,721.522633,721.522633,721.9964036000001,723.2097607999999,723.2097607999999,z,0.4813478999999461,None,721.522633,,,,,,,,,,GSR_th,001,2025-03-07_11h37.46.767,MainFlow,2024.2.4,146.4757209166979,2025-03-07 11h38.11.485926 +0700,
1,64,0,word/wordth0641.png,image/False/imgf64.png,216,216,0,x,0.5772999000000709,None,0,216,216,216,723.7001123,,,,,,,725.2031138000002,724.7162778000002,724.7230559,724.7230559,725.1967485,726.3410954000001,726.3410954000001,x,0.5772999000000709,None,,,,,,,,,,,GSR_th,001,2025-03-07_11h37.46.767,MainFlow,2024.2.4,146.4757209166979,2025-03-07 11h38.11.485926 +0700,
1,42,1,word/wordth0421.png,image/True/img42.png,217,217,0,z,0.5726487000001725,None,0,217,217,217,726.9279517,,,,,,,728.4319949000001,727.9406506,727.9469631000002,727.9469631000002,728.4256562,729.6381962,729.6381962,z,0.5726487000001725,None,,,,,,,,,,,GSR_th,001,2025-03-07_11h37.46.767,MainFlow,2024.2.4,146.4757209166979,2025-03-07 11h38.11.485926 +0700,
1,56,0,word/wordth0561.png,image/False/imgf56.png,218,218,0,x,0.48133770000004006,None,0,218,218,218,730.222464,,,,,,,731.7229493,731.236625,731.2433446,731.2433446,731.7167691,732.9435408999998,732.9435408999998,x,0.48133770000004006,None,,,,,,,,,,,GSR_th,001,2025-03-07_11h37.46.767,MainFlow,2024.2.4,146.4757209166979,2025-03-07 11h38.11.485926 +0700,
1,22,1,word/wordth0221.png,image/True/img22.png,219,219,0,z,0.5086430000001201,None,0,219,219,219,733.4353178000001,,,,,,,734.9378391999999,734.4519478000002,734.4585879000001,734.4585879000001,734.9315685000001,736.1670122999999,736.1670122999999,z,0.5086430000001201,None,,,,,,,,,,,GSR_th,001,2025-03-07_11h37.46.767,MainFlow,2024.2.4,146.4757209166979,2025-03-07 11h38.11.485926 +0700,
1,82,0,word/wordth0821.png,image/False/imgf82.png,220,220,0,x,0.5878981000000749,None,0,220,220,220,736.6933014000001,,,,,,,738.1939665999998,737.7084174000001,737.7148741999999,737.7148741999999,738.1877805999998,739.4001152999999,739.4001152999999,x,0.5878981000000749,None,,,,,,,,,,,GSR_th,001,2025-03-07_11h37.46.767,MainFlow,2024.2.4,146.4757209166979,2025-03-07 11h38.11.485926 +0700,
1,54,1,word/wordth0541.png,image/True/img54.png,221,221,0,z,0.45550349999984974,None,0,221,221,221,740.0021267000002,,,,,,,741.5058230999998,741.0194623000002,741.0260603000002,741.0260603000002,741.4996981999998,742.7334071,742.7334071,z,0.45550349999984974,None,741.0260603000002,,,,,,,,,,GSR_th,001,2025-03-07_11h37.46.767,MainFlow,2024.2.4,146.4757209166979,2025-03-07 11h38.11.485926 +0700,
1,55,0,word/wordth0551.png,image/False/imgf55.png,222,222,0,x,0.6544905999999173,None,0,222,222,222,743.1991085,,,,,,,744.6995737000002,744.2131638999999,744.2195740000002,744.2195740000002,744.6932707000001,745.8895016000001,745.8895016000001,x,0.6544905999999173,None,,,,,,,,,,,GSR_th,001,2025-03-07_11h37.46.767,MainFlow,2024.2.4,146.4757209166979,2025-03-07 11h38.11.485926 +0700,
1,48,1,word/wordth0481.png,image/True/img48.png,223,223,0,z,0.758480899999995,None,0,223,223,223,746.5590621000001,,,,,,,748.0601925000001,747.5753860999998,747.5817748,747.5817748,748.0537760000002,749.2620662999998,749.2620662999998,z,0.758480899999995,None,,,,,,,,,,,GSR_th,001,2025-03-07_11h37.46.767,MainFlow,2024.2.4,146.4757209166979,2025-03-07 11h38.11.485926 +0700,
1,44,1,word/wordth0441.png,image/True/img44.png,224,224,0,z,0.5179048999998486,None,0,224,224,224,750.0374912000002,,,,,,,751.5381908999998,751.0533513,751.0600814,751.0600814,751.5318269999998,752.7286586,752.7286586,z,0.5179048999998486,None,,,,,,,,,,,GSR_th,001,2025-03-07_11h37.46.767,MainFlow,2024.2.4,146.4757209166979,2025-03-07 11h38.11.485926 +0700,
1,87,0,word/wordth0871.png,image/False/imgf87.png,225,225,0,x,0.6008412999999564,None,0,225,225,225,753.2571889000001,,,,,,,754.7603413000002,754.2754746,754.2827434999999,754.2827434999999,754.7540614,755.9448140999998,755.9448140999998,x,0.6008412999999564,None,754.2827434999999,,,,,,,,,,GSR_th,001,2025-03-07_11h37.46.767,MainFlow,2024.2.4,146.4757209166979,2025-03-07 11h38.11.485926 +0700,
1,70,1,word/wordth0701.png,image/True/img70.png,226,226,0,z,0.6494791000000077,None,0,226,226,226,756.5574265999999,,,,,,,758.0582678000001,757.5719014000001,757.5783267000002,757.5783267000002,758.0521395999999,759.2614552,759.2614552,z,0.6494791000000077,None,,,,,,,,,,,GSR_th,001,2025-03-07_11h37.46.767,MainFlow,2024.2.4,146.4757209166979,2025-03-07 11h38.11.485926 +0700,
1,33,0,word/wordth0331.png,image/False/imgf33.png,227,227,0,x,0.4157586999999694,None,0,227,227,227,759.9234413999998,,,,,,,761.4256086,760.9395301999998,760.94587,760.94587,761.4194336,762.6285929999999,762.6285929999999,x,0.4157586999999694,None,,,,,,,,,,,GSR_th,001,2025-03-07_11h37.46.767,MainFlow,2024.2.4,146.4757209166979,2025-03-07 11h38.11.485926 +0700,
1,52,1,word/wordth0521.png,image/True/img52.png,228,228,0,z,0.48844169999983933,None,0,228,228,228,763.0547492999999,,,,,,,764.5568056000002,764.0700431,764.0765172000001,764.0765172000001,764.5506568000001,765.7680504,765.7680504,z,0.48844169999983933,None,,,,,,,,,,,GSR_th,001,2025-03-07_11h37.46.767,MainFlow,2024.2.4,146.4757209166979,2025-03-07 11h38.11.485926 +0700,
1,59,1,word/wordth0591.png,image/True/img59.png,229,229,0,z,0.49593499999991764,None,0,229,229,229,766.2690269,,,,,,,767.7715527999999,767.2852462999999,767.2921095000002,767.2921095000002,767.7652122999998,768.9820313999999,768.9820313999999,z,0.49593499999991764,None,,,,,,,,,,,GSR_th,001,2025-03-07_11h37.46.767,MainFlow,2024.2.4,146.4757209166979,2025-03-07 11h38.11.485926 +0700,
1,56,0,word/wordth0561.png,image/False/imgf56.png,230,230,0,x,0.5695005000002311,None,0,230,230,230,769.4934552,,,,,,,770.9932780999998,770.5103420999999,770.5169553000001,770.5169553000001,770.987228,772.2444922999998,772.2444922999998,x,0.5695005000002311,None,,,,,,,,,,,GSR_th,001,2025-03-07_11h37.46.767,MainFlow,2024.2.4,146.4757209166979,2025-03-07 11h38.11.485926 +0700,
1,79,1,word/wordth0791.png,image/True/img79.png,231,231,0,x,0.49402169999984835,None,0,231,231,231,772.8296046999999,,,,,,,774.3329224999998,773.8338312999999,773.8389243000001,773.8389243000001,774.3267034999999,775.5531549000002,775.5531549000002,x,0.49402169999984835,None,,,,,,,,,,,GSR_th,001,2025-03-07_11h37.46.767,MainFlow,2024.2.4,146.4757209166979,2025-03-07 11h38.11.485926 +0700,
1,96,1,word/wordth0961.png,image/True/img96.png,232,232,0,z,0.3636510000001181,None,0,232,232,232,776.0583311,,,,,,,777.5617129000002,777.0753196999999,777.0817941,777.0817941,777.5551943,778.7584169000002,778.7584169000002,z,0.3636510000001181,None,,,,,,,,,,,GSR_th,001,2025-03-07_11h37.46.767,MainFlow,2024.2.4,146.4757209166979,2025-03-07 11h38.11.485926 +0700,
1,88,0,word/wordth0881.png,image/False/imgf88.png,233,233,0,x,0.6287047000000712,None,0,233,233,233,779.1354262999998,,,,,,,780.6370811000002,780.1536735,780.1600616000001,780.1600616000001,780.6308316,781.8886576999998,781.8886576999998,x,0.6287047000000712,None,,,,,,,,,,,GSR_th,001,2025-03-07_11h37.46.767,MainFlow,2024.2.4,146.4757209166979,2025-03-07 11h38.11.485926 +0700,
1,96,0,word/wordth0961.png,image/False/imgf96.png,234,234,0,x,0.6148549999998068,None,0,234,234,234,782.5253321999999,,,,,,,784.0322368999996,783.5381588,783.5444714,783.5444714,784.0261088999996,785.2372972000003,785.2372972000003,x,0.6148549999998068,None,,,,,,,,,,,GSR_th,001,2025-03-07_11h37.46.767,MainFlow,2024.2.4,146.4757209166979,2025-03-07 11h38.11.485926 +0700,
1,88,1,word/wordth0881.png,image/True/img88.png,235,235,0,z,0.4038300000001982,None,0,235,235,235,785.8690444000003,,,,,,,787.3648923999999,786.8655294999999,786.8706688000002,786.8706688000002,787.3596871999998,788.5731893000002,788.5731893000002,z,0.4038300000001982,None,,787.3648923999999,787.3648923999999,,,,,,,,GSR_th,001,2025-03-07_11h37.46.767,MainFlow,2024.2.4,146.4757209166979,2025-03-07 11h38.11.485926 +0700,
1,70,0,word/wordth0701.png,image/False/imgf70.png,236,236,0,x,0.584501199999977,None,0,236,236,236,788.9859861000004,,,,,,,790.4896410000001,790.0036171000002,790.0101813000001,790.0101813000001,790.4832061999996,791.6582937000003,791.6582937000003,x,0.584501199999977,None,790.0101813000001,,,,,,,,,,GSR_th,001,2025-03-07_11h37.46.767,MainFlow,2024.2.4,146.4757209166979,2025-03-07 11h38.11.485926 +0700,
1,71,1,word/wordth0711.png,image/True/img71.png,237,237,0,z,0.39761689999977534,None,0,237,237,237,792.2561967000001,,,,,,,793.7596890000004,793.2772428999997,793.2838251000003,793.2838251000003,793.7534062000004,795.0199783999997,795.0199783999997,z,0.39761689999977534,None,793.2838251000003,,,,,,,,,,GSR_th,001,2025-03-07_11h37.46.767,MainFlow,2024.2.4,146.4757209166979,2025-03-07 11h38.11.485926 +0700,
1,94,0,word/wordth0941.png,image/False/imgf94.png,238,238,0,x,0.6115831999995862,None,0,238,238,238,795.4295763,,,,,,,796.9325122999999,796.4474811,796.4539384,796.4539384,796.9263914000003,798.1510312,798.1510312,x,0.6115831999995862,None,,,,,,,,,,,GSR_th,001,2025-03-07_11h37.46.767,MainFlow,2024.2.4,146.4757209166979,2025-03-07 11h38.11.485926 +0700,
1,17,1,word/wordth0171.png,image/True/img17.png,239,239,0,z,0.3835158000001684,None,0,239,239,239,798.7727916000003,,,,,,,800.2787779,799.7846661000003,799.7911363000003,799.7911363000003,800.2724572999996,801.4771510999999,801.4771510999999,z,0.3835158000001684,None,,,,,,,,,,,GSR_th,001,2025-03-07_11h37.46.767,MainFlow,2024.2.4,146.4757209166979,2025-03-07 11h38.11.485926 +0700,
,,,,,,,,,,,,,,,,,,,,,,,,,,,,,,,,,,,801.8717650999997,801.8807321000004,801.8807321000004,802.9273654999997,space,1.0426754000000074,None,GSR_th,001,2025-03-07_11h37.46.767,MainFlow,2024.2.4,146.4757209166979,2025-03-07 11h38.11.485926 +0700,
