lang,wordid,truestate,worddir,imgdir,thisN,thisTrialN,thisRepN,key_resp.keys,key_resp.rt,key_resp.duration,trials.thisRepN,trials.thisTrialN,trials.thisN,trials.thisIndex,thisRow.t,notes,tutorial.started,tutorial.stopped,key_instruct.keys,key_instruct.rt,key_instruct.duration,plusblank.started,wordshow.started,image.started,plsuer.started,wordshow.stopped,imageword.started,key_resp.started,trials.key_resp.keys,trials.key_resp.rt,trials.key_resp.duration,image.stopped,plsuer.stopped,plusblank.stopped,ending.started,text_3.started,ending_key.started,ending.stopped,ending_key.keys,ending_key.rt,ending_key.duration,participant,session,date,expName,psychopyVersion,frameRate,expStart,
,,,,,,,,,,,,,,,,,0.00691449991427362,68.2562232001219,space,68.22691710013896,None,,,,,,,,,,,,,,,,,,,,,KH_en,001,2025-03-09_20h35.12.637,MainFlow,2024.2.4,144.97060701093253,2025-03-09 20h35.41.614887 +0700,
2,87,0,word/worden0871.png,image/False/imgf87.png,0,0,0,x,1.3503303998149931,None,0,0,0,0,68.30424079997465,,,,,,,69.76412119995803,69.27107909996994,69.27709660003893,69.27709660003893,69.75727760000154,70.96023229998536,70.96023229998536,x,1.3503303998149931,None,,,,,,,,,,,KH_en,001,2025-03-09_20h35.12.637,MainFlow,2024.2.4,144.97060701093253,2025-03-09 20h35.41.614887 +0700,
2,93,0,word/worden0931.png,image/False/imgf93.png,1,1,0,x,1.33057209989056,None,0,1,1,1,72.3213923999574,,,,,,,73.81675749993883,73.31273170001805,73.32324529998004,73.32324529998004,73.81010790006258,74.90104410005733,74.90104410005733,x,1.33057209989056,None,73.81675749993883,73.81675749993883,74.90104410005733,,,,,,,,KH_en,001,2025-03-09_20h35.12.637,MainFlow,2024.2.4,144.97060701093253,2025-03-09 20h35.41.614887 +0700,
2,23,0,word/worden0231.png,image/False/imgf23.png,2,2,0,x,0.9030122999101877,None,0,2,2,2,76.24199080001563,,,,,,,77.73042899998836,77.23180050007068,77.23606080003083,77.23606080003083,77.72366819996387,78.85655059991404,78.85655059991404,x,0.9030122999101877,None,77.73042899998836,77.73042899998836,78.85655059991404,,,,,,,,KH_en,001,2025-03-09_20h35.12.637,MainFlow,2024.2.4,144.97060701093253,2025-03-09 20h35.41.614887 +0700,
2,10,1,word/worden0101.png,image/True/img10.png,3,3,0,z,1.038420399883762,None,0,3,3,3,79.76715669990517,,,,,,,81.25474260002375,80.7557431999594,80.76039550011046,80.76039550011046,81.24806279991753,82.34614949999377,82.34614949999377,z,1.038420399883762,None,81.25474260002375,81.25474260002375,82.34614949999377,,,,,,,,KH_en,001,2025-03-09_20h35.12.637,MainFlow,2024.2.4,144.97060701093253,2025-03-09 20h35.41.614887 +0700,
2,50,0,word/worden0501.png,image/False/imgf50.png,4,4,0,x,0.978632900165394,None,0,4,4,4,83.39499470009468,,,,,,,84.8834257000126,84.3845333000645,84.38903709989972,84.38903709989972,84.87670850008726,85.97395000001416,85.97395000001416,x,0.978632900165394,None,84.8834257000126,84.8834257000126,85.97395000001416,,,,,,,,KH_en,001,2025-03-09_20h35.12.637,MainFlow,2024.2.4,144.97060701093253,2025-03-09 20h35.41.614887 +0700,
2,33,1,word/worden0331.png,image/True/img33.png,5,5,0,z,0.8638716000132263,None,0,5,5,5,86.96104550012387,,,,,,,88.45644169999287,87.95187729992904,87.96291389991529,87.96291389991529,88.4497992999386,89.56169519992545,89.56169519992545,z,0.8638716000132263,None,88.45644169999287,88.45644169999287,89.56169519992545,,,,,,,,KH_en,001,2025-03-09_20h35.12.637,MainFlow,2024.2.4,144.97060701093253,2025-03-09 20h35.41.614887 +0700,
2,95,0,word/worden0951.png,image/False/imgf95.png,6,6,0,x,0.8213084999006242,None,0,6,6,6,90.43677760008723,,,,,,,91.932126800064,91.42740990011953,91.43861389998347,91.43861389998347,91.92545400001109,93.04426379990764,93.04426379990764,x,0.8213084999006242,None,91.932126800064,91.932126800064,93.04426379990764,,,,,,,,KH_en,001,2025-03-09_20h35.12.637,MainFlow,2024.2.4,144.97060701093253,2025-03-09 20h35.41.614887 +0700,
2,7,0,word/worden0071.png,image/False/imgf07.png,7,7,0,x,1.058067600009963,None,0,7,7,7,93.8785359999165,,,,,,,95.36617560009472,94.86727529997006,94.87175050005317,94.87175050005317,95.35943519999273,96.46449399995618,96.46449399995618,x,1.058067600009963,None,95.36617560009472,95.36617560009472,96.46449399995618,,,,,,,,KH_en,001,2025-03-09_20h35.12.637,MainFlow,2024.2.4,144.97060701093253,2025-03-09 20h35.41.614887 +0700,
2,28,1,word/worden0281.png,image/True/img28.png,8,8,0,z,0.7886053000111133,None,0,8,8,8,97.5341775000561,,,,,,,99.02257269993424,98.52356739994138,98.5282101999037,98.5282101999037,99.01587429991923,100.13396040000953,100.13396040000953,z,0.7886053000111133,None,99.02257269993424,99.02257269993424,100.13396040000953,,,,,,,,KH_en,001,2025-03-09_20h35.12.637,MainFlow,2024.2.4,144.97060701093253,2025-03-09 20h35.41.614887 +0700,
2,38,1,word/worden0381.png,image/True/img38.png,9,9,0,z,0.8184202001430094,None,0,9,9,9,100.9341768999584,,,,,,,102.42875299998559,101.92437579995021,101.93518880009651,101.93518880009651,102.4223116999492,103.51316690002568,103.51316690002568,z,0.8184202001430094,None,102.42875299998559,102.42875299998559,103.51316690002568,,,,,,,,KH_en,001,2025-03-09_20h35.12.637,MainFlow,2024.2.4,144.97060701093253,2025-03-09 20h35.41.614887 +0700,
2,33,0,word/worden0331.png,image/False/imgf33.png,10,10,0,x,0.8623146000318229,None,0,10,10,10,104.34037479991093,,,,,,,105.82800849992782,105.32822189992294,105.33430130011402,105.33430130011402,105.82133290008642,106.93325729994103,106.93325729994103,x,0.8623146000318229,None,105.82800849992782,105.82800849992782,106.93325729994103,,,,,,,,KH_en,001,2025-03-09_20h35.12.637,MainFlow,2024.2.4,144.97060701093253,2025-03-09 20h35.41.614887 +0700,
2,76,1,word/worden0761.png,image/True/img76.png,11,11,0,z,0.7385658000130206,None,0,11,11,11,107.80831629992463,,,,,,,109.29676540009677,108.79726590006612,108.80278749996796,108.80278749996796,109.29005499999039,110.40200940007344,110.40200940007344,z,0.7385658000130206,None,109.29676540009677,109.29676540009677,110.40200940007344,,,,,,,,KH_en,001,2025-03-09_20h35.12.637,MainFlow,2024.2.4,144.97060701093253,2025-03-09 20h35.41.614887 +0700,
2,75,0,word/worden0751.png,image/False/imgf75.png,12,12,0,x,1.0178986999671906,None,0,12,12,12,111.15193359996192,,,,,,,112.64039089996368,112.14112960011698,112.14601389993913,112.14601389993913,112.6337596999947,113.7386735000182,113.7386735000182,x,1.0178986999671906,None,112.64039089996368,112.64039089996368,113.7386735000182,,,,,,,,KH_en,001,2025-03-09_20h35.12.637,MainFlow,2024.2.4,144.97060701093253,2025-03-09 20h35.41.614887 +0700,
2,7,1,word/worden0071.png,image/True/img07.png,13,13,0,z,0.6841690000146627,None,0,13,13,13,114.76667809998617,,,,,,,116.25508860009722,115.75521679990925,115.7614047001116,115.7614047001116,116.24841060000472,117.36038949992508,117.36038949992508,z,0.6841690000146627,None,116.25508860009722,116.25508860009722,117.36038949992508,,,,,,,,KH_en,001,2025-03-09_20h35.12.637,MainFlow,2024.2.4,144.97060701093253,2025-03-09 20h35.41.614887 +0700,
2,51,1,word/worden0511.png,image/True/img51.png,14,14,0,x,1.8765561999753118,None,0,14,14,14,118.05548990005627,,,,,,,119.54308620002121,119.04353979998268,119.04940750007518,119.04940750007518,119.536391899921,120.64100049994886,120.64100049994886,x,1.8765561999753118,None,119.54308620002121,119.54308620002121,120.64100049994886,,,,,,,,KH_en,001,2025-03-09_20h35.12.637,MainFlow,2024.2.4,144.97060701093253,2025-03-09 20h35.41.614887 +0700,
2,59,0,word/worden0591.png,image/False/imgf59.png,15,15,0,x,1.4932808000594378,None,0,15,15,15,122.52521350001916,,,,,,,124.01979340007529,123.51501430012286,123.52627689996734,123.52627689996734,124.01312280003913,125.09728930005804,125.09728930005804,x,1.4932808000594378,None,124.01979340007529,124.01979340007529,125.09728930005804,,,,,,,,KH_en,001,2025-03-09_20h35.12.637,MainFlow,2024.2.4,144.97060701093253,2025-03-09 20h35.41.614887 +0700,
2,54,0,word/worden0541.png,image/False/imgf54.png,16,16,0,x,1.224055300001055,None,0,16,16,16,126.59795910003595,,,,,,,128.09339800011367,127.58885199995711,127.5998045001179,127.5998045001179,128.08667730004527,129.19851269992068,129.19851269992068,x,1.224055300001055,None,128.09339800011367,128.09339800011367,129.19851269992068,,,,,,,,KH_en,001,2025-03-09_20h35.12.637,MainFlow,2024.2.4,144.97060701093253,2025-03-09 20h35.41.614887 +0700,
2,6,1,word/worden0061.png,image/True/img06.png,17,17,0,z,1.2326289999764413,None,0,17,17,17,130.43596050003543,,,,,,,131.93049750011414,131.42629370000213,131.43697159993462,131.43697159993462,131.92383400001563,133.01493300008588,133.01493300008588,z,1.2326289999764413,None,131.93049750011414,131.93049750011414,133.01493300008588,,,,,,,,KH_en,001,2025-03-09_20h35.12.637,MainFlow,2024.2.4,144.97060701093253,2025-03-09 20h35.41.614887 +0700,
2,41,1,word/worden0411.png,image/True/img41.png,18,18,0,z,1.2274596998468041,None,0,18,18,18,134.25909999990836,,,,,,,135.74684530007653,135.24732520012185,135.25283059990034,135.25283059990034,135.74005910009146,136.85210840008222,136.85210840008222,z,1.2274596998468041,None,135.74684530007653,135.74684530007653,136.85210840008222,,,,,,,,KH_en,001,2025-03-09_20h35.12.637,MainFlow,2024.2.4,144.97060701093253,2025-03-09 20h35.41.614887 +0700,
2,42,0,word/worden0421.png,image/False/imgf42.png,19,19,0,x,0.6872763999272138,None,0,19,19,19,138.08863690006547,,,,,,,139.5770602999255,139.07775559998117,139.0826729000546,139.0826729000546,139.57038299995475,140.68928400008008,140.68928400008008,x,0.6872763999272138,None,139.5770602999255,139.5770602999255,140.68928400008008,,,,,,,,KH_en,001,2025-03-09_20h35.12.637,MainFlow,2024.2.4,144.97060701093253,2025-03-09 20h35.41.614887 +0700,
2,64,0,word/worden0641.png,image/False/imgf64.png,20,20,0,x,3.5550579000264406,None,0,20,20,20,141.38359230011702,,,,,,,142.87893379991874,142.37430249992758,142.38538590003736,142.38538590003736,142.8722570000682,143.94949860009365,143.94949860009365,x,3.5550579000264406,None,142.87893379991874,142.87893379991874,143.94949860009365,,,,,,,,KH_en,001,2025-03-09_20h35.12.637,MainFlow,2024.2.4,144.97060701093253,2025-03-09 20h35.41.614887 +0700,
2,96,1,word/worden0961.png,image/True/img96.png,21,21,0,z,0.8783718999475241,None,0,21,21,21,147.5155545999296,,,,,,,149.0031439999584,148.50406339997426,148.50878000003286,148.50878000003286,148.99650130001828,150.11523370002396,150.11523370002396,z,0.8783718999475241,None,149.0031439999584,149.0031439999584,150.11523370002396,,,,,,,,KH_en,001,2025-03-09_20h35.12.637,MainFlow,2024.2.4,144.97060701093253,2025-03-09 20h35.41.614887 +0700,
2,76,0,word/worden0761.png,image/False/imgf76.png,22,22,0,x,0.7904779999516904,None,0,22,22,22,151.00431929994375,,,,,,,152.49971290002577,151.99511800007895,152.0061880000867,152.0061880000867,152.49299900000915,153.6111024999991,153.6111024999991,x,0.7904779999516904,None,152.49971290002577,152.49971290002577,153.6111024999991,,,,,,,,KH_en,001,2025-03-09_20h35.12.637,MainFlow,2024.2.4,144.97060701093253,2025-03-09 20h35.41.614887 +0700,
2,17,1,word/worden0171.png,image/True/img17.png,23,23,0,z,0.6762294000945985,None,0,23,23,23,154.41131670004688,,,,,,,155.89895140007138,155.39962440007366,155.40455719991587,155.40455719991587,155.89222609996796,156.99032599991187,156.99032599991187,z,0.6762294000945985,None,155.89895140007138,155.89895140007138,156.99032599991187,,,,,,,,KH_en,001,2025-03-09_20h35.12.637,MainFlow,2024.2.4,144.97060701093253,2025-03-09 20h35.41.614887 +0700,
2,6,1,word/worden0061.png,image/True/img06.png,24,24,0,z,0.6812463998794556,None,0,24,24,24,157.67851050011814,,,,,,,159.16610889998265,158.66634849994443,158.6724296999164,158.6724296999164,159.15942010004073,160.2573130999226,160.2573130999226,z,0.6812463998794556,None,159.16610889998265,159.16610889998265,160.2573130999226,,,,,,,,KH_en,001,2025-03-09_20h35.12.637,MainFlow,2024.2.4,144.97060701093253,2025-03-09 20h35.41.614887 +0700,
2,88,1,word/worden0881.png,image/True/img88.png,25,25,0,z,0.684180999873206,None,0,25,25,25,160.94564020005055,,,,,,,162.4402715000324,161.93521460006014,161.94668149994686,161.94668149994686,162.43355580000207,163.55940810008906,163.55940810008906,z,0.684180999873206,None,162.4402715000324,162.4402715000324,163.55940810008906,,,,,,,,KH_en,001,2025-03-09_20h35.12.637,MainFlow,2024.2.4,144.97060701093253,2025-03-09 20h35.41.614887 +0700,
2,44,1,word/worden0441.png,image/True/img44.png,26,26,0,z,0.8268767998088151,None,0,26,26,26,164.25452399998903,,,,,,,165.742149699945,165.24307819991373,165.24775310000405,165.24775310000405,165.73543390003033,166.83267790009268,166.83267790009268,z,0.8268767998088151,None,165.742149699945,165.742149699945,166.83267790009268,,,,,,,,KH_en,001,2025-03-09_20h35.12.637,MainFlow,2024.2.4,144.97060701093253,2025-03-09 20h35.41.614887 +0700,
2,27,0,word/worden0271.png,image/False/imgf27.png,27,27,0,x,0.7669304998125881,None,0,27,27,27,167.6668394000735,,,,,,,169.1552713001147,168.65599790005945,168.66091000009328,168.66091000009328,169.14859559992328,170.25364880007692,170.25364880007692,x,0.7669304998125881,None,169.1552713001147,169.1552713001147,170.25364880007692,,,,,,,,KH_en,001,2025-03-09_20h35.12.637,MainFlow,2024.2.4,144.97060701093253,2025-03-09 20h35.41.614887 +0700,
2,14,0,word/worden0141.png,image/False/imgf14.png,28,28,0,x,0.6275734999217093,None,0,28,28,28,171.03131640003994,,,,,,,172.5267195000779,172.02251949999481,172.03304639994167,172.03304639994167,172.520027999999,173.62502750009298,173.62502750009298,x,0.6275734999217093,None,172.5267195000779,172.5267195000779,173.62502750009298,,,,,,,,KH_en,001,2025-03-09_20h35.12.637,MainFlow,2024.2.4,144.97060701093253,2025-03-09 20h35.41.614887 +0700,
2,40,0,word/worden0401.png,image/False/imgf40.png,29,29,0,x,0.7630598999094218,None,0,29,29,29,174.2646349000279,,,,,,,175.7521605999209,175.25294940010644,175.25776690011844,175.25776690011844,175.74547079997137,176.85053110006265,176.85053110006265,x,0.7630598999094218,None,175.7521605999209,175.7521605999209,176.85053110006265,,,,,,,,KH_en,001,2025-03-09_20h35.12.637,MainFlow,2024.2.4,144.97060701093253,2025-03-09 20h35.41.614887 +0700,
2,1,0,word/worden0011.png,image/False/imgf01.png,30,30,0,x,0.9314571998547763,None,0,30,30,30,177.62124090013094,,,,,,,179.1096618999727,178.61026440002024,178.6152908001095,178.6152908001095,179.10301299998537,180.19412350002676,180.19412350002676,x,0.9314571998547763,None,179.1096618999727,179.1096618999727,180.19412350002676,,,,,,,,KH_en,001,2025-03-09_20h35.12.637,MainFlow,2024.2.4,144.97060701093253,2025-03-09 20h35.41.614887 +0700,
2,3,0,word/worden0031.png,image/False/imgf03.png,31,31,0,x,0.9282343999948353,None,0,31,31,31,181.13869630009867,,,,,,,182.6340618999675,182.12933970009908,182.14055959996767,182.14055959996767,182.62734519992955,183.72543069999665,183.72543069999665,x,0.9282343999948353,None,182.6340618999675,182.6340618999675,183.72543069999665,,,,,,,,KH_en,001,2025-03-09_20h35.12.637,MainFlow,2024.2.4,144.97060701093253,2025-03-09 20h35.41.614887 +0700,
2,57,1,word/worden0571.png,image/True/img57.png,32,32,0,x,0.6458198002073914,None,0,32,32,32,184.66301740007475,,,,,,,186.15145880007185,185.6522765001282,185.65707630012184,185.65707630012184,186.1448327000253,187.2567422001157,187.2567422001157,x,0.6458198002073914,None,186.15145880007185,186.15145880007185,187.2567422001157,,,,,,,,KH_en,001,2025-03-09_20h35.12.637,MainFlow,2024.2.4,144.97060701093253,2025-03-09 20h35.41.614887 +0700,
2,88,0,word/worden0881.png,image/False/imgf88.png,33,33,0,x,0.9599744000006467,None,0,33,33,33,187.91014580009505,,,,,,,189.3977375999093,188.89769629994407,188.9040767000988,188.9040767000988,189.3910698001273,190.495621799957,190.495621799957,x,0.9599744000006467,None,189.3977375999093,189.3977375999093,190.495621799957,,,,,,,,KH_en,001,2025-03-09_20h35.12.637,MainFlow,2024.2.4,144.97060701093253,2025-03-09 20h35.41.614887 +0700,
2,52,0,word/worden0521.png,image/False/imgf52.png,34,34,0,x,0.8084774999879301,None,0,34,34,34,191.4692563000135,,,,,,,192.96383189992048,192.45949809998274,192.47032140009105,192.47032140009105,192.95713460003026,194.05522989993915,194.05522989993915,x,0.8084774999879301,None,192.96383189992048,192.96383189992048,194.05522989993915,,,,,,,,KH_en,001,2025-03-09_20h35.12.637,MainFlow,2024.2.4,144.97060701093253,2025-03-09 20h35.41.614887 +0700,
2,50,0,word/worden0501.png,image/False/imgf50.png,35,35,0,x,0.9171386000234634,None,0,35,35,35,194.87463900004514,,,,,,,196.3700019000098,195.8646825000178,195.87644009990618,195.87644009990618,196.36333449999802,197.47444100002758,197.47444100002758,x,0.9171386000234634,None,196.3700019000098,196.3700019000098,197.47444100002758,,,,,,,,KH_en,001,2025-03-09_20h35.12.637,MainFlow,2024.2.4,144.97060701093253,2025-03-09 20h35.41.614887 +0700,
2,78,1,word/worden0781.png,image/True/img78.png,36,36,0,z,0.6058694999665022,None,0,36,36,36,198.3990629001055,,,,,,,199.88741820002906,199.3882339000702,199.3930581000168,199.3930581000168,199.88074570009485,200.97869840008207,200.97869840008207,z,0.6058694999665022,None,199.88741820002906,199.88741820002906,200.97869840008207,,,,,,,,KH_en,001,2025-03-09_20h35.12.637,MainFlow,2024.2.4,144.97060701093253,2025-03-09 20h35.41.614887 +0700,
2,61,0,word/worden0611.png,image/False/imgf61.png,37,37,0,z,1.092323600081727,None,0,37,37,37,201.59745120001025,,,,,,,203.0850593999494,202.5863044001162,202.59069130010903,202.59069130010903,203.0783621999435,204.20423800009303,204.20423800009303,z,1.092323600081727,None,203.0850593999494,203.0850593999494,204.20423800009303,,,,,,,,KH_en,001,2025-03-09_20h35.12.637,MainFlow,2024.2.4,144.97060701093253,2025-03-09 20h35.41.614887 +0700,
2,36,0,word/worden0361.png,image/False/imgf36.png,38,38,0,x,1.0022146999835968,None,0,38,38,38,205.30868940008804,,,,,,,206.79709980008192,206.2980490999762,206.3027290001046,206.3027290001046,206.79042840003967,207.89534400007688,207.89534400007688,x,1.0022146999835968,None,206.79709980008192,206.79709980008192,207.89534400007688,,,,,,,,KH_en,001,2025-03-09_20h35.12.637,MainFlow,2024.2.4,144.97060701093253,2025-03-09 20h35.41.614887 +0700,
2,10,1,word/worden0101.png,image/True/img10.png,39,39,0,z,0.9623359001707286,None,0,39,39,39,208.90951059991494,,,,,,,210.39784329989925,209.89879589993507,209.90357770002447,209.90357770002447,210.39125799993053,211.50322610000148,211.50322610000148,z,0.9623359001707286,None,210.39784329989925,210.39784329989925,211.50322610000148,,,,,,,,KH_en,001,2025-03-09_20h35.12.637,MainFlow,2024.2.4,144.97060701093253,2025-03-09 20h35.41.614887 +0700,
2,75,1,word/worden0751.png,image/True/img75.png,40,40,0,z,0.7412915001623333,None,0,40,40,40,212.47562910011038,,,,,,,213.9640204999596,213.46396349999122,213.47036310005933,213.47036310005933,213.95732380007394,215.0692779000383,215.0692779000383,z,0.7412915001623333,None,213.9640204999596,213.9640204999596,215.0692779000383,,,,,,,,KH_en,001,2025-03-09_20h35.12.637,MainFlow,2024.2.4,144.97060701093253,2025-03-09 20h35.41.614887 +0700,
2,1,1,word/worden0011.png,image/True/img01.png,41,41,0,x,0.9828457999974489,None,0,41,41,41,215.82004739996046,,,,,,,217.3076206999831,216.80755969998427,216.8140304000117,216.8140304000117,217.30094720004126,218.42026409995742,218.42026409995742,x,0.9828457999974489,None,217.3076206999831,217.3076206999831,218.42026409995742,,,,,,,,KH_en,001,2025-03-09_20h35.12.637,MainFlow,2024.2.4,144.97060701093253,2025-03-09 20h35.41.614887 +0700,
2,37,1,word/worden0371.png,image/True/img37.png,42,42,0,z,2.8085571001283824,None,0,42,42,42,219.41307349991985,,,,,,,220.9014910000842,220.40212729992345,220.40711940010078,220.40711940010078,220.89480319991708,222.03458880004473,222.03458880004473,z,2.8085571001283824,None,220.9014910000842,220.9014910000842,222.03458880004473,,,,,,,,KH_en,001,2025-03-09_20h35.12.637,MainFlow,2024.2.4,144.97060701093253,2025-03-09 20h35.41.614887 +0700,
2,66,0,word/worden0661.png,image/False/imgf66.png,43,43,0,x,0.9224078000988811,None,0,43,43,43,224.84991919994354,,,,,,,226.34447270003147,225.83989670011215,225.85091980011202,225.85091980011202,226.33778519998305,227.44963539997116,227.44963539997116,x,0.9224078000988811,None,226.34447270003147,226.34447270003147,227.44963539997116,,,,,,,,KH_en,001,2025-03-09_20h35.12.637,MainFlow,2024.2.4,144.97060701093253,2025-03-09 20h35.41.614887 +0700,
2,55,1,word/worden0551.png,image/True/img55.png,44,44,0,z,0.7600261999759823,None,0,44,44,44,228.38038840005174,,,,,,,229.86881159991026,229.37002869998105,229.3744624000974,229.3744624000974,229.86212659999728,230.98802080005407,230.98802080005407,z,0.7600261999759823,None,229.86881159991026,229.86881159991026,230.98802080005407,,,,,,,,KH_en,001,2025-03-09_20h35.12.637,MainFlow,2024.2.4,144.97060701093253,2025-03-09 20h35.41.614887 +0700,
2,70,0,word/worden0701.png,image/False/imgf70.png,45,45,0,x,2.059520100010559,None,0,45,45,45,231.75876130000688,,,,,,,233.24722169991583,232.74858210003003,232.7528230000753,232.7528230000753,233.24043789994903,234.34554439992644,234.34554439992644,x,2.059520100010559,None,233.24722169991583,233.24722169991583,234.34554439992644,,,,,,,,KH_en,001,2025-03-09_20h35.12.637,MainFlow,2024.2.4,144.97060701093253,2025-03-09 20h35.41.614887 +0700,
2,68,0,word/worden0681.png,image/False/imgf68.png,46,46,0,x,1.087983300210908,None,0,46,46,46,236.41703179990873,,,,,,,237.91158149996772,237.4063589000143,237.4180399000179,237.4180399000179,237.90488369995728,238.9890686001163,238.9890686001163,x,1.087983300210908,None,237.91158149996772,237.91158149996772,238.9890686001163,,,,,,,,KH_en,001,2025-03-09_20h35.12.637,MainFlow,2024.2.4,144.97060701093253,2025-03-09 20h35.41.614887 +0700,
2,75,1,word/worden0751.png,image/True/img75.png,47,47,0,z,1.037801600061357,None,0,47,47,47,240.0865499000065,,,,,,,241.5749931000173,241.07499659992754,241.08129070000723,241.08129070000723,241.56830539996736,242.680256200023,242.680256200023,z,1.037801600061357,None,241.5749931000173,241.5749931000173,242.680256200023,,,,,,,,KH_en,001,2025-03-09_20h35.12.637,MainFlow,2024.2.4,144.97060701093253,2025-03-09 20h35.41.614887 +0700,
2,38,1,word/worden0381.png,image/True/img38.png,48,48,0,z,0.7291647000238299,None,0,48,48,48,243.72908319998533,,,,,,,245.21741309994832,244.7175143000204,244.72395200002939,244.72395200002939,245.2108140999917,246.3089000999462,246.3089000999462,z,0.7291647000238299,None,245.21741309994832,245.21741309994832,246.3089000999462,,,,,,,,KH_en,001,2025-03-09_20h35.12.637,MainFlow,2024.2.4,144.97060701093253,2025-03-09 20h35.41.614887 +0700,
2,42,1,word/worden0421.png,image/True/img42.png,49,49,0,z,0.9364938999060541,None,0,49,49,49,247.0457250000909,,,,,,,248.53332259994932,248.03332210006192,248.039669000078,248.039669000078,248.52668459992856,249.63853659993038,249.63853659993038,z,0.9364938999060541,None,248.53332259994932,248.53332259994932,249.63853659993038,,,,,,,,KH_en,001,2025-03-09_20h35.12.637,MainFlow,2024.2.4,144.97060701093253,2025-03-09 20h35.41.614887 +0700,
2,11,0,word/worden0111.png,image/False/imgf11.png,50,50,0,x,1.0354343999642879,None,0,50,50,50,250.58316390006803,,,,,,,252.07857659994625,251.5754661001265,251.58509989990853,251.58509989990853,252.07226600009017,253.2116396999918,253.2116396999918,x,1.0354343999642879,None,252.07857659994625,252.07857659994625,253.2116396999918,,,,,,,,KH_en,001,2025-03-09_20h35.12.637,MainFlow,2024.2.4,144.97060701093253,2025-03-09 20h35.41.614887 +0700,
2,41,0,word/worden0411.png,image/False/imgf41.png,51,51,0,x,1.1014706999994814,None,0,51,51,51,254.26046429993585,,,,,,,255.74887809995562,255.24885710002854,255.25532989995554,255.25532989995554,255.74217700003646,256.8185811000876,256.8185811000876,x,1.1014706999994814,None,255.74887809995562,255.74887809995562,256.8185811000876,,,,,,,,KH_en,001,2025-03-09_20h35.12.637,MainFlow,2024.2.4,144.97060701093253,2025-03-09 20h35.41.614887 +0700,
2,82,1,word/worden0821.png,image/True/img82.png,52,52,0,z,1.5423045000061393,None,0,52,52,52,257.93080039997585,,,,,,,259.419244900113,258.919857500121,258.9248661000747,258.9248661000747,259.41251599998213,260.4897491999436,260.4897491999436,z,1.5423045000061393,None,259.419244900113,259.419244900113,260.4897491999436,,,,,,,,KH_en,001,2025-03-09_20h35.12.637,MainFlow,2024.2.4,144.97060701093253,2025-03-09 20h35.41.614887 +0700,
2,88,0,word/worden0881.png,image/False/imgf88.png,53,53,0,x,0.7913510999642313,None,0,53,53,53,262.0399211999029,,,,,,,263.52749389992096,263.02753020008095,263.0338266999461,263.0338266999461,263.5208372999914,264.625699599972,264.625699599972,x,0.7913510999642313,None,263.52749389992096,263.52749389992096,264.625699599972,,,,,,,,KH_en,001,2025-03-09_20h35.12.637,MainFlow,2024.2.4,144.97060701093253,2025-03-09 20h35.41.614887 +0700,
2,8,1,word/worden0081.png,image/True/img08.png,54,54,0,z,0.7806244001258165,None,0,54,54,54,265.4244333000388,,,,,,,266.9197917000856,266.4147204000037,266.4262399999425,266.4262399999425,266.91311570000835,267.9964312000666,267.9964312000666,z,0.7806244001258165,None,266.9197917000856,266.9197917000856,267.9964312000666,,,,,,,,KH_en,001,2025-03-09_20h35.12.637,MainFlow,2024.2.4,144.97060701093253,2025-03-09 20h35.41.614887 +0700,
2,16,0,word/worden0161.png,image/False/imgf16.png,55,55,0,x,0.9233908001333475,None,0,55,55,55,268.78971050004475,,,,,,,270.27734229993075,269.77818239992484,269.78294189996086,269.78294189996086,270.2706319000572,271.38265920011327,271.38265920011327,x,0.9233908001333475,None,270.27734229993075,270.27734229993075,271.38265920011327,,,,,,,,KH_en,001,2025-03-09_20h35.12.637,MainFlow,2024.2.4,144.97060701093253,2025-03-09 20h35.41.614887 +0700,
2,10,0,word/worden0101.png,image/False/imgf10.png,56,56,0,x,0.7900517000816762,None,0,56,56,56,272.3132511000149,,,,,,,273.8016657999251,273.30088280001655,273.3073186001275,273.3073186001275,273.794979600003,274.90000810008496,274.90000810008496,x,0.7900517000816762,None,273.8016657999251,273.8016657999251,274.90000810008496,,,,,,,,KH_en,001,2025-03-09_20h35.12.637,MainFlow,2024.2.4,144.97060701093253,2025-03-09 20h35.41.614887 +0700,
2,76,0,word/worden0761.png,image/False/imgf76.png,57,57,0,x,1.5117637999355793,None,0,57,57,57,275.69933740003034,,,,,,,277.1870087001007,276.68695469992235,276.6934772001114,276.6934772001114,277.1803093000781,278.2992833999451,278.2992833999451,x,1.5117637999355793,None,277.1870087001007,277.1870087001007,278.2992833999451,,,,,,,,KH_en,001,2025-03-09_20h35.12.637,MainFlow,2024.2.4,144.97060701093253,2025-03-09 20h35.41.614887 +0700,
2,42,1,word/worden0421.png,image/True/img42.png,58,58,0,z,0.7595284001436085,None,0,58,58,58,279.8214571001008,,,,,,,281.309122600127,280.8091182000935,280.81563950004056,280.81563950004056,281.3024989000987,282.4075251999311,282.4075251999311,z,0.7595284001436085,None,281.309122600127,281.309122600127,282.4075251999311,,,,,,,,KH_en,001,2025-03-09_20h35.12.637,MainFlow,2024.2.4,144.97060701093253,2025-03-09 20h35.41.614887 +0700,
2,26,0,word/worden0261.png,image/False/imgf26.png,59,59,0,x,2.2182293999940157,None,0,59,59,59,283.17915190011263,,,,,,,284.6736842999235,284.1733780999202,284.1801336999051,284.1801336999051,284.6670178999193,285.78583170007914,285.78583170007914,x,2.2182293999940157,None,284.6736842999235,284.6736842999235,285.78583170007914,,,,,,,,KH_en,001,2025-03-09_20h35.12.637,MainFlow,2024.2.4,144.97060701093253,2025-03-09 20h35.41.614887 +0700,
2,26,1,word/worden0261.png,image/True/img26.png,60,60,0,z,0.7389324998948723,None,0,60,60,60,288.01722560008056,,,,,,,289.5049125000369,289.004673599964,289.01134090009145,289.01134090009145,289.49823120003566,290.6171265000012,290.6171265000012,z,0.7389324998948723,None,289.5049125000369,289.5049125000369,290.6171265000012,,,,,,,,KH_en,001,2025-03-09_20h35.12.637,MainFlow,2024.2.4,144.97060701093253,2025-03-09 20h35.41.614887 +0700,
2,48,1,word/worden0481.png,image/True/img48.png,61,61,0,z,0.553335800068453,None,0,61,61,61,291.3679253999144,,,,,,,292.86242790007964,292.3574977000244,292.3688850000035,292.3688850000035,292.85565280006267,293.96771309990436,293.96771309990436,z,0.553335800068453,None,292.86242790007964,292.86242790007964,293.96771309990436,,,,,,,,KH_en,001,2025-03-09_20h35.12.637,MainFlow,2024.2.4,144.97060701093253,2025-03-09 20h35.41.614887 +0700,
2,71,0,word/worden0711.png,image/False/imgf71.png,62,62,0,x,0.6784515001345426,None,0,62,62,62,294.5299327999819,,,,,,,296.01824679994024,295.5188257000409,295.5247214001138,295.5247214001138,296.01166640012525,297.1305976000149,297.1305976000149,x,0.6784515001345426,None,296.01824679994024,296.01824679994024,297.1305976000149,,,,,,,,KH_en,001,2025-03-09_20h35.12.637,MainFlow,2024.2.4,144.97060701093253,2025-03-09 20h35.41.614887 +0700,
2,93,1,word/worden0931.png,image/True/img93.png,63,63,0,z,1.7592478999868035,None,0,63,63,63,297.8187623000704,,,,,,,299.3063775000628,298.8062696000561,298.81282839993946,298.81282839993946,299.29968130006455,300.3908063999843,300.3908063999843,z,1.7592478999868035,None,299.3063775000628,299.3063775000628,300.3908063999843,,,,,,,,KH_en,001,2025-03-09_20h35.12.637,MainFlow,2024.2.4,144.97060701093253,2025-03-09 20h35.41.614887 +0700,
2,51,1,word/worden0511.png,image/True/img51.png,64,64,0,z,5.378747900016606,None,0,64,64,64,302.1634561000392,,,,,,,303.6510505999904,303.1507862000726,303.15744669991545,303.15744669991545,303.64434490003623,304.75629519997165,304.75629519997165,z,5.378747900016606,None,303.6510505999904,303.6510505999904,304.75629519997165,,,,,,,,KH_en,001,2025-03-09_20h35.12.637,MainFlow,2024.2.4,144.97060701093253,2025-03-09 20h35.41.614887 +0700,
2,78,0,word/worden0781.png,image/False/imgf78.png,65,65,0,x,1.3754290000069886,None,0,65,65,65,310.14360180008225,,,,,,,311.63120279996656,311.1310763999354,311.13760029990226,311.13760029990226,311.6245365999639,312.7156245999504,312.7156245999504,x,1.3754290000069886,None,311.63120279996656,311.63120279996656,312.7156245999504,,,,,,,,KH_en,001,2025-03-09_20h35.12.637,MainFlow,2024.2.4,144.97060701093253,2025-03-09 20h35.41.614887 +0700,
2,64,0,word/worden0641.png,image/False/imgf64.png,66,66,0,x,5.9650131999515,None,0,66,66,66,314.0989616001025,,,,,,,315.59349530003965,315.0893701999448,315.0999793999363,315.0999793999363,315.58672880008817,316.6640395000577,316.6640395000577,x,5.9650131999515,None,315.59349530003965,315.59349530003965,316.6640395000577,,,,,,,,KH_en,001,2025-03-09_20h35.12.637,MainFlow,2024.2.4,144.97060701093253,2025-03-09 20h35.41.614887 +0700,
2,68,1,word/worden0681.png,image/True/img68.png,67,67,0,z,0.7327703000046313,None,0,67,67,67,322.6421185999643,,,,,,,324.1298400000669,323.6299288000446,323.6361837000586,323.6361837000586,324.1231810001191,325.2003729001153,325.2003729001153,z,0.7327703000046313,None,324.1298400000669,324.1298400000669,325.2003729001153,,,,,,,,KH_en,001,2025-03-09_20h35.12.637,MainFlow,2024.2.4,144.97060701093253,2025-03-09 20h35.41.614887 +0700,
2,57,0,word/worden0571.png,image/False/imgf57.png,68,68,0,x,1.3247456001117826,None,0,68,68,68,325.94414109992795,,,,,,,327.4317990001291,326.93168870010413,326.9381905000191,326.9381905000191,327.42506420006976,328.5292849999387,328.5292849999387,x,1.3247456001117826,None,327.4317990001291,327.4317990001291,328.5292849999387,,,,,,,,KH_en,001,2025-03-09_20h35.12.637,MainFlow,2024.2.4,144.97060701093253,2025-03-09 20h35.41.614887 +0700,
2,31,0,word/worden0311.png,image/False/imgf31.png,69,69,0,x,0.772015199996531,None,0,69,69,69,329.8639249999542,,,,,,,331.35929409996606,330.8548465000931,330.86575399991125,330.86575399991125,331.352609799942,332.4220364000648,332.4220364000648,x,0.772015199996531,None,331.35929409996606,331.35929409996606,332.4220364000648,,,,,,,,KH_en,001,2025-03-09_20h35.12.637,MainFlow,2024.2.4,144.97060701093253,2025-03-09 20h35.41.614887 +0700,
2,31,0,word/worden0311.png,image/False/imgf31.png,70,70,0,x,0.7465129001066089,None,0,70,70,70,333.2014268001076,,,,,,,334.6890593999997,334.18889670004137,334.1954721000511,334.1954721000511,334.6823412999511,335.7595544999931,335.7595544999931,x,0.7465129001066089,None,334.6890593999997,334.6890593999997,335.7595544999931,,,,,,,,KH_en,001,2025-03-09_20h35.12.637,MainFlow,2024.2.4,144.97060701093253,2025-03-09 20h35.41.614887 +0700,
2,55,1,word/worden0551.png,image/True/img55.png,71,71,0,z,0.8249496999196708,None,0,71,71,71,336.5164169999771,,,,,,,338.00484269997105,337.50468049990013,337.51126689999364,337.51126689999364,337.99822909990326,339.110108199995,339.110108199995,z,0.8249496999196708,None,338.00484269997105,338.00484269997105,339.110108199995,,,,,,,,KH_en,001,2025-03-09_20h35.12.637,MainFlow,2024.2.4,144.97060701093253,2025-03-09 20h35.41.614887 +0700,
2,36,1,word/worden0361.png,image/True/img36.png,72,72,0,z,0.7467928000260144,None,0,72,72,72,339.94344700011425,,,,,,,341.43188060005195,340.931746999966,340.93832829990424,340.93832829990424,341.42518920009024,342.5163016000297,342.5163016000297,z,0.7467928000260144,None,341.43188060005195,341.43188060005195,342.5163016000297,,,,,,,,KH_en,001,2025-03-09_20h35.12.637,MainFlow,2024.2.4,144.97060701093253,2025-03-09 20h35.41.614887 +0700,
2,8,0,word/worden0081.png,image/False/imgf08.png,73,73,0,x,1.0901086998637766,None,0,73,73,73,343.2739959999453,,,,,,,344.76159700006247,344.26152379997075,344.26792000001296,344.26792000001296,344.7549217999913,345.84602930000983,345.84602930000983,x,1.0901086998637766,None,344.76159700006247,344.76159700006247,345.84602930000983,,,,,,,,KH_en,001,2025-03-09_20h35.12.637,MainFlow,2024.2.4,144.97060701093253,2025-03-09 20h35.41.614887 +0700,
2,82,0,word/worden0821.png,image/False/imgf82.png,74,74,0,x,0.4817757001146674,None,0,74,74,74,346.94351839995943,,,,,,,348.43195659993216,347.931991700083,347.938262199983,347.938262199983,348.42524580005556,349.53026850009337,349.53026850009337,x,0.4817757001146674,None,348.43195659993216,348.43195659993216,349.53026850009337,,,,,,,,KH_en,001,2025-03-09_20h35.12.637,MainFlow,2024.2.4,144.97060701093253,2025-03-09 20h35.41.614887 +0700,
2,14,0,word/worden0141.png,image/False/imgf14.png,75,75,0,x,0.7633181000128388,None,0,75,75,75,350.02386890002526,,,,,,,351.51140610012226,351.0116419000551,351.0177482999861,351.0177482999861,351.5046234000474,352.6097625999246,352.6097625999246,x,0.7633181000128388,None,351.51140610012226,351.51140610012226,352.6097625999246,,,,,,,,KH_en,001,2025-03-09_20h35.12.637,MainFlow,2024.2.4,144.97060701093253,2025-03-09 20h35.41.614887 +0700,
2,71,1,word/worden0711.png,image/True/img71.png,76,76,0,z,0.8708196000661701,None,0,76,76,76,353.3813515000511,,,,,,,354.8689574999735,354.36868340009823,354.3753867999185,354.3753867999185,354.8622544000391,355.9742239001207,355.9742239001207,z,0.8708196000661701,None,354.8689574999735,354.8689574999735,355.9742239001207,,,,,,,,KH_en,001,2025-03-09_20h35.12.637,MainFlow,2024.2.4,144.97060701093253,2025-03-09 20h35.41.614887 +0700,
2,22,0,word/worden0221.png,image/False/imgf22.png,77,77,0,x,0.8700141001027077,None,0,77,77,77,356.8570377000142,,,,,,,358.35157659999095,357.846644599922,357.8580640000291,357.8580640000291,358.3448900000658,359.456038299948,359.456038299948,x,0.8700141001027077,None,358.35157659999095,358.35157659999095,359.456038299948,,,,,,,,KH_en,001,2025-03-09_20h35.12.637,MainFlow,2024.2.4,144.97060701093253,2025-03-09 20h35.41.614887 +0700,
2,78,1,word/worden0781.png,image/True/img78.png,78,78,0,z,0.8753573000431061,None,0,78,78,78,360.3388606000226,,,,,,,361.82733289990574,361.32720479997806,361.3336114999838,361.3336114999838,361.8209609000478,362.91868759994395,362.91868759994395,z,0.8753573000431061,None,361.82733289990574,361.82733289990574,362.91868759994395,,,,,,,,KH_en,001,2025-03-09_20h35.12.637,MainFlow,2024.2.4,144.97060701093253,2025-03-09 20h35.41.614887 +0700,
2,51,0,word/worden0511.png,image/False/imgf51.png,79,79,0,x,0.8135273000225425,None,0,79,79,79,363.8013971999753,,,,,,,365.28909029997885,364.7888873000629,364.7955442999955,364.7955442999955,365.28240510006435,366.3735291000921,366.3735291000921,x,0.8135273000225425,None,365.28909029997885,365.28909029997885,366.3735291000921,,,,,,,,KH_en,001,2025-03-09_20h35.12.637,MainFlow,2024.2.4,144.97060701093253,2025-03-09 20h35.41.614887 +0700,
2,56,1,word/worden0561.png,image/True/img56.png,80,80,0,z,0.6273672000970691,None,0,80,80,80,367.1999097999651,,,,,,,368.6883324999362,368.1892961000558,368.19395200000145,368.19395200000145,368.68165499996394,369.7796962999273,369.7796962999273,z,0.6273672000970691,None,368.6883324999362,368.6883324999362,369.7796962999273,,,,,,,,KH_en,001,2025-03-09_20h35.12.637,MainFlow,2024.2.4,144.97060701093253,2025-03-09 20h35.41.614887 +0700,
2,60,1,word/worden0601.png,image/True/img60.png,81,81,0,z,0.7337014998774976,None,0,81,81,81,370.4190956999082,,,,,,,371.91379590006545,371.40962829999626,371.4202537999954,371.4202537999954,371.9070963000413,372.99736630008556,372.99736630008556,z,0.7337014998774976,None,371.91379590006545,371.91379590006545,372.99736630008556,,,,,,,,KH_en,001,2025-03-09_20h35.12.637,MainFlow,2024.2.4,144.97060701093253,2025-03-09 20h35.41.614887 +0700,
2,96,0,word/worden0961.png,image/False/imgf96.png,82,82,0,x,0.8601241998840123,None,0,82,82,82,373.7412541001104,,,,,,,375.22959179989994,374.72966419998556,374.7360217999667,374.7360217999667,375.22291529993527,376.327947499929,376.327947499929,x,0.8601241998840123,None,375.22959179989994,375.22959179989994,376.327947499929,,,,,,,,KH_en,001,2025-03-09_20h35.12.637,MainFlow,2024.2.4,144.97060701093253,2025-03-09 20h35.41.614887 +0700,
2,3,0,word/worden0031.png,image/False/imgf03.png,83,83,0,x,0.6723507000133395,None,0,83,83,83,377.1960036000237,,,,,,,378.6843387999106,378.1844065999612,378.1908575000707,378.1908575000707,378.67772080004215,379.7757234000601,379.7757234000601,x,0.6723507000133395,None,378.6843387999106,378.6843387999106,379.7757234000601,,,,,,,,KH_en,001,2025-03-09_20h35.12.637,MainFlow,2024.2.4,144.97060701093253,2025-03-09 20h35.41.614887 +0700,
2,55,0,word/worden0551.png,image/False/imgf55.png,84,84,0,x,0.8269263000693172,None,0,84,84,84,380.4570398000069,,,,,,,381.94464690005407,381.4445493000094,381.451110499911,381.451110499911,381.93798059993424,383.0421392999124,383.0421392999124,x,0.8269263000693172,None,381.94464690005407,381.94464690005407,383.0421392999124,,,,,,,,KH_en,001,2025-03-09_20h35.12.637,MainFlow,2024.2.4,144.97060701093253,2025-03-09 20h35.41.614887 +0700,
2,71,1,word/worden0711.png,image/True/img71.png,85,85,0,z,0.66308440011926,None,0,85,85,85,383.87633310002275,,,,,,,385.36460420000367,384.86442160001025,384.87118320004083,384.87118320004083,385.3580785000231,386.4700257999357,386.4700257999357,z,0.66308440011926,None,385.36460420000367,385.36460420000367,386.4700257999357,,,,,,,,KH_en,001,2025-03-09_20h35.12.637,MainFlow,2024.2.4,144.97060701093253,2025-03-09 20h35.41.614887 +0700,
2,3,1,word/worden0031.png,image/True/img03.png,86,86,0,z,0.8759695999324322,None,0,86,86,86,387.14432210009545,,,,,,,388.6318898999598,388.1319128999021,388.13838819996454,388.13838819996454,388.6252323000226,389.7300802001264,389.7300802001264,z,0.8759695999324322,None,388.6318898999598,388.6318898999598,389.7300802001264,,,,,,,,KH_en,001,2025-03-09_20h35.12.637,MainFlow,2024.2.4,144.97060701093253,2025-03-09 20h35.41.614887 +0700,
2,52,1,word/worden0521.png,image/True/img52.png,87,87,0,z,0.7251850999891758,None,0,87,87,87,390.6129707999062,,,,,,,392.10065190005116,391.60070140007883,391.60693869995885,391.60693869995885,392.09397649997845,393.2128892999608,393.2128892999608,z,0.7251850999891758,None,392.10065190005116,392.10065190005116,393.2128892999608,,,,,,,,KH_en,001,2025-03-09_20h35.12.637,MainFlow,2024.2.4,144.97060701093253,2025-03-09 20h35.41.614887 +0700,
2,95,0,word/worden0951.png,image/False/imgf95.png,88,88,0,x,0.9205183000303805,None,0,88,88,88,393.94891429995187,,,,,,,395.4373236000538,394.93724610004574,394.943777800072,394.943777800072,395.4305181999225,396.5425859000534,396.5425859000534,x,0.9205183000303805,None,395.4373236000538,395.4373236000538,396.5425859000534,,,,,,,,KH_en,001,2025-03-09_20h35.12.637,MainFlow,2024.2.4,144.97060701093253,2025-03-09 20h35.41.614887 +0700,
2,6,0,word/worden0061.png,image/False/imgf06.png,89,89,0,x,1.5169772000517696,None,0,89,89,89,397.47325269994326,,,,,,,398.96168570010923,398.4615945001133,398.46813930012286,398.46813930012286,398.9549815999344,400.0461136000231,400.0461136000231,x,1.5169772000517696,None,398.96168570010923,398.96168570010923,400.0461136000231,,,,,,,,KH_en,001,2025-03-09_20h35.12.637,MainFlow,2024.2.4,144.97060701093253,2025-03-09 20h35.41.614887 +0700,
2,79,1,word/worden0791.png,image/True/img79.png,90,90,0,z,0.8587272001896054,None,0,90,90,90,401.575418200111,,,,,,,403.06302800006233,402.5637141999323,402.56864230008796,402.56864230008796,403.05632589990273,404.16134370001964,404.16134370001964,z,0.8587272001896054,None,403.06302800006233,403.06302800006233,404.16134370001964,,,,,,,,KH_en,001,2025-03-09_20h35.12.637,MainFlow,2024.2.4,144.97060701093253,2025-03-09 20h35.41.614887 +0700,
2,61,0,word/worden0611.png,image/False/imgf61.png,91,91,0,z,1.6089302999898791,None,0,91,91,91,405.0294369000476,,,,,,,406.5178672999609,406.01782199996524,406.0241694999859,406.0241694999859,406.51106119994074,407.62314220005646,407.62314220005646,z,1.6089302999898791,None,406.5178672999609,406.5178672999609,407.62314220005646,,,,,,,,KH_en,001,2025-03-09_20h35.12.637,MainFlow,2024.2.4,144.97060701093253,2025-03-09 20h35.41.614887 +0700,
2,46,0,word/worden0461.png,image/False/imgf46.png,92,92,0,x,0.5755636000540107,None,0,92,92,92,409.2419779000338,,,,,,,410.73738180007786,410.2321329000406,410.2438008999452,410.2438008999452,410.7306735001039,411.8495215000585,411.8495215000585,x,0.5755636000540107,None,410.73738180007786,410.73738180007786,411.8495215000585,,,,,,,,KH_en,001,2025-03-09_20h35.12.637,MainFlow,2024.2.4,144.97060701093253,2025-03-09 20h35.41.614887 +0700,
2,89,1,word/worden0891.png,image/True/img89.png,93,93,0,z,0.7705934001132846,None,0,93,93,93,412.43347180006094,,,,,,,413.9209952999372,413.4209569999948,413.4267255999148,413.4267255999148,413.9144047999289,414.99846119992435,414.99846119992435,z,0.7705934001132846,None,413.9209952999372,413.9209952999372,414.99846119992435,,,,,,,,KH_en,001,2025-03-09_20h35.12.637,MainFlow,2024.2.4,144.97060701093253,2025-03-09 20h35.41.614887 +0700,
2,26,0,word/worden0261.png,image/False/imgf26.png,94,94,0,x,0.7291131999809295,None,0,94,94,94,415.77711930009536,,,,,,,417.2647271999158,416.7646814000327,416.77123409998603,416.77123409998603,417.25806850008667,418.37696700007655,418.37696700007655,x,0.7291131999809295,None,417.2647271999158,417.2647271999158,418.37696700007655,,,,,,,,KH_en,001,2025-03-09_20h35.12.637,MainFlow,2024.2.4,144.97060701093253,2025-03-09 20h35.41.614887 +0700,
2,44,0,word/worden0441.png,image/False/imgf44.png,95,95,0,x,0.968438999960199,None,0,95,95,95,419.11296080006287,,,,,,,420.6013817000203,420.1013786001131,420.10770089994185,420.10770089994185,420.5946917999536,421.71361450012773,421.71361450012773,x,0.968438999960199,None,420.6013817000203,420.6013817000203,421.71361450012773,,,,,,,,KH_en,001,2025-03-09_20h35.12.637,MainFlow,2024.2.4,144.97060701093253,2025-03-09 20h35.41.614887 +0700,
2,82,1,word/worden0821.png,image/True/img82.png,96,96,0,z,0.5191523998510092,None,0,96,96,96,422.69294070010073,,,,,,,424.1813765000552,423.68136990000494,423.6877148000058,423.6877148000058,424.17467460012995,425.2519024000503,425.2519024000503,z,0.5191523998510092,None,424.1813765000552,424.1813765000552,425.2519024000503,,,,,,,,KH_en,001,2025-03-09_20h35.12.637,MainFlow,2024.2.4,144.97060701093253,2025-03-09 20h35.41.614887 +0700,
2,16,1,word/worden0161.png,image/True/img16.png,97,97,0,z,4.288061199942604,None,0,97,97,97,425.78019169997424,,,,,,,427.2677841000259,426.7678431000095,426.7741265001241,426.7741265001241,427.2611855000723,428.38698820001446,428.38698820001446,z,4.288061199942604,None,427.2677841000259,427.2677841000259,428.38698820001446,,,,,,,,KH_en,001,2025-03-09_20h35.12.637,MainFlow,2024.2.4,144.97060701093253,2025-03-09 20h35.41.614887 +0700,
2,20,1,word/worden0201.png,image/True/img20.png,98,98,0,z,0.9701151000335813,None,0,98,98,98,432.68295529996976,,,,,,,434.1774941999465,433.6737595000304,433.6839656000957,433.6839656000957,434.170682300115,435.2819342999719,435.2819342999719,z,0.9701151000335813,None,434.1774941999465,434.1774941999465,435.2819342999719,,,,,,,,KH_en,001,2025-03-09_20h35.12.637,MainFlow,2024.2.4,144.97060701093253,2025-03-09 20h35.41.614887 +0700,
2,20,1,word/worden0201.png,image/True/img20.png,99,99,0,z,0.6042744000442326,None,0,99,99,99,436.26292579993606,,,,,,,437.7504966999404,437.25069870008156,437.2568155999761,437.2568155999761,437.74380649998784,438.8557849000208,438.8557849000208,z,0.6042744000442326,None,437.7504966999404,437.7504966999404,438.8557849000208,,,,,,,,KH_en,001,2025-03-09_20h35.12.637,MainFlow,2024.2.4,144.97060701093253,2025-03-09 20h35.41.614887 +0700,
2,96,1,word/worden0961.png,image/True/img96.png,100,100,0,z,0.712695199996233,None,0,100,100,100,439.46748699992895,,,,,,,440.9551009000279,440.4555991999805,440.46076639997773,440.46076639997773,440.94845180003904,442.0603863999713,442.0603863999713,z,0.712695199996233,None,440.9551009000279,440.9551009000279,442.0603863999713,,,,,,,,KH_en,001,2025-03-09_20h35.12.637,MainFlow,2024.2.4,144.97060701093253,2025-03-09 20h35.41.614887 +0700,
2,64,1,word/worden0641.png,image/True/img64.png,101,101,0,z,1.9205977998208255,None,0,101,101,101,442.7825203000102,,,,,,,444.27098149992526,443.7707438999787,443.77741579990834,443.77741579990834,444.2642564000562,445.34845219994895,445.34845219994895,z,1.9205977998208255,None,444.27098149992526,444.27098149992526,445.34845219994895,,,,,,,,KH_en,001,2025-03-09_20h35.12.637,MainFlow,2024.2.4,144.97060701093253,2025-03-09 20h35.41.614887 +0700,
2,78,0,word/worden0781.png,image/False/imgf78.png,102,102,0,x,0.848134099971503,None,0,102,102,102,447.2808918999508,,,,,,,448.7684830999933,448.2683985000476,448.27493950002827,448.27493950002827,448.7617130000144,449.84595549991354,449.84595549991354,x,0.848134099971503,None,448.7684830999933,448.7684830999933,449.84595549991354,,,,,,,,KH_en,001,2025-03-09_20h35.12.637,MainFlow,2024.2.4,144.97060701093253,2025-03-09 20h35.41.614887 +0700,
2,20,0,word/worden0201.png,image/False/imgf20.png,103,103,0,x,1.1353356000036001,None,0,103,103,103,450.70086869993247,,,,,,,452.19553130003624,451.69357140013017,451.7020002999343,451.7020002999343,452.18885040003806,453.31471740012057,453.31471740012057,x,1.1353356000036001,None,452.19553130003624,452.19553130003624,453.31471740012057,,,,,,,,KH_en,001,2025-03-09_20h35.12.637,MainFlow,2024.2.4,144.97060701093253,2025-03-09 20h35.41.614887 +0700,
2,89,1,word/worden0891.png,image/True/img89.png,104,104,0,z,0.5533724001143128,None,0,104,104,104,454.4616082999855,,,,,,,455.9492603999097,455.44917539996095,455.4556875000708,455.4556875000708,455.9425413000863,457.03369219996966,457.03369219996966,z,0.5533724001143128,None,455.9492603999097,455.9492603999097,457.03369219996966,,,,,,,,KH_en,001,2025-03-09_20h35.12.637,MainFlow,2024.2.4,144.97060701093253,2025-03-09 20h35.41.614887 +0700,
2,59,0,word/worden0591.png,image/False/imgf59.png,105,105,0,x,1.1646187000442296,None,0,105,105,105,457.59676839993335,,,,,,,459.0844382001087,458.5841000000946,458.59069280000404,458.59069280000404,459.0776965999976,460.1544361000415,460.1544361000415,x,1.1646187000442296,None,459.0844382001087,459.0844382001087,460.1544361000415,,,,,,,,KH_en,001,2025-03-09_20h35.12.637,MainFlow,2024.2.4,144.97060701093253,2025-03-09 20h35.41.614887 +0700,
2,24,0,word/worden0241.png,image/False/imgf24.png,106,106,0,x,9.349456199910492,None,0,106,106,106,461.3288420001045,,,,,,,462.8241828000173,462.31990749994293,462.3306855999399,462.3306855999399,462.8175246999599,463.91559819993563,463.91559819993563,x,9.349456199910492,None,462.8241828000173,462.8241828000173,463.91559819993563,,,,,,,,KH_en,001,2025-03-09_20h35.12.637,MainFlow,2024.2.4,144.97060701093253,2025-03-09 20h35.41.614887 +0700,
2,28,0,word/worden0281.png,image/False/imgf28.png,107,107,0,x,1.0909862001426518,None,0,107,107,107,473.2721700000111,,,,,,,474.75979369995184,474.25995180010796,474.26614780002274,474.26614780002274,474.75312940008007,475.8581085000187,475.8581085000187,x,1.0909862001426518,None,474.75979369995184,474.75979369995184,475.8581085000187,,,,,,,,KH_en,001,2025-03-09_20h35.12.637,MainFlow,2024.2.4,144.97060701093253,2025-03-09 20h35.41.614887 +0700,
2,15,0,word/worden0151.png,image/False/imgf15.png,108,108,0,x,1.3607197999954224,None,0,108,108,108,476.96254980005324,,,,,,,478.45097659993917,477.95259090000764,477.9566434000153,477.9566434000153,478.4442859000992,479.54933149996214,479.54933149996214,x,1.3607197999954224,None,478.45097659993917,478.45097659993917,479.54933149996214,,,,,,,,KH_en,001,2025-03-09_20h35.12.637,MainFlow,2024.2.4,144.97060701093253,2025-03-09 20h35.41.614887 +0700,
2,30,1,word/worden0301.png,image/True/img30.png,109,109,0,z,0.7713319999165833,None,0,109,109,109,480.9178977000993,,,,,,,482.4063367000781,481.90723069990054,481.9119553999044,481.9119553999044,482.39950460009277,483.490740200039,483.490740200039,z,0.7713319999165833,None,482.4063367000781,482.4063367000781,483.490740200039,,,,,,,,KH_en,001,2025-03-09_20h35.12.637,MainFlow,2024.2.4,144.97060701093253,2025-03-09 20h35.41.614887 +0700,
2,64,1,word/worden0641.png,image/True/img64.png,110,110,0,z,7.770711000077426,None,0,110,110,110,484.27542389999144,,,,,,,485.76388860004954,485.2637179000303,485.2702955000568,485.2702955000568,485.7571946999524,486.84135430003516,486.84135430003516,z,7.770711000077426,None,485.76388860004954,485.76388860004954,486.84135430003516,,,,,,,,KH_en,001,2025-03-09_20h35.12.637,MainFlow,2024.2.4,144.97060701093253,2025-03-09 20h35.41.614887 +0700,
2,52,0,word/worden0521.png,image/False/imgf52.png,111,111,0,x,1.3201556999702007,None,0,111,111,111,494.62000330002047,,,,,,,496.107533399947,495.60809080000035,495.61316470010206,495.61316470010206,496.1008667999413,497.191967099905,497.191967099905,x,1.3201556999702007,None,496.107533399947,496.107533399947,497.191967099905,,,,,,,,KH_en,001,2025-03-09_20h35.12.637,MainFlow,2024.2.4,144.97060701093253,2025-03-09 20h35.41.614887 +0700,
2,33,1,word/worden0331.png,image/True/img33.png,112,112,0,z,0.7853334001265466,None,0,112,112,112,498.5258104999084,,,,,,,500.01422780007124,499.51430950011127,499.5205427999608,499.5205427999608,500.0076242000796,501.11171120009385,501.11171120009385,z,0.7853334001265466,None,500.01422780007124,500.01422780007124,501.11171120009385,,,,,,,,KH_en,001,2025-03-09_20h35.12.637,MainFlow,2024.2.4,144.97060701093253,2025-03-09 20h35.41.614887 +0700,
2,23,1,word/worden0231.png,image/True/img23.png,113,113,0,z,0.5261107999831438,None,0,113,113,113,501.90418660012074,,,,,,,503.39246260002255,502.89258760004304,502.8990629001055,502.8990629001055,503.3859206000343,504.4909383999184,504.4909383999184,z,0.5261107999831438,None,503.39246260002255,503.39246260002255,504.4909383999184,,,,,,,,KH_en,001,2025-03-09_20h35.12.637,MainFlow,2024.2.4,144.97060701093253,2025-03-09 20h35.41.614887 +0700,
2,11,1,word/worden0111.png,image/True/img11.png,114,114,0,z,0.8728688999544829,None,0,114,114,114,505.0262186001055,,,,,,,506.51378070004284,506.0139019000344,506.0201024999842,506.0201024999842,506.50712749990635,507.62517499993555,507.62517499993555,z,0.8728688999544829,None,506.51378070004284,506.51378070004284,507.62517499993555,,,,,,,,KH_en,001,2025-03-09_20h35.12.637,MainFlow,2024.2.4,144.97060701093253,2025-03-09 20h35.41.614887 +0700,
2,22,1,word/worden0221.png,image/True/img22.png,115,115,0,x,0.7662156999576837,None,0,115,115,115,508.50801290012896,,,,,,,509.99643769999966,509.4962291000411,509.5028902001213,509.5028902001213,509.9897765999194,511.1078359999228,511.1078359999228,x,0.7662156999576837,None,509.99643769999966,509.99643769999966,511.1078359999228,,,,,,,,KH_en,001,2025-03-09_20h35.12.637,MainFlow,2024.2.4,144.97060701093253,2025-03-09 20h35.41.614887 +0700,
2,37,0,word/worden0371.png,image/False/imgf37.png,116,116,0,x,14.259078900096938,None,0,116,116,116,511.8863957999274,,,,,,,513.3748095999472,512.8746953001246,512.8812575000338,512.8812575000338,513.3681510000024,514.5009799001273,514.5009799001273,x,14.259078900096938,None,513.3748095999472,513.3748095999472,514.5009799001273,,,,,,,,KH_en,001,2025-03-09_20h35.12.637,MainFlow,2024.2.4,144.97060701093253,2025-03-09 20h35.41.614887 +0700,
2,79,0,word/worden0791.png,image/False/imgf79.png,117,117,0,x,1.4291147999465466,None,0,117,117,117,528.7721899000462,,,,,,,530.2597721000202,529.7602423001081,529.7654055999592,529.7654055999592,530.2531475999858,531.3719379000831,531.3719379000831,x,1.4291147999465466,None,530.2597721000202,530.2597721000202,531.3719379000831,,,,,,,,KH_en,001,2025-03-09_20h35.12.637,MainFlow,2024.2.4,144.97060701093253,2025-03-09 20h35.41.614887 +0700,
2,56,1,word/worden0561.png,image/True/img56.png,118,118,0,z,0.7311263000592589,None,0,118,118,118,532.8101325999014,,,,,,,534.2985608999152,533.7989906000439,533.8045823001303,533.8045823001303,534.291849100031,535.3899266000371,535.3899266000371,z,0.7311263000592589,None,534.2985608999152,534.2985608999152,535.3899266000371,,,,,,,,KH_en,001,2025-03-09_20h35.12.637,MainFlow,2024.2.4,144.97060701093253,2025-03-09 20h35.41.614887 +0700,
2,68,1,word/worden0681.png,image/True/img68.png,119,119,0,z,0.9178418999072164,None,0,119,119,119,536.1328801000491,,,,,,,537.6211942001246,537.1212957999669,537.1276291001122,537.1276291001122,537.6146613000892,538.691733200103,538.691733200103,z,0.9178418999072164,None,537.6211942001246,537.6211942001246,538.691733200103,,,,,,,,KH_en,001,2025-03-09_20h35.12.637,MainFlow,2024.2.4,144.97060701093253,2025-03-09 20h35.41.614887 +0700,
2,27,0,word/worden0271.png,image/False/imgf27.png,120,120,0,x,0.7362585000228137,None,0,120,120,120,539.6224863999523,,,,,,,541.1109116999432,540.6108137001283,540.6173863001168,540.6173863001168,541.1042363999877,542.2023169000167,542.2023169000167,x,0.7362585000228137,None,541.1109116999432,541.1109116999432,542.2023169000167,,,,,,,,KH_en,001,2025-03-09_20h35.12.637,MainFlow,2024.2.4,144.97060701093253,2025-03-09 20h35.41.614887 +0700,
2,3,1,word/worden0031.png,image/True/img03.png,121,121,0,z,0.8225546001922339,None,0,121,121,121,542.9461044999771,,,,,,,544.433690099977,543.9337862001266,543.9400096000172,543.9400096000172,544.4270331000444,545.5320139999967,545.5320139999967,z,0.8225546001922339,None,544.433690099977,544.433690099977,545.5320139999967,,,,,,,,KH_en,001,2025-03-09_20h35.12.637,MainFlow,2024.2.4,144.97060701093253,2025-03-09 20h35.41.614887 +0700,
2,38,0,word/worden0381.png,image/False/imgf38.png,122,122,0,x,1.4406301998533309,None,0,122,122,122,546.3653480000794,,,,,,,547.8537586999591,547.3537113999482,547.3602052999195,547.3602052999195,547.8470930999611,548.9799482000526,548.9799482000526,x,1.4406301998533309,None,547.8537586999591,547.8537586999591,548.9799482000526,,,,,,,,KH_en,001,2025-03-09_20h35.12.637,MainFlow,2024.2.4,144.97060701093253,2025-03-09 20h35.41.614887 +0700,
2,59,1,word/worden0591.png,image/True/img59.png,123,123,0,z,1.2297308999113739,None,0,123,123,123,550.4319319999777,,,,,,,551.9203617000021,551.4201180001255,551.4268026999198,551.4268026999198,551.9137154999189,552.9978350000456,552.9978350000456,z,1.2297308999113739,None,551.9203617000021,551.9203617000021,552.9978350000456,,,,,,,,KH_en,001,2025-03-09_20h35.12.637,MainFlow,2024.2.4,144.97060701093253,2025-03-09 20h35.41.614887 +0700,
2,18,1,word/worden0181.png,image/True/img18.png,124,124,0,z,3.238407399971038,None,0,124,124,124,554.2351609999314,,,,,,,555.7297161999159,555.2254212000407,555.2361864000559,555.2361864000559,555.7230680999346,556.8141705000307,556.8141705000307,z,3.238407399971038,None,555.7297161999159,555.7297161999159,556.8141705000307,,,,,,,,KH_en,001,2025-03-09_20h35.12.637,MainFlow,2024.2.4,144.97060701093253,2025-03-09 20h35.41.614887 +0700,
2,60,1,word/worden0601.png,image/True/img60.png,125,125,0,z,0.9922267999500036,None,0,125,125,125,560.0604721999262,,,,,,,561.5481360000558,561.0479824999347,561.0545499001164,561.0545499001164,561.5416886000894,562.6533313000109,562.6533313000109,z,0.9922267999500036,None,561.5481360000558,561.5481360000558,562.6533313000109,,,,,,,,KH_en,001,2025-03-09_20h35.12.637,MainFlow,2024.2.4,144.97060701093253,2025-03-09 20h35.41.614887 +0700,
2,9,1,word/worden0091.png,image/True/img09.png,126,126,0,z,3.4091099998913705,None,0,126,126,126,563.6535493999254,,,,,,,565.1418973999098,564.6430164999329,564.6475597999524,564.6475597999524,565.1352510000579,566.2124507001135,566.2124507001135,z,3.4091099998913705,None,565.1418973999098,565.1418973999098,566.2124507001135,,,,,,,,KH_en,001,2025-03-09_20h35.12.637,MainFlow,2024.2.4,144.97060701093253,2025-03-09 20h35.41.614887 +0700,
2,9,0,word/worden0091.png,image/False/imgf09.png,127,127,0,x,0.6960519999265671,None,0,127,127,127,569.6324670000467,,,,,,,571.1201484999619,570.6199173999485,570.626585900085,570.626585900085,571.1134564001113,572.1905291001312,572.1905291001312,x,0.6960519999265671,None,571.1201484999619,571.1201484999619,572.1905291001312,,,,,,,,KH_en,001,2025-03-09_20h35.12.637,MainFlow,2024.2.4,144.97060701093253,2025-03-09 20h35.41.614887 +0700,
2,94,0,word/worden0941.png,image/False/imgf94.png,128,128,0,x,0.7809013000223786,None,0,128,128,128,572.8988471000921,,,,,,,574.394255500054,573.8894301999826,573.9007016001269,573.9007016001269,574.3875683001243,575.505665600067,575.505665600067,x,0.7809013000223786,None,574.394255500054,574.394255500054,575.505665600067,,,,,,,,KH_en,001,2025-03-09_20h35.12.637,MainFlow,2024.2.4,144.97060701093253,2025-03-09 20h35.41.614887 +0700,
2,66,1,word/worden0661.png,image/True/img66.png,129,129,0,z,0.6107086997944862,None,0,129,129,129,576.2980959000997,,,,,,,577.7865488999523,577.2856505999807,577.2929537999444,577.2929537999444,577.7798597000074,578.8848566000815,578.8848566000815,z,0.6107086997944862,None,577.7865488999523,577.7865488999523,578.8848566000815,,,,,,,,KH_en,001,2025-03-09_20h35.12.637,MainFlow,2024.2.4,144.97060701093253,2025-03-09 20h35.41.614887 +0700,
2,1,0,word/worden0011.png,image/False/imgf01.png,130,130,0,x,0.8681732998229563,None,0,130,130,130,579.5033964000177,,,,,,,580.9911181000061,580.4909316999838,580.4975769999437,580.4975769999437,580.9844305999577,582.0755493999459,582.0755493999459,x,0.8681732998229563,None,580.9911181000061,580.9911181000061,582.0755493999459,,,,,,,,KH_en,001,2025-03-09_20h35.12.637,MainFlow,2024.2.4,144.97060701093253,2025-03-09 20h35.41.614887 +0700,
2,89,0,word/worden0891.png,image/False/imgf89.png,131,131,0,x,0.6701970000285655,None,0,131,131,131,582.950598299969,,,,,,,584.439018300036,583.9389979999978,583.9455119001213,583.9455119001213,584.4323124999646,585.5303964000195,585.5303964000195,x,0.6701970000285655,None,584.439018300036,584.439018300036,585.5303964000195,,,,,,,,KH_en,001,2025-03-09_20h35.12.637,MainFlow,2024.2.4,144.97060701093253,2025-03-09 20h35.41.614887 +0700,
2,48,1,word/worden0481.png,image/True/img48.png,132,132,0,z,0.6783404001034796,None,0,132,132,132,586.2114611999132,,,,,,,587.6992101999931,587.1990765999071,587.205679200124,587.205679200124,587.6925121000968,588.818277399987,588.818277399987,z,0.6783404001034796,None,587.6992101999931,587.6992101999931,588.818277399987,,,,,,,,KH_en,001,2025-03-09_20h35.12.637,MainFlow,2024.2.4,144.97060701093253,2025-03-09 20h35.41.614887 +0700,
2,63,0,word/worden0631.png,image/False/imgf63.png,133,133,0,x,7.263261900050566,None,0,133,133,133,589.5066168000922,,,,,,,591.0011515000369,590.4962204999756,590.5076089000795,590.5076089000795,590.9944943001028,592.1063010999933,592.1063010999933,x,7.263261900050566,None,591.0011515000369,591.0011515000369,592.1063010999933,,,,,,,,KH_en,001,2025-03-09_20h35.12.637,MainFlow,2024.2.4,144.97060701093253,2025-03-09 20h35.41.614887 +0700,
2,23,1,word/worden0231.png,image/True/img23.png,134,134,0,z,1.0670587001368403,None,0,134,134,134,599.3775764000602,,,,,,,600.8651910999324,600.3653486999683,600.3715196999256,600.3715196999256,600.85849829996,601.9635095000267,601.9635095000267,z,1.0670587001368403,None,600.8651910999324,600.8651910999324,601.9635095000267,,,,,,,,KH_en,001,2025-03-09_20h35.12.637,MainFlow,2024.2.4,144.97060701093253,2025-03-09 20h35.41.614887 +0700,
2,40,0,word/worden0401.png,image/False/imgf40.png,135,135,0,x,0.787672400008887,None,0,135,135,135,603.0401334001217,,,,,,,604.5285708999727,604.0284078000113,604.0350307999179,604.0350307999179,604.521874200087,605.6269062000792,605.6269062000792,x,0.787672400008887,None,604.5285708999727,604.5285708999727,605.6269062000792,,,,,,,,KH_en,001,2025-03-09_20h35.12.637,MainFlow,2024.2.4,144.97060701093253,2025-03-09 20h35.41.614887 +0700,
2,52,1,word/worden0521.png,image/True/img52.png,136,136,0,z,0.7412535001058131,None,0,136,136,136,606.426379499957,,,,,,,607.9138897999655,607.4141055999789,607.420210500015,607.420210500015,607.9071929000784,609.0183471001219,609.0183471001219,z,0.7412535001058131,None,607.9138897999655,607.9138897999655,609.0183471001219,,,,,,,,KH_en,001,2025-03-09_20h35.12.637,MainFlow,2024.2.4,144.97060701093253,2025-03-09 20h35.41.614887 +0700,
2,30,1,word/worden0301.png,image/True/img30.png,137,137,0,z,0.9381093000993133,None,0,137,137,137,609.7691152999178,,,,,,,611.2575167999603,610.7581150000915,610.7631544000469,610.7631544000469,611.2508600999136,612.3415171001107,612.3415171001107,z,0.9381093000993133,None,611.2575167999603,611.2575167999603,612.3415171001107,,,,,,,,KH_en,001,2025-03-09_20h35.12.637,MainFlow,2024.2.4,144.97060701093253,2025-03-09 20h35.41.614887 +0700,
2,15,1,word/worden0151.png,image/True/img15.png,138,138,0,z,0.793397800065577,None,0,138,138,138,613.2865156999324,,,,,,,614.7749523001257,614.2748603001237,614.2813901999034,614.2813901999034,614.7682511999737,615.8871647999622,615.8871647999622,z,0.793397800065577,None,614.7749523001257,614.7749523001257,615.8871647999622,,,,,,,,KH_en,001,2025-03-09_20h35.12.637,MainFlow,2024.2.4,144.97060701093253,2025-03-09 20h35.41.614887 +0700,
2,46,1,word/worden0461.png,image/True/img46.png,139,139,0,z,0.7962674000300467,None,0,139,139,139,616.6927056999411,,,,,,,618.1811178000644,617.6809368999675,617.687552700052,617.687552700052,618.1744188000448,619.3003007001244,619.3003007001244,z,0.7962674000300467,None,618.1811178000644,618.1811178000644,619.3003007001244,,,,,,,,KH_en,001,2025-03-09_20h35.12.637,MainFlow,2024.2.4,144.97060701093253,2025-03-09 20h35.41.614887 +0700,
2,14,1,word/worden0141.png,image/True/img14.png,140,140,0,z,0.6460889999289066,None,0,140,140,140,620.1066433999222,,,,,,,621.6081535001285,621.1032118999865,621.1145474999212,621.1145474999212,621.6012331000529,622.69947280013,622.69947280013,z,0.6460889999289066,None,,,,,,,,,,,KH_en,001,2025-03-09_20h35.12.637,MainFlow,2024.2.4,144.97060701093253,2025-03-09 20h35.41.614887 +0700,
2,66,0,word/worden0661.png,image/False/imgf66.png,141,141,0,x,0.8077750999946147,None,0,141,141,141,623.3529606999364,,,,,,,624.8405585999135,624.3410795999225,624.3470783999655,624.3470783999655,624.8339132999536,625.9458691999316,625.9458691999316,x,0.8077750999946147,None,624.8405585999135,624.8405585999135,625.9458691999316,,,,,,,,KH_en,001,2025-03-09_20h35.12.637,MainFlow,2024.2.4,144.97060701093253,2025-03-09 20h35.41.614887 +0700,
2,46,0,word/worden0461.png,image/False/imgf46.png,142,142,0,x,0.7406301000155509,None,0,142,142,142,626.7653028999921,,,,,,,628.253684700001,627.7534284000285,627.7600837000646,627.7600837000646,628.2470285000745,629.3659399999306,629.3659399999306,x,0.7406301000155509,None,628.253684700001,628.253684700001,629.3659399999306,,,,,,,,KH_en,001,2025-03-09_20h35.12.637,MainFlow,2024.2.4,144.97060701093253,2025-03-09 20h35.41.614887 +0700,
2,18,1,word/worden0181.png,image/True/img18.png,143,143,0,z,1.2578565999865532,None,0,143,143,143,630.116672999924,,,,,,,631.6042508999817,631.1043664000463,631.1105915000662,631.1105915000662,631.5975951000582,632.6887165000662,632.6887165000662,z,1.2578565999865532,None,631.6042508999817,631.6042508999817,632.6887165000662,,,,,,,,KH_en,001,2025-03-09_20h35.12.637,MainFlow,2024.2.4,144.97060701093253,2025-03-09 20h35.41.614887 +0700,
2,51,0,word/worden0511.png,image/False/imgf51.png,144,144,0,x,2.670947300037369,None,0,144,144,144,633.9599756000098,,,,,,,635.4484159001149,634.9482362999115,634.9548534001224,634.9548534001224,635.4417071999051,636.5326906000264,636.5326906000264,x,2.670947300037369,None,635.4484159001149,635.4484159001149,636.5326906000264,,,,,,,,KH_en,001,2025-03-09_20h35.12.637,MainFlow,2024.2.4,144.97060701093253,2025-03-09 20h35.41.614887 +0700,
2,76,1,word/worden0761.png,image/True/img76.png,145,145,0,z,1.0805504999589175,None,0,145,145,145,639.2160483000334,,,,,,,640.7036842999514,640.2036747999955,640.2099852000829,640.2099852000829,640.696986499941,641.7950283000246,641.7950283000246,z,1.0805504999589175,None,640.7036842999514,640.7036842999514,641.7950283000246,,,,,,,,KH_en,001,2025-03-09_20h35.12.637,MainFlow,2024.2.4,144.97060701093253,2025-03-09 20h35.41.614887 +0700,
2,57,1,word/worden0571.png,image/True/img57.png,146,146,0,z,0.37329420004971325,None,0,146,146,146,642.8856015000492,,,,,,,644.3739928000141,643.8739692000672,643.8804647000507,643.8804647000507,644.3673368999735,645.4792701001279,645.4792701001279,z,0.37329420004971325,None,644.3739928000141,644.3739928000141,645.4792701001279,,,,,,,,KH_en,001,2025-03-09_20h35.12.637,MainFlow,2024.2.4,144.97060701093253,2025-03-09 20h35.41.614887 +0700,
2,48,0,word/worden0481.png,image/False/imgf48.png,147,147,0,x,0.8801776000764221,None,0,147,147,147,645.8614958000835,,,,,,,647.3492060001008,646.8490935999434,646.8556472999044,646.8556472999044,647.3425402999856,648.4683980001137,648.4683980001137,x,0.8801776000764221,None,647.3492060001008,647.3492060001008,648.4683980001137,,,,,,,,KH_en,001,2025-03-09_20h35.12.637,MainFlow,2024.2.4,144.97060701093253,2025-03-09 20h35.41.614887 +0700,
2,37,0,word/worden0371.png,image/False/imgf37.png,148,148,0,x,1.8097618001047522,None,0,148,148,148,649.3573336999398,,,,,,,650.8457416999154,650.3448296999559,650.3513913999777,650.3513913999777,650.8390436000191,651.9717993000522,651.9717993000522,x,1.8097618001047522,None,650.8457416999154,650.8457416999154,651.9717993000522,,,,,,,,KH_en,001,2025-03-09_20h35.12.637,MainFlow,2024.2.4,144.97060701093253,2025-03-09 20h35.41.614887 +0700,
2,60,0,word/worden0601.png,image/False/imgf60.png,149,149,0,x,0.9305069998372346,None,0,149,149,149,653.7923679000232,,,,,,,655.2807474001311,654.7807450001128,654.7871701999102,654.7871701999102,655.2740835000295,656.3790784000885,656.3790784000885,x,0.9305069998372346,None,655.2807474001311,655.2807474001311,656.3790784000885,,,,,,,,KH_en,001,2025-03-09_20h35.12.637,MainFlow,2024.2.4,144.97060701093253,2025-03-09 20h35.41.614887 +0700,
2,24,1,word/worden0241.png,image/True/img24.png,150,150,0,z,0.8189145000651479,None,0,150,150,150,657.3166912000161,,,,,,,658.8051173000131,658.3050325999502,658.3115773000754,658.3115773000754,658.7984438000713,659.8756540000904,659.8756540000904,z,0.8189145000651479,None,658.8051173000131,658.8051173000131,659.8756540000904,,,,,,,,KH_en,001,2025-03-09_20h35.12.637,MainFlow,2024.2.4,144.97060701093253,2025-03-09 20h35.41.614887 +0700,
2,40,1,word/worden0401.png,image/True/img40.png,151,151,0,z,0.6428091998677701,None,0,151,151,151,660.702016999945,,,,,,,662.190469800029,661.6911134000402,661.6960777000058,661.6960777000058,662.1838839000557,663.315749200061,663.315749200061,z,0.6428091998677701,None,662.190469800029,662.190469800029,663.315749200061,,,,,,,,KH_en,001,2025-03-09_20h35.12.637,MainFlow,2024.2.4,144.97060701093253,2025-03-09 20h35.41.614887 +0700,
2,54,1,word/worden0541.png,image/True/img54.png,152,152,0,z,0.542761999880895,None,0,152,152,152,663.9691814000253,,,,,,,665.4576018999796,664.9566480000503,664.9640341999475,664.9640341999475,665.450890300097,666.5768035000656,666.5768035000656,z,0.542761999880895,None,665.4576018999796,665.4576018999796,666.5768035000656,,,,,,,,KH_en,001,2025-03-09_20h35.12.637,MainFlow,2024.2.4,144.97060701093253,2025-03-09 20h35.41.614887 +0700,
2,44,0,word/worden0441.png,image/False/imgf44.png,153,153,0,x,0.8117425998207182,None,0,153,153,153,667.1329250999261,,,,,,,668.6204768000171,668.1205875999294,668.1267886001151,668.1267886001151,668.6137810999062,669.7318905000575,669.7318905000575,x,0.8117425998207182,None,668.6204768000171,668.6204768000171,669.7318905000575,,,,,,,,KH_en,001,2025-03-09_20h35.12.637,MainFlow,2024.2.4,144.97060701093253,2025-03-09 20h35.41.614887 +0700,
2,79,1,word/worden0791.png,image/True/img79.png,154,154,0,z,0.765841499902308,None,0,154,154,154,670.5521517000161,,,,,,,672.0405814999249,671.5404149999376,671.5470141000114,671.5470141000114,672.0338898000773,673.1457352000289,673.1457352000289,z,0.765841499902308,None,672.0405814999249,672.0405814999249,673.1457352000289,,,,,,,,KH_en,001,2025-03-09_20h35.12.637,MainFlow,2024.2.4,144.97060701093253,2025-03-09 20h35.41.614887 +0700,
2,95,1,word/worden0951.png,image/True/img95.png,155,155,0,z,2.3323242999613285,None,0,155,155,155,673.9244150000159,,,,,,,675.4120287999976,674.9118512999266,674.9184290999547,674.9184290999547,675.4052291999105,676.5242324999999,676.5242324999999,z,2.3323242999613285,None,675.4120287999976,675.4120287999976,676.5242324999999,,,,,,,,KH_en,001,2025-03-09_20h35.12.637,MainFlow,2024.2.4,144.97060701093253,2025-03-09 20h35.41.614887 +0700,
2,37,1,word/worden0371.png,image/True/img37.png,156,156,0,z,5.0718715998809785,None,0,156,156,156,678.8668778000865,,,,,,,680.3544636999723,679.8543813000433,679.8609229999129,679.8609229999129,680.3477970999666,681.473679699935,681.473679699935,z,5.0718715998809785,None,680.3544636999723,680.3544636999723,681.473679699935,,,,,,,,KH_en,001,2025-03-09_20h35.12.637,MainFlow,2024.2.4,144.97060701093253,2025-03-09 20h35.41.614887 +0700,
2,70,1,word/worden0701.png,image/True/img70.png,157,157,0,z,1.5095752000343055,None,0,157,157,157,686.5549878999591,,,,,,,688.0427055000328,687.5427794000134,687.5492668999359,687.5492668999359,688.0360459999647,689.1410495000891,689.1410495000891,z,1.5095752000343055,None,688.0427055000328,688.0427055000328,689.1410495000891,,,,,,,,KH_en,001,2025-03-09_20h35.12.637,MainFlow,2024.2.4,144.97060701093253,2025-03-09 20h35.41.614887 +0700,
2,40,1,word/worden0401.png,image/True/img40.png,158,158,0,z,0.7803187998943031,None,0,158,158,158,690.6625620000996,,,,,,,692.1509885000996,691.6509765000083,691.657312199939,691.657312199939,692.1443024999462,693.27023870009,693.27023870009,z,0.7803187998943031,None,692.1509885000996,692.1509885000996,693.27023870009,,,,,,,,KH_en,001,2025-03-09_20h35.12.637,MainFlow,2024.2.4,144.97060701093253,2025-03-09 20h35.41.614887 +0700,
2,30,0,word/worden0301.png,image/False/imgf30.png,159,159,0,x,1.4739744998514652,None,0,159,159,159,694.0624665999785,,,,,,,695.5501860000659,695.0502520999871,695.0566517000552,695.0566517000552,695.5435170999262,696.6416370999068,696.6416370999068,x,1.4739744998514652,None,695.5501860000659,695.5501860000659,696.6416370999068,,,,,,,,KH_en,001,2025-03-09_20h35.12.637,MainFlow,2024.2.4,144.97060701093253,2025-03-09 20h35.41.614887 +0700,
2,88,1,word/worden0881.png,image/True/img88.png,160,160,0,z,3.242494599893689,None,0,160,160,160,698.1283714000601,,,,,,,699.6168114999309,699.1167699000798,699.1231311000884,699.1231311000884,699.6101245000027,700.7220906000584,700.7220906000584,z,3.242494599893689,None,699.6168114999309,699.6168114999309,700.7220906000584,,,,,,,,KH_en,001,2025-03-09_20h35.12.637,MainFlow,2024.2.4,144.97060701093253,2025-03-09 20h35.41.614887 +0700,
2,15,1,word/worden0151.png,image/True/img15.png,161,161,0,z,0.6534084999002516,None,0,161,161,161,703.975336200092,,,,,,,705.462918800069,704.9627529000863,704.9693944000173,704.9693944000173,705.4562580999918,706.5751624000259,706.5751624000259,z,0.6534084999002516,None,705.462918800069,705.462918800069,706.5751624000259,,,,,,,,KH_en,001,2025-03-09_20h35.12.637,MainFlow,2024.2.4,144.97060701093253,2025-03-09 20h35.41.614887 +0700,
2,54,1,word/worden0541.png,image/True/img54.png,162,162,0,z,0.7291424998547882,None,0,162,162,162,707.2355313000735,,,,,,,708.7230462001171,708.2230911001097,708.229565900052,708.229565900052,708.716450799955,709.8354406999424,709.8354406999424,z,0.7291424998547882,None,708.7230462001171,708.7230462001171,709.8354406999424,,,,,,,,KH_en,001,2025-03-09_20h35.12.637,MainFlow,2024.2.4,144.97060701093253,2025-03-09 20h35.41.614887 +0700,
2,11,0,word/worden0111.png,image/False/imgf11.png,163,163,0,x,1.0575069000478834,None,0,163,163,163,710.5722141000442,,,,,,,712.0597818999086,711.5599221999291,711.5660947000142,711.5660947000142,712.0531156999059,713.1720573999919,713.1720573999919,x,1.0575069000478834,None,712.0597818999086,712.0597818999086,713.1720573999919,,,,,,,,KH_en,001,2025-03-09_20h35.12.637,MainFlow,2024.2.4,144.97060701093253,2025-03-09 20h35.41.614887 +0700,
2,16,1,word/worden0161.png,image/True/img16.png,164,164,0,z,0.6682724999263883,None,0,164,164,164,714.2417208999395,,,,,,,715.730182700092,715.2301207000855,715.236592900008,715.236592900008,715.723455300089,716.8493099999614,716.8493099999614,z,0.6682724999263883,None,715.730182700092,715.730182700092,716.8493099999614,,,,,,,,KH_en,001,2025-03-09_20h35.12.637,MainFlow,2024.2.4,144.97060701093253,2025-03-09 20h35.41.614887 +0700,
2,1,1,word/worden0011.png,image/True/img01.png,165,165,0,z,0.8361667999997735,None,0,165,165,165,717.5305455999915,,,,,,,719.0181607000995,718.5181251999456,718.5245995000005,718.5245995000005,719.0114563999232,720.1303958999924,720.1303958999924,z,0.8361667999997735,None,719.0181607000995,719.0181607000995,720.1303958999924,,,,,,,,KH_en,001,2025-03-09_20h35.12.637,MainFlow,2024.2.4,144.97060701093253,2025-03-09 20h35.41.614887 +0700,
2,22,0,word/worden0221.png,image/False/imgf22.png,166,166,0,x,0.7313280999660492,None,0,166,166,166,720.9776389999315,,,,,,,722.4659549999051,721.9657366001047,721.9724920000881,721.9724920000881,722.4593714000657,723.5713273999281,723.5713273999281,x,0.7313280999660492,None,722.4659549999051,722.4659549999051,723.5713273999281,,,,,,,,KH_en,001,2025-03-09_20h35.12.637,MainFlow,2024.2.4,144.97060701093253,2025-03-09 20h35.41.614887 +0700,
2,63,1,word/worden0631.png,image/True/img63.png,167,167,0,z,0.6765938000753522,None,0,167,167,167,724.3151324999053,,,,,,,725.8027202999219,725.3024979000911,725.3090540999547,725.3090540999547,725.7960630999878,726.9149748999625,726.9149748999625,z,0.6765938000753522,None,725.8027202999219,725.8027202999219,726.9149748999625,,,,,,,,KH_en,001,2025-03-09_20h35.12.637,MainFlow,2024.2.4,144.97060701093253,2025-03-09 20h35.41.614887 +0700,
2,87,1,word/worden0871.png,image/True/img87.png,168,168,0,z,0.5576269000303,None,0,168,168,168,727.6023156999145,,,,,,,729.090727499919,728.5905961000826,728.5971794999205,728.5971794999205,729.084062699927,730.2099345999304,730.2099345999304,z,0.5576269000303,None,729.090727499919,729.090727499919,730.2099345999304,,,,,,,,KH_en,001,2025-03-09_20h35.12.637,MainFlow,2024.2.4,144.97060701093253,2025-03-09 20h35.41.614887 +0700,
2,57,0,word/worden0571.png,image/False/imgf57.png,169,169,0,x,0.819845899939537,None,0,169,169,169,730.7799295999575,,,,,,,732.2675415999256,731.7676417999901,731.7738628999796,731.7738628999796,732.2608787000645,733.372795100091,733.372795100091,x,0.819845899939537,None,732.2675415999256,732.2675415999256,733.372795100091,,,,,,,,KH_en,001,2025-03-09_20h35.12.637,MainFlow,2024.2.4,144.97060701093253,2025-03-09 20h35.41.614887 +0700,
2,94,0,word/worden0941.png,image/False/imgf94.png,170,170,0,x,1.0507739000022411,None,0,170,170,170,734.2061576000415,,,,,,,735.6945780001115,735.1947091999464,735.2008871999569,735.2008871999569,735.6878984000068,736.8137890999205,736.8137890999205,x,1.0507739000022411,None,735.6945780001115,735.6945780001115,736.8137890999205,,,,,,,,KH_en,001,2025-03-09_20h35.12.637,MainFlow,2024.2.4,144.97060701093253,2025-03-09 20h35.41.614887 +0700,
2,93,0,word/worden0931.png,image/False/imgf93.png,171,171,0,x,2.584266899852082,None,0,171,171,171,737.8773175999522,,,,,,,739.3649003000464,738.8647060999647,738.8713771000039,738.8713771000039,739.3582393999677,740.4493823999073,740.4493823999073,x,2.584266899852082,None,739.3649003000464,739.3649003000464,740.4493823999073,,,,,,,,KH_en,001,2025-03-09_20h35.12.637,MainFlow,2024.2.4,144.97060701093253,2025-03-09 20h35.41.614887 +0700,
2,61,1,word/worden0611.png,image/True/img61.png,172,172,0,z,0.8302291999571025,None,0,172,172,172,743.0421996000223,,,,,,,744.5298019999173,744.0301532999147,744.0358311999589,744.0358311999589,744.5232174000703,745.6273366999812,745.6273366999812,z,0.8302291999571025,None,744.5298019999173,744.5298019999173,745.6273366999812,,,,,,,,KH_en,001,2025-03-09_20h35.12.637,MainFlow,2024.2.4,144.97060701093253,2025-03-09 20h35.41.614887 +0700,
2,28,1,word/worden0281.png,image/True/img28.png,173,173,0,z,2.501559600001201,None,0,173,173,173,746.4684309998993,,,,,,,747.9568429999053,747.4570267000236,747.4632188999094,747.4632188999094,747.9502107999288,749.0690057999454,749.0690057999454,z,2.501559600001201,None,747.9568429999053,747.9568429999053,749.0690057999454,,,,,,,,KH_en,001,2025-03-09_20h35.12.637,MainFlow,2024.2.4,144.97060701093253,2025-03-09 20h35.41.614887 +0700,
2,46,1,word/worden0461.png,image/True/img46.png,174,174,0,z,1.7533185000065714,None,0,174,174,174,751.5785602000542,,,,,,,753.0661442000419,752.5661750999279,752.5724500000942,752.5724500000942,753.0594379000831,754.1782494999934,754.1782494999934,z,1.7533185000065714,None,753.0661442000419,753.0661442000419,754.1782494999934,,,,,,,,KH_en,001,2025-03-09_20h35.12.637,MainFlow,2024.2.4,144.97060701093253,2025-03-09 20h35.41.614887 +0700,
2,22,1,word/worden0221.png,image/True/img22.png,175,175,0,z,1.021144000114873,None,0,175,175,175,755.9439846999012,,,,,,,757.4316263000946,756.9313727999106,756.9381222000811,756.9381222000811,757.4249209999107,758.5506891999394,758.5506891999394,z,1.021144000114873,None,757.4316263000946,757.4316263000946,758.5506891999394,,,,,,,,KH_en,001,2025-03-09_20h35.12.637,MainFlow,2024.2.4,144.97060701093253,2025-03-09 20h35.41.614887 +0700,
2,93,1,word/worden0931.png,image/True/img93.png,176,176,0,z,2.0219891001470387,None,0,176,176,176,759.578824999975,,,,,,,761.067207199987,760.5669925999828,760.5735180000775,760.5735180000775,761.0604197001085,762.1585834000725,762.1585834000725,z,2.0219891001470387,None,761.067207199987,761.067207199987,762.1585834000725,,,,,,,,KH_en,001,2025-03-09_20h35.12.637,MainFlow,2024.2.4,144.97060701093253,2025-03-09 20h35.41.614887 +0700,
2,95,1,word/worden0951.png,image/True/img95.png,177,177,0,z,0.7844749998766929,None,0,177,177,177,764.1884222000372,,,,,,,765.6760080999229,765.1758260000497,765.1824298000429,765.1824298000429,765.6693160000723,766.7880873999093,766.7880873999093,z,0.7844749998766929,None,765.6760080999229,765.6760080999229,766.7880873999093,,,,,,,,KH_en,001,2025-03-09_20h35.12.637,MainFlow,2024.2.4,144.97060701093253,2025-03-09 20h35.41.614887 +0700,
2,17,0,word/worden0171.png,image/False/imgf17.png,178,178,0,z,0.8000638999510556,None,0,178,178,178,767.5806285000872,,,,,,,769.0683057999704,768.5681884000078,768.5746870001312,768.5746870001312,769.0615582000464,770.173529899912,770.173529899912,z,0.8000638999510556,None,769.0683057999704,769.0683057999704,770.173529899912,,,,,,,,KH_en,001,2025-03-09_20h35.12.637,MainFlow,2024.2.4,144.97060701093253,2025-03-09 20h35.41.614887 +0700,
2,26,1,word/worden0261.png,image/True/img26.png,179,179,0,z,0.8428764999844134,None,0,179,179,179,770.9860398999881,,,,,,,772.4744406000245,771.9742630000692,771.980906000128,771.980906000128,772.4677750000264,773.5866870000027,773.5866870000027,z,0.8428764999844134,None,772.4744406000245,772.4744406000245,773.5866870000027,,,,,,,,KH_en,001,2025-03-09_20h35.12.637,MainFlow,2024.2.4,144.97060701093253,2025-03-09 20h35.41.614887 +0700,
2,27,1,word/worden0271.png,image/True/img27.png,180,180,0,z,1.0027442001737654,None,0,180,180,180,774.4408746000845,,,,,,,775.9292929000221,775.4290885999799,775.4358222000301,775.4358222000301,775.9226426999085,777.0198329000268,777.0198329000268,z,1.0027442001737654,None,775.9292929000221,775.9292929000221,777.0198329000268,,,,,,,,KH_en,001,2025-03-09_20h35.12.637,MainFlow,2024.2.4,144.97060701093253,2025-03-09 20h35.41.614887 +0700,
2,31,1,word/worden0311.png,image/True/img31.png,181,181,0,z,1.1360292001627386,None,0,181,181,181,778.0347416000441,,,,,,,779.523172599962,779.0231061000377,779.029625599971,779.029625599971,779.5164930999745,780.6145564001054,780.6145564001054,z,1.1360292001627386,None,779.523172599962,779.523172599962,780.6145564001054,,,,,,,,KH_en,001,2025-03-09_20h35.12.637,MainFlow,2024.2.4,144.97060701093253,2025-03-09 20h35.41.614887 +0700,
2,33,0,word/worden0331.png,image/False/imgf33.png,182,182,0,x,0.9241531998850405,None,0,182,182,182,781.760709800059,,,,,,,783.2492160999682,782.7499979999848,782.7547629000619,782.7547629000619,783.242486000061,784.3544342999812,784.3544342999812,x,0.9241531998850405,None,783.2492160999682,783.2492160999682,784.3544342999812,,,,,,,,KH_en,001,2025-03-09_20h35.12.637,MainFlow,2024.2.4,144.97060701093253,2025-03-09 20h35.41.614887 +0700,
2,59,1,word/worden0591.png,image/True/img59.png,183,183,0,z,0.7504960000514984,None,0,183,183,183,785.2920103999786,,,,,,,786.780299999984,786.2803271000739,786.2868755001109,786.2868755001109,786.7736575999297,787.8570731999353,787.8570731999353,z,0.7504960000514984,None,786.780299999984,786.780299999984,787.8570731999353,,,,,,,,KH_en,001,2025-03-09_20h35.12.637,MainFlow,2024.2.4,144.97060701093253,2025-03-09 20h35.41.614887 +0700,
2,8,1,word/worden0081.png,image/True/img08.png,184,184,0,z,0.7709190000314265,None,0,184,184,184,788.614823800046,,,,,,,790.1032277001068,789.6031812999863,789.6096687999088,789.6096687999088,790.0965247999411,791.1806854000315,791.1806854000315,z,0.7709190000314265,None,790.1032277001068,790.1032277001068,791.1806854000315,,,,,,,,KH_en,001,2025-03-09_20h35.12.637,MainFlow,2024.2.4,144.97060701093253,2025-03-09 20h35.41.614887 +0700,
2,63,0,word/worden0631.png,image/False/imgf63.png,185,185,0,x,1.0884186001494527,None,0,185,185,185,791.9592319999356,,,,,,,793.44681819994,792.9466764000244,792.9532874999568,792.9532874999568,793.4401879999787,794.552149000112,794.552149000112,x,1.0884186001494527,None,793.44681819994,793.44681819994,794.552149000112,,,,,,,,KH_en,001,2025-03-09_20h35.12.637,MainFlow,2024.2.4,144.97060701093253,2025-03-09 20h35.41.614887 +0700,
2,30,0,word/worden0301.png,image/False/imgf30.png,186,186,0,x,0.9152061999775469,None,0,186,186,186,795.6496045000385,,,,,,,797.1380127000157,796.6386476999614,796.6436489000916,796.6436489000916,797.131177400006,798.2294228000101,798.2294228000101,x,0.9152061999775469,None,797.1380127000157,797.1380127000157,798.2294228000101,,,,,,,,KH_en,001,2025-03-09_20h35.12.637,MainFlow,2024.2.4,144.97060701093253,2025-03-09 20h35.41.614887 +0700,
2,15,0,word/worden0151.png,image/False/imgf15.png,187,187,0,x,0.9088028001133353,None,0,187,187,187,799.1531181000173,,,,,,,800.6415510000661,800.1413179999217,800.1480056999717,800.1480056999717,800.6348828999326,801.7327616999391,801.7327616999391,x,0.9088028001133353,None,800.6415510000661,800.6415510000661,801.7327616999391,,,,,,,,KH_en,001,2025-03-09_20h35.12.637,MainFlow,2024.2.4,144.97060701093253,2025-03-09 20h35.41.614887 +0700,
2,71,0,word/worden0711.png,image/False/imgf71.png,188,188,0,x,0.6804257999174297,None,0,188,188,188,802.6497212999966,,,,,,,804.1381061000284,803.6387070000637,803.6437216000631,803.6437216000631,804.1313088999595,805.2571688001044,805.2571688001044,x,0.6804257999174297,None,804.1381061000284,804.1381061000284,805.2571688001044,,,,,,,,KH_en,001,2025-03-09_20h35.12.637,MainFlow,2024.2.4,144.97060701093253,2025-03-09 20h35.41.614887 +0700,
2,10,0,word/worden0101.png,image/False/imgf10.png,189,189,0,x,2.3351846002042294,None,0,189,189,189,805.9450507999863,,,,,,,807.4330213000067,806.9332391999196,806.9393545999192,806.9393545999192,807.4263538999949,808.5314019001089,808.5314019001089,x,2.3351846002042294,None,807.4330213000067,807.4330213000067,808.5314019001089,,,,,,,,KH_en,001,2025-03-09_20h35.12.637,MainFlow,2024.2.4,144.97060701093253,2025-03-09 20h35.41.614887 +0700,
2,54,0,word/worden0541.png,image/False/imgf54.png,190,190,0,x,0.7820447999984026,None,0,190,190,190,810.8739815000445,,,,,,,812.3616140000522,811.8613768001087,811.8680368000641,811.8680368000641,812.3549123001285,813.4525200999342,813.4525200999342,x,0.7820447999984026,None,812.3616140000522,812.3616140000522,813.4525200999342,,,,,,,,KH_en,001,2025-03-09_20h35.12.637,MainFlow,2024.2.4,144.97060701093253,2025-03-09 20h35.41.614887 +0700,
2,60,0,word/worden0601.png,image/False/imgf60.png,191,191,0,x,1.0132409001234919,None,0,191,191,191,814.2446123999543,,,,,,,815.7330245999619,815.2330801000353,815.2395045000594,815.2395045000594,815.7263595000841,816.838315699948,816.838315699948,x,1.0132409001234919,None,815.7330245999619,815.7330245999619,816.838315699948,,,,,,,,KH_en,001,2025-03-09_20h35.12.637,MainFlow,2024.2.4,144.97060701093253,2025-03-09 20h35.41.614887 +0700,
2,16,0,word/worden0161.png,image/False/imgf16.png,192,192,0,x,0.7196816001087427,None,0,192,192,192,817.859326899983,,,,,,,819.3477650000714,818.8476519000251,818.8542889999226,818.8542889999226,819.3410543999635,820.4598876999225,820.4598876999225,x,0.7196816001087427,None,819.3477650000714,819.3477650000714,820.4598876999225,,,,,,,,KH_en,001,2025-03-09_20h35.12.637,MainFlow,2024.2.4,144.97060701093253,2025-03-09 20h35.41.614887 +0700,
2,50,1,word/worden0501.png,image/True/img50.png,193,193,0,z,4.396749600069597,None,0,193,193,193,821.1898256000131,,,,,,,822.6774808000773,822.177435599966,822.1839630999602,822.1839630999602,822.6709799000528,823.7758067001123,823.7758067001123,z,4.396749600069597,None,822.6774808000773,822.6774808000773,823.7758067001123,,,,,,,,KH_en,001,2025-03-09_20h35.12.637,MainFlow,2024.2.4,144.97060701093253,2025-03-09 20h35.41.614887 +0700,
2,63,1,word/worden0631.png,image/True/img63.png,194,194,0,z,0.6857559001073241,None,0,194,194,194,828.1830041001085,,,,,,,829.670673100045,829.1703254999593,829.1770428000018,829.1770428000018,829.6641951000784,830.7758694000077,830.7758694000077,z,0.6857559001073241,None,829.670673100045,829.670673100045,830.7758694000077,,,,,,,,KH_en,001,2025-03-09_20h35.12.637,MainFlow,2024.2.4,144.97060701093253,2025-03-09 20h35.41.614887 +0700,
2,24,0,word/worden0241.png,image/False/imgf24.png,195,195,0,x,3.211652000201866,None,0,195,195,195,831.4709791000932,,,,,,,832.9584878000896,832.458589799935,832.4649088999722,832.4649088999722,832.9518279999029,834.0499637001194,834.0499637001194,x,3.211652000201866,None,832.9584878000896,832.9584878000896,834.0499637001194,,,,,,,,KH_en,001,2025-03-09_20h35.12.637,MainFlow,2024.2.4,144.97060701093253,2025-03-09 20h35.41.614887 +0700,
2,89,0,word/worden0891.png,image/False/imgf89.png,196,196,0,x,0.9671181000303477,None,0,196,196,196,837.2684681999963,,,,,,,838.7560668000951,838.2559348999057,838.2625450999476,838.2625450999476,838.7493879001122,839.8474566999357,839.8474566999357,x,0.9671181000303477,None,838.7560668000951,838.7560668000951,839.8474566999357,,,,,,,,KH_en,001,2025-03-09_20h35.12.637,MainFlow,2024.2.4,144.97060701093253,2025-03-09 20h35.41.614887 +0700,
2,6,0,word/worden0061.png,image/False/imgf06.png,197,197,0,x,1.2549793000798672,None,0,197,197,197,840.8267628999893,,,,,,,842.3152064001188,841.8155018000398,841.8215409000404,841.8215409000404,842.3085099000018,843.3996228999458,843.3996228999458,x,1.2549793000798672,None,842.3152064001188,842.3152064001188,843.3996228999458,,,,,,,,KH_en,001,2025-03-09_20h35.12.637,MainFlow,2024.2.4,144.97060701093253,2025-03-09 20h35.41.614887 +0700,
2,41,0,word/worden0411.png,image/False/imgf41.png,198,198,0,x,0.9527004999108613,None,0,198,198,198,844.6647662001196,,,,,,,846.152369499905,845.652361500077,845.6584165999666,845.6584165999666,846.1457231999375,847.2228882999625,847.2228882999625,x,0.9527004999108613,None,846.152369499905,846.152369499905,847.2228882999625,,,,,,,,KH_en,001,2025-03-09_20h35.12.637,MainFlow,2024.2.4,144.97060701093253,2025-03-09 20h35.41.614887 +0700,
2,79,0,word/worden0791.png,image/False/imgf79.png,199,199,0,x,1.4036150998435915,None,0,199,199,199,848.18830420007,,,,,,,849.676716200076,849.1766836000606,849.1830361001194,849.1830361001194,849.670094900066,850.7889493000694,850.7889493000694,x,1.4036150998435915,None,849.676716200076,849.676716200076,850.7889493000694,,,,,,,,KH_en,001,2025-03-09_20h35.12.637,MainFlow,2024.2.4,144.97060701093253,2025-03-09 20h35.41.614887 +0700,
2,70,1,word/worden0701.png,image/True/img70.png,200,200,0,z,0.7836037001106888,None,0,200,200,200,852.2000724999234,,,,,,,853.7015780999791,853.1964396999683,853.2080409000628,853.2080409000628,853.6946819999721,854.7929597999901,854.7929597999901,z,0.7836037001106888,None,,,,,,,,,,,KH_en,001,2025-03-09_20h35.12.637,MainFlow,2024.2.4,144.97060701093253,2025-03-09 20h35.41.614887 +0700,
2,31,1,word/worden0311.png,image/True/img31.png,201,201,0,z,0.7730086999945343,None,0,201,201,201,855.5852588999551,,,,,,,857.0729954999406,856.5728917000815,856.5794520000927,856.5794520000927,857.0663525001146,858.163555999985,858.163555999985,z,0.7730086999945343,None,857.0729954999406,857.0729954999406,858.163555999985,,,,,,,,KH_en,001,2025-03-09_20h35.12.637,MainFlow,2024.2.4,144.97060701093253,2025-03-09 20h35.41.614887 +0700,
2,9,1,word/worden0091.png,image/True/img09.png,202,202,0,z,1.9173246000427753,None,0,202,202,202,858.9499216999393,,,,,,,860.437500400003,859.9372558000032,859.943952200003,859.943952200003,860.4308980000205,861.5002333000302,861.5002333000302,z,1.9173246000427753,None,860.437500400003,860.437500400003,861.5002333000302,,,,,,,,KH_en,001,2025-03-09_20h35.12.637,MainFlow,2024.2.4,144.97060701093253,2025-03-09 20h35.41.614887 +0700,
2,27,1,word/worden0271.png,image/True/img27.png,203,203,0,z,0.651936799986288,None,0,203,203,203,863.4266109999735,,,,,,,864.9142070999369,864.4142954999115,864.4206811999902,864.4206811999902,864.9075448999647,865.9986342000775,865.9986342000775,z,0.651936799986288,None,864.9142070999369,864.9142070999369,865.9986342000775,,,,,,,,KH_en,001,2025-03-09_20h35.12.637,MainFlow,2024.2.4,144.97060701093253,2025-03-09 20h35.41.614887 +0700,
2,75,0,word/worden0751.png,image/False/imgf75.png,204,204,0,x,0.7814160999841988,None,0,204,204,204,866.6582005999517,,,,,,,868.1466040001251,867.6467510000803,867.6530271000229,867.6530271000229,868.1398209000472,869.2371402999852,869.2371402999852,x,0.7814160999841988,None,868.1466040001251,868.1466040001251,869.2371402999852,,,,,,,,KH_en,001,2025-03-09_20h35.12.637,MainFlow,2024.2.4,144.97060701093253,2025-03-09 20h35.41.614887 +0700,
2,87,0,word/worden0871.png,image/False/imgf87.png,205,205,0,x,0.8341856999322772,None,0,205,205,205,870.0304175999481,,,,,,,871.5180226999801,871.0178590000141,871.0244877999648,871.0244877999648,871.5113302001264,872.6163860999513,872.6163860999513,x,0.8341856999322772,None,871.5180226999801,871.5180226999801,872.6163860999513,,,,,,,,KH_en,001,2025-03-09_20h35.12.637,MainFlow,2024.2.4,144.97060701093253,2025-03-09 20h35.41.614887 +0700,
2,8,0,word/worden0081.png,image/False/imgf08.png,206,206,0,x,0.8001526999287307,None,0,206,206,206,873.4635944999754,,,,,,,874.9518796999473,874.4519291000906,874.4584858999588,874.4584858999588,874.9453485000413,876.0434493001085,876.0434493001085,x,0.8001526999287307,None,874.9518796999473,874.9518796999473,876.0434493001085,,,,,,,,KH_en,001,2025-03-09_20h35.12.637,MainFlow,2024.2.4,144.97060701093253,2025-03-09 20h35.41.614887 +0700,
2,24,1,word/worden0241.png,image/True/img24.png,207,207,0,z,0.8207320999354124,None,0,207,207,207,876.8558716000989,,,,,,,878.344295399962,877.8442993999925,877.8506183999125,877.8506183999125,878.3374860999174,879.4148319999222,879.4148319999222,z,0.8207320999354124,None,878.344295399962,878.344295399962,879.4148319999222,,,,,,,,KH_en,001,2025-03-09_20h35.12.637,MainFlow,2024.2.4,144.97060701093253,2025-03-09 20h35.41.614887 +0700,
2,14,1,word/worden0141.png,image/True/img14.png,208,208,0,z,0.6176460001152009,None,0,208,208,208,880.2481615999714,,,,,,,881.7365850000642,881.2366748999339,881.243003499927,881.243003499927,881.7299401001073,882.8349248000886,882.8349248000886,z,0.6176460001152009,None,881.7365850000642,881.7365850000642,882.8349248000886,,,,,,,,KH_en,001,2025-03-09_20h35.12.637,MainFlow,2024.2.4,144.97060701093253,2025-03-09 20h35.41.614887 +0700,
2,87,1,word/worden0871.png,image/True/img87.png,209,209,0,z,0.5932750999927521,None,0,209,209,209,883.4605636999477,,,,,,,884.9481665999629,884.4486670000479,884.4537802000996,884.4537802000996,884.941479699919,886.0673432999756,886.0673432999756,z,0.5932750999927521,None,884.9481665999629,884.9481665999629,886.0673432999756,,,,,,,,KH_en,001,2025-03-09_20h35.12.637,MainFlow,2024.2.4,144.97060701093253,2025-03-09 20h35.41.614887 +0700,
2,42,0,word/worden0421.png,image/False/imgf42.png,210,210,0,x,0.6696337000466883,None,0,210,210,210,886.6720741000026,,,,,,,888.1596852000803,887.6602443000302,887.6653130999766,887.6653130999766,888.1529864000622,889.2719274999108,889.2719274999108,x,0.6696337000466883,None,888.1596852000803,888.1596852000803,889.2719274999108,,,,,,,,KH_en,001,2025-03-09_20h35.12.637,MainFlow,2024.2.4,144.97060701093253,2025-03-09 20h35.41.614887 +0700,
2,48,0,word/worden0481.png,image/False/imgf48.png,211,211,0,x,0.7816407000645995,None,0,211,211,211,889.9531018999405,,,,,,,891.4406987000257,890.9405465999153,890.9471563000698,890.9471563000698,891.4340337999165,892.5599259999581,892.5599259999581,x,0.7816407000645995,None,891.4406987000257,891.4406987000257,892.5599259999581,,,,,,,,KH_en,001,2025-03-09_20h35.12.637,MainFlow,2024.2.4,144.97060701093253,2025-03-09 20h35.41.614887 +0700,
2,56,0,word/worden0561.png,image/False/imgf56.png,212,212,0,x,0.9991992998402566,None,0,212,212,212,893.3515491001308,,,,,,,894.8398209000006,894.3400067999028,894.3462982000783,894.3462982000783,894.8332676000427,895.951378100086,895.951378100086,x,0.9991992998402566,None,894.8398209000006,894.8398209000006,895.951378100086,,,,,,,,KH_en,001,2025-03-09_20h35.12.637,MainFlow,2024.2.4,144.97060701093253,2025-03-09 20h35.41.614887 +0700,
2,18,0,word/worden0181.png,image/False/imgf18.png,213,213,0,x,2.2844758999999613,None,0,213,213,213,896.9593301999848,,,,,,,898.4477464000229,897.947678900091,897.954164700117,897.954164700117,898.4410795001313,899.5461061999667,899.5461061999667,x,2.2844758999999613,None,898.4477464000229,898.4477464000229,899.5461061999667,,,,,,,,KH_en,001,2025-03-09_20h35.12.637,MainFlow,2024.2.4,144.97060701093253,2025-03-09 20h35.41.614887 +0700,
2,18,0,word/worden0181.png,image/False/imgf18.png,214,214,0,x,0.684506299905479,None,0,214,214,214,901.8400377000216,,,,,,,903.3276581000537,902.8276974000037,902.8339849999174,902.8339849999174,903.3208389999345,904.4190939001273,904.4190939001273,x,0.684506299905479,None,903.3276581000537,903.3276581000537,904.4190939001273,,,,,,,,KH_en,001,2025-03-09_20h35.12.637,MainFlow,2024.2.4,144.97060701093253,2025-03-09 20h35.41.614887 +0700,
2,9,0,word/worden0091.png,image/False/imgf09.png,215,215,0,x,1.6634035999886692,None,0,215,215,215,905.1141967999283,,,,,,,906.6017344000284,906.1015693999361,906.1082119001076,906.1082119001076,906.5950895999558,907.6721542000305,907.6721542000305,x,1.6634035999886692,None,906.6017344000284,906.6017344000284,907.6721542000305,,,,,,,,KH_en,001,2025-03-09_20h35.12.637,MainFlow,2024.2.4,144.97060701093253,2025-03-09 20h35.41.614887 +0700,
2,55,0,word/worden0551.png,image/False/imgf55.png,216,216,0,x,2.0188661001157016,None,0,216,216,216,909.3475741001312,,,,,,,910.8350518001243,910.3355092999991,910.341177900089,910.341177900089,910.8284734999761,911.9256963999942,911.9256963999942,x,2.0188661001157016,None,910.8350518001243,910.8350518001243,911.9256963999942,,,,,,,,KH_en,001,2025-03-09_20h35.12.637,MainFlow,2024.2.4,144.97060701093253,2025-03-09 20h35.41.614887 +0700,
2,17,0,word/worden0171.png,image/False/imgf17.png,217,217,0,z,3.700357000110671,None,0,217,217,217,913.956327999942,,,,,,,915.4439342000987,914.9438930000179,914.9502620999701,914.9502620999701,915.4372521999758,916.5492088000756,916.5492088000756,z,3.700357000110671,None,915.4439342000987,915.4439342000987,916.5492088000756,,,,,,,,KH_en,001,2025-03-09_20h35.12.637,MainFlow,2024.2.4,144.97060701093253,2025-03-09 20h35.41.614887 +0700,
2,50,1,word/worden0501.png,image/True/img50.png,218,218,0,z,0.8674943998921663,None,0,218,218,218,920.2612688001245,,,,,,,921.755853000097,921.2506699000951,921.2623676999938,921.2623676999938,921.749358800007,922.8540674999822,922.8540674999822,z,0.8674943998921663,None,921.755853000097,921.755853000097,922.8540674999822,,,,,,,,KH_en,001,2025-03-09_20h35.12.637,MainFlow,2024.2.4,144.97060701093253,2025-03-09 20h35.41.614887 +0700,
2,20,0,word/worden0201.png,image/False/imgf20.png,219,219,0,x,0.9537543000187725,None,0,219,219,219,923.7292027999647,,,,,,,925.2176133000758,924.7178146000952,924.7239308999851,924.7239308999851,925.2109386001248,926.3368083999958,926.3368083999958,x,0.9537543000187725,None,925.2176133000758,925.2176133000758,926.3368083999958,,,,,,,,KH_en,001,2025-03-09_20h35.12.637,MainFlow,2024.2.4,144.97060701093253,2025-03-09 20h35.41.614887 +0700,
2,36,0,word/worden0361.png,image/False/imgf36.png,220,220,0,z,0.5706446000840515,None,0,220,220,220,927.3022050999571,,,,,,,928.790639200015,928.2906021000817,928.296952500008,928.296952500008,928.7839530000929,929.895924200071,929.895924200071,z,0.5706446000840515,None,928.790639200015,928.790639200015,929.895924200071,,,,,,,,KH_en,001,2025-03-09_20h35.12.637,MainFlow,2024.2.4,144.97060701093253,2025-03-09 20h35.41.614887 +0700,
2,7,0,word/worden0071.png,image/False/imgf07.png,221,221,0,x,1.5769158999901265,None,0,221,221,221,930.4798207001295,,,,,,,931.9674023000989,931.4674341999926,931.4737436999567,931.4737436999567,931.9607579999138,933.0586636001244,933.0586636001244,x,1.5769158999901265,None,931.9674023000989,931.9674023000989,933.0586636001244,,,,,,,,KH_en,001,2025-03-09_20h35.12.637,MainFlow,2024.2.4,144.97060701093253,2025-03-09 20h35.41.614887 +0700,
2,7,1,word/worden0071.png,image/True/img07.png,222,222,0,z,0.7590173000935465,None,0,222,222,222,934.6437170999125,,,,,,,936.1313165999018,935.631345000118,935.6378107999917,935.6378107999917,936.1246561000589,937.2365931000095,937.2365931000095,z,0.7590173000935465,None,936.1313165999018,936.1313165999018,937.2365931000095,,,,,,,,KH_en,001,2025-03-09_20h35.12.637,MainFlow,2024.2.4,144.97060701093253,2025-03-09 20h35.41.614887 +0700,
2,70,0,word/worden0701.png,image/False/imgf70.png,223,223,0,z,1.8014333001337945,None,0,223,223,223,938.0081394000445,,,,,,,939.4957558999304,938.9957441000734,939.0022627001163,939.0022627001163,939.4890763000585,940.5871415000875,940.5871415000875,z,1.8014333001337945,None,939.4957558999304,939.4957558999304,940.5871415000875,,,,,,,,KH_en,001,2025-03-09_20h35.12.637,MainFlow,2024.2.4,144.97060701093253,2025-03-09 20h35.41.614887 +0700,
2,68,0,word/worden0681.png,image/False/imgf68.png,224,224,0,x,2.0468704998493195,None,0,224,224,224,942.4014727999456,,,,,,,943.8890611999668,943.3898007001262,943.3947286999319,943.3947286999319,943.882239199942,944.965712999925,944.965712999925,x,2.0468704998493195,None,943.8890611999668,943.8890611999668,944.965712999925,,,,,,,,KH_en,001,2025-03-09_20h35.12.637,MainFlow,2024.2.4,144.97060701093253,2025-03-09 20h35.41.614887 +0700,
