lang,wordid,truestate,worddir,imgdir,thisN,thisTrialN,thisRepN,key_resp.keys,key_resp.rt,key_resp.duration,trials.thisRepN,trials.thisTrialN,trials.thisN,trials.thisIndex,thisRow.t,notes,tutorial.started,tutorial.stopped,key_instruct.keys,key_instruct.rt,key_instruct.duration,plusblank.started,wordshow.started,image.started,plsuer.started,wordshow.stopped,imageword.started,key_resp.started,trials.key_resp.keys,trials.key_resp.rt,trials.key_resp.duration,image.stopped,plsuer.stopped,plusblank.stopped,ending.started,text_3.started,ending_key.started,ending.stopped,ending_key.keys,ending_key.rt,ending_key.duration,participant,session,date,expName,psychopyVersion,frameRate,expStart,
,,,,,,,,,,,,,,,,,0.008540299953892827,5.45431419997476,space,5.416603500023484,None,,,,,,,,,,,,,,,,,,,,,KH_th,001,2025-03-09_20h19.12.932,MainFlow,2024.2.4,143.66061617173077,2025-03-09 20h19.32.609770 +0700,
1,51,0,word/wordth0511.png,image/False/imgf51.png,0,0,0,x,1.3232029001228511,None,0,0,0,0,5.506992599926889,,,,,,,6.966786300064996,6.46929379994981,6.480084900045767,6.480084900045767,6.959873100044206,8.162594799883664,8.162594799883664,x,1.3232029001228511,None,,,,,,,,,,,KH_th,001,2025-03-09_20h19.12.932,MainFlow,2024.2.4,143.66061617173077,2025-03-09 20h19.32.609770 +0700,
1,66,1,word/wordth0661.png,image/True/img66.png,1,1,0,z,0.9899142999202013,None,0,1,1,1,9.49624520004727,,,,,,,10.991644599940628,10.487031500088051,10.498094500042498,10.498094500042498,10.98507530009374,12.096882999874651,12.096882999874651,z,0.9899142999202013,None,10.991644599940628,10.991644599940628,12.096882999874651,,,,,,,,KH_th,001,2025-03-09_20h19.12.932,MainFlow,2024.2.4,143.66061617173077,2025-03-09 20h19.32.609770 +0700,
1,60,1,word/wordth0601.png,image/True/img60.png,2,2,0,z,0.8830495001748204,None,0,2,2,2,13.097064099973068,,,,,,,14.592444200068712,14.088362799957395,14.09891470009461,14.09891470009461,14.585802800022066,15.68382090004161,15.68382090004161,z,0.8830495001748204,None,14.592444200068712,14.592444200068712,15.68382090004161,,,,,,,,KH_th,001,2025-03-09_20h19.12.932,MainFlow,2024.2.4,143.66061617173077,2025-03-09 20h19.32.609770 +0700,
1,46,0,word/wordth0461.png,image/False/imgf46.png,3,3,0,x,0.9726379001513124,None,0,3,3,3,16.57971159997396,,,,,,,18.075092599960044,17.569683599984273,17.5815574999433,17.5815574999433,18.068418599897996,19.194281900068745,19.194281900068745,x,0.9726379001513124,None,18.075092599960044,18.075092599960044,19.194281900068745,,,,,,,,KH_th,001,2025-03-09_20h19.12.932,MainFlow,2024.2.4,143.66061617173077,2025-03-09 20h19.32.609770 +0700,
1,24,1,word/wordth0241.png,image/True/img24.png,4,4,0,z,0.9083105998579413,None,0,4,4,4,20.18054179986939,,,,,,,21.668939199997112,21.170100399991497,21.174601099919528,21.174601099919528,21.662257299991325,22.739496399881318,22.739496399881318,z,0.9083105998579413,None,21.668939199997112,21.668939199997112,22.739496399881318,,,,,,,,KH_th,001,2025-03-09_20h19.12.932,MainFlow,2024.2.4,143.66061617173077,2025-03-09 20h19.32.609770 +0700,
1,68,1,word/wordth0681.png,image/True/img68.png,5,5,0,z,0.8976173000410199,None,0,5,5,5,23.656247899867594,,,,,,,25.144559300038964,24.645756700076163,24.650305399904028,24.650305399904028,25.137991999974474,26.215196300065145,26.215196300065145,z,0.8976173000410199,None,25.144559300038964,25.144559300038964,26.215196300065145,,,,,,,,KH_th,001,2025-03-09_20h19.12.932,MainFlow,2024.2.4,143.66061617173077,2025-03-09 20h19.32.609770 +0700,
1,22,0,word/wordth0221.png,image/False/imgf22.png,6,6,0,x,0.9542476001661271,None,0,6,6,6,27.125010499963537,,,,,,,28.61340929986909,28.114358499879017,28.119054100010544,28.119054100010544,28.606746499892324,29.718550099991262,29.718550099991262,x,0.9542476001661271,None,28.61340929986909,28.61340929986909,29.718550099991262,,,,,,,,KH_th,001,2025-03-09_20h19.12.932,MainFlow,2024.2.4,143.66061617173077,2025-03-09 20h19.32.609770 +0700,
1,36,1,word/wordth0361.png,image/True/img36.png,7,7,0,z,0.9679594000335783,None,0,7,7,7,30.68491719989106,,,,,,,32.172512100078166,31.673473600065336,31.678187399869785,31.678187399869785,32.16586639988236,33.25686029996723,33.25686029996723,z,0.9679594000335783,None,32.172512100078166,32.172512100078166,33.25686029996723,,,,,,,,KH_th,001,2025-03-09_20h19.12.932,MainFlow,2024.2.4,143.66061617173077,2025-03-09 20h19.32.609770 +0700,
1,68,0,word/wordth0681.png,image/False/imgf68.png,8,8,0,x,1.1596267998684198,None,0,8,8,8,34.23627800005488,,,,,,,35.7247148999013,35.22467690007761,35.23116629989818,35.23116629989818,35.71802949998528,36.802181399893016,36.802181399893016,x,1.1596267998684198,None,35.7247148999013,35.7247148999013,36.802181399893016,,,,,,,,KH_th,001,2025-03-09_20h19.12.932,MainFlow,2024.2.4,143.66061617173077,2025-03-09 20h19.32.609770 +0700,
1,16,1,word/wordth0161.png,image/True/img16.png,9,9,0,z,1.051049100002274,None,0,9,9,9,37.9691941998899,,,,,,,39.46456709993072,38.95989160006866,38.971027499996126,38.971027499996126,39.4578924998641,40.583746399963275,40.583746399963275,z,1.051049100002274,None,39.46456709993072,39.46456709993072,40.583746399963275,,,,,,,,KH_th,001,2025-03-09_20h19.12.932,MainFlow,2024.2.4,143.66061617173077,2025-03-09 20h19.32.609770 +0700,
1,94,1,word/wordth0941.png,image/True/img94.png,10,10,0,z,0.6335819999221712,None,0,10,10,10,41.64648070000112,,,,,,,43.141861899988726,42.637659299885854,42.64831499988213,42.64831499988213,43.13523830007762,44.2332198000513,44.2332198000513,z,0.6335819999221712,None,43.141861899988726,43.141861899988726,44.2332198000513,,,,,,,,KH_th,001,2025-03-09_20h19.12.932,MainFlow,2024.2.4,143.66061617173077,2025-03-09 20h19.32.609770 +0700,
1,95,0,word/wordth0951.png,image/False/imgf95.png,11,11,0,x,1.1891010000836104,None,0,11,11,11,44.879712000023574,,,,,,,46.37424989999272,45.8699419000186,45.88071840000339,45.88071840000339,46.36755009996705,47.47870089998469,47.47870089998469,x,1.1891010000836104,None,46.37424989999272,46.37424989999272,47.47870089998469,,,,,,,,KH_th,001,2025-03-09_20h19.12.932,MainFlow,2024.2.4,143.66061617173077,2025-03-09 20h19.32.609770 +0700,
1,30,0,word/wordth0301.png,image/False/imgf30.png,12,12,0,x,2.998842100147158,None,0,12,12,12,48.681301299948245,,,,,,,50.169728399952874,49.67106910003349,49.67541910009459,49.67541910009459,50.16302379989065,51.26101529994048,51.26101529994048,x,2.998842100147158,None,50.169728399952874,50.169728399952874,51.26101529994048,,,,,,,,KH_th,001,2025-03-09_20h19.12.932,MainFlow,2024.2.4,143.66061617173077,2025-03-09 20h19.32.609770 +0700,
1,20,1,word/wordth0201.png,image/True/img20.png,13,13,0,z,1.068811299977824,None,0,13,13,13,54.271042899927124,,,,,,,55.75866340007633,55.25998650002293,55.264316299930215,55.264316299930215,55.75195539998822,56.864007299998775,56.864007299998775,z,1.068811299977824,None,55.75866340007633,55.75866340007633,56.864007299998775,,,,,,,,KH_th,001,2025-03-09_20h19.12.932,MainFlow,2024.2.4,143.66061617173077,2025-03-09 20h19.32.609770 +0700,
1,42,0,word/wordth0421.png,image/False/imgf42.png,14,14,0,x,1.1835934000555426,None,0,14,14,14,57.940595499938354,,,,,,,59.42894409992732,58.930230600060895,58.934639799874276,58.934639799874276,59.422295399941504,60.54121519997716,60.54121519997716,x,1.1835934000555426,None,59.42894409992732,59.42894409992732,60.54121519997716,,,,,,,,KH_th,001,2025-03-09_20h19.12.932,MainFlow,2024.2.4,143.66061617173077,2025-03-09 20h19.32.609770 +0700,
1,31,1,word/wordth0311.png,image/True/img31.png,15,15,0,z,0.9941341001540422,None,0,15,15,15,61.736039999872446,,,,,,,63.22445410001092,62.725171600002795,62.73008390003815,62.73008390003815,63.217746699927375,64.31573710008524,64.31573710008524,z,0.9941341001540422,None,63.22445410001092,63.22445410001092,64.31573710008524,,,,,,,,KH_th,001,2025-03-09_20h19.12.932,MainFlow,2024.2.4,143.66061617173077,2025-03-09 20h19.32.609770 +0700,
1,55,1,word/wordth0551.png,image/True/img55.png,16,16,0,z,0.8422612999565899,None,0,16,16,16,65.32297439989634,,,,,,,66.8182238000445,66.31377530004829,66.32475839997642,66.32475839997642,66.81166679994203,67.92354870005511,67.92354870005511,z,0.8422612999565899,None,66.8182238000445,66.8182238000445,67.92354870005511,,,,,,,,KH_th,001,2025-03-09_20h19.12.932,MainFlow,2024.2.4,143.66061617173077,2025-03-09 20h19.32.609770 +0700,
1,36,1,word/wordth0361.png,image/True/img36.png,17,17,0,z,0.7361671000253409,None,0,17,17,17,68.77862889994867,,,,,,,70.26623250008561,69.76637309999205,69.77254649996758,69.77254649996758,70.25957720004953,71.35067999991588,71.35067999991588,z,0.7361671000253409,None,70.26623250008561,70.26623250008561,71.35067999991588,,,,,,,,KH_th,001,2025-03-09_20h19.12.932,MainFlow,2024.2.4,143.66061617173077,2025-03-09 20h19.32.609770 +0700,
1,9,1,word/wordth0091.png,image/True/img09.png,18,18,0,z,0.9621240000706166,None,0,18,18,18,72.09364679991268,,,,,,,73.58900619996712,73.08507709996775,73.09544549998827,73.09544549998827,73.58252510009333,74.6526836999692,74.6526836999692,z,0.9621240000706166,None,73.58900619996712,73.58900619996712,74.6526836999692,,,,,,,,KH_th,001,2025-03-09_20h19.12.932,MainFlow,2024.2.4,143.66061617173077,2025-03-09 20h19.32.609770 +0700,
1,64,1,word/wordth0641.png,image/True/img64.png,19,19,0,z,0.8341345998924226,None,0,19,19,19,75.62576560000889,,,,,,,77.12030830001459,76.61591719998978,76.62677660002373,76.62677660002373,77.11374860000797,78.19767370005138,78.19767370005138,z,0.8341345998924226,None,77.12030830001459,77.12030830001459,78.19767370005138,,,,,,,,KH_th,001,2025-03-09_20h19.12.932,MainFlow,2024.2.4,143.66061617173077,2025-03-09 20h19.32.609770 +0700,
1,95,1,word/wordth0951.png,image/True/img95.png,20,20,0,z,1.139180599944666,None,0,20,20,20,79.04503430007026,,,,,,,80.53345300001092,80.03358029993251,80.03977879998274,80.03977879998274,80.52678629988804,81.65263679996133,81.65263679996133,z,1.139180599944666,None,80.53345300001092,80.53345300001092,81.65263679996133,,,,,,,,KH_th,001,2025-03-09_20h19.12.932,MainFlow,2024.2.4,143.66061617173077,2025-03-09 20h19.32.609770 +0700,
1,41,1,word/wordth0411.png,image/True/img41.png,21,21,0,z,1.216467599850148,None,0,21,21,21,82.79949270002544,,,,,,,84.2871654999908,83.78814429999329,83.7928760999348,83.7928760999348,84.2805208999198,85.39235810004175,85.39235810004175,z,1.216467599850148,None,84.2871654999908,84.2871654999908,85.39235810004175,,,,,,,,KH_th,001,2025-03-09_20h19.12.932,MainFlow,2024.2.4,143.66061617173077,2025-03-09 20h19.32.609770 +0700,
1,8,1,word/wordth0081.png,image/True/img08.png,22,22,0,z,1.245692800031975,None,0,22,22,22,86.62207309994847,,,,,,,88.11048989999108,87.61107009998523,87.61612039990723,87.61612039990723,88.10380079993047,89.18713039997965,89.18713039997965,z,1.245692800031975,None,88.11048989999108,88.11048989999108,89.18713039997965,,,,,,,,KH_th,001,2025-03-09_20h19.12.932,MainFlow,2024.2.4,143.66061617173077,2025-03-09 20h19.32.609770 +0700,
1,60,1,word/wordth0601.png,image/True/img60.png,23,23,0,z,0.7686595998238772,None,0,23,23,23,90.44533340004273,,,,,,,91.93377220002003,91.43447449989617,91.43938799994066,91.43938799994066,91.92703990009613,93.02514990000054,93.02514990000054,z,0.7686595998238772,None,91.93377220002003,91.93377220002003,93.02514990000054,,,,,,,,KH_th,001,2025-03-09_20h19.12.932,MainFlow,2024.2.4,143.66061617173077,2025-03-09 20h19.32.609770 +0700,
1,48,0,word/wordth0481.png,image/False/imgf48.png,24,24,0,x,1.1342867000494152,None,0,24,24,24,93.80286190006882,,,,,,,95.29129479988478,94.79142050002702,94.79779800004326,94.79779800004326,95.2845987000037,96.40351089998148,96.40351089998148,x,1.1342867000494152,None,95.29129479988478,95.29129479988478,96.40351089998148,,,,,,,,KH_th,001,2025-03-09_20h19.12.932,MainFlow,2024.2.4,143.66061617173077,2025-03-09 20h19.32.609770 +0700,
1,41,0,word/wordth0411.png,image/False/imgf41.png,25,25,0,x,0.9830194001551718,None,0,25,25,25,97.54966769996099,,,,,,,99.03811020008288,98.53818319994025,98.54439550009556,98.54439550009556,99.03140089986846,100.10778389987536,100.10778389987536,x,0.9830194001551718,None,99.03811020008288,99.03811020008288,100.10778389987536,,,,,,,,KH_th,001,2025-03-09_20h19.12.932,MainFlow,2024.2.4,143.66061617173077,2025-03-09 20h19.32.609770 +0700,
1,54,0,word/wordth0541.png,image/False/imgf54.png,26,26,0,x,1.2912461999803782,None,0,26,26,26,101.10184039990418,,,,,,,102.59722279990092,102.09275289997458,102.10366860008799,102.10366860008799,102.59067049995065,103.69555659987964,103.69555659987964,x,1.2912461999803782,None,102.59722279990092,102.59722279990092,103.69555659987964,,,,,,,,KH_th,001,2025-03-09_20h19.12.932,MainFlow,2024.2.4,143.66061617173077,2025-03-09 20h19.32.609770 +0700,
1,54,1,word/wordth0541.png,image/True/img54.png,27,27,0,z,1.0333541999571025,None,0,27,27,27,104.99464759998955,,,,,,,106.4830282998737,105.98319870000705,105.98936249990948,105.98936249990948,106.47641219990328,107.59444390004501,107.59444390004501,z,1.0333541999571025,None,106.4830282998737,106.4830282998737,107.59444390004501,,,,,,,,KH_th,001,2025-03-09_20h19.12.932,MainFlow,2024.2.4,143.66061617173077,2025-03-09 20h19.32.609770 +0700,
1,63,0,word/wordth0631.png,image/False/imgf63.png,28,28,0,z,1.631004000082612,None,0,28,28,28,108.63714929996058,,,,,,,110.13257730007172,109.62782509997487,109.63896559993736,109.63896559993736,110.12584079988301,111.24477820005268,111.24477820005268,z,1.631004000082612,None,110.13257730007172,110.13257730007172,111.24477820005268,,,,,,,,KH_th,001,2025-03-09_20h19.12.932,MainFlow,2024.2.4,143.66061617173077,2025-03-09 20h19.32.609770 +0700,
1,37,0,word/wordth0371.png,image/False/imgf37.png,29,29,0,x,1.67465479997918,None,0,29,29,29,112.8852844000794,,,,,,,114.37982519995421,113.87556240009144,113.88630110002123,113.88630110002123,114.37314879987389,115.49818390002474,115.49818390002474,x,1.67465479997918,None,114.37982519995421,114.37982519995421,115.49818390002474,,,,,,,,KH_th,001,2025-03-09_20h19.12.932,MainFlow,2024.2.4,143.66061617173077,2025-03-09 20h19.32.609770 +0700,
1,54,0,word/wordth0541.png,image/False/imgf54.png,30,30,0,x,0.9085868999827653,None,0,30,30,30,117.181096999906,,,,,,,118.6688443000894,118.16936459997669,118.17490620003082,118.17490620003082,118.66216649999842,119.76021609990858,119.76021609990858,x,0.9085868999827653,None,118.6688443000894,118.6688443000894,119.76021609990858,,,,,,,,KH_th,001,2025-03-09_20h19.12.932,MainFlow,2024.2.4,143.66061617173077,2025-03-09 20h19.32.609770 +0700,
1,48,1,word/wordth0481.png,image/True/img48.png,31,31,0,z,0.3911443999968469,None,0,31,31,31,120.67698079999536,,,,,,,122.16540060006082,121.66549409995787,121.6717318999581,121.6717318999581,122.15879849996418,123.27068919991143,123.27068919991143,z,0.3911443999968469,None,122.16540060006082,122.16540060006082,123.27068919991143,,,,,,,,KH_th,001,2025-03-09_20h19.12.932,MainFlow,2024.2.4,143.66061617173077,2025-03-09 20h19.32.609770 +0700,
1,26,0,word/wordth0261.png,image/False/imgf26.png,32,32,0,x,1.012107799993828,None,0,32,32,32,123.67378549999557,,,,,,,125.16147819999605,124.66257319995202,124.6670868000947,124.6670868000947,125.15478389989585,126.27368970005773,126.27368970005773,x,1.012107799993828,None,125.16147819999605,125.16147819999605,126.27368970005773,,,,,,,,KH_th,001,2025-03-09_20h19.12.932,MainFlow,2024.2.4,143.66061617173077,2025-03-09 20h19.32.609770 +0700,
1,59,0,word/wordth0591.png,image/False/imgf59.png,33,33,0,x,2.2670305999927223,None,0,33,33,33,127.2947348000016,,,,,,,128.7901035998948,128.28600309998728,128.29653459996916,128.29653459996916,128.78327589994296,129.85979119990952,129.85979119990952,x,2.2670305999927223,None,128.7901035998948,128.7901035998948,129.85979119990952,,,,,,,,KH_th,001,2025-03-09_20h19.12.932,MainFlow,2024.2.4,143.66061617173077,2025-03-09 20h19.32.609770 +0700,
1,8,1,word/wordth0081.png,image/True/img08.png,34,34,0,z,1.0130401998758316,None,0,34,34,34,132.13371090008877,,,,,,,133.621334400028,133.12165930005722,133.12765750009567,133.12765750009567,133.61465230002068,134.7057590999175,134.7057590999175,z,1.0130401998758316,None,133.621334400028,133.621334400028,134.7057590999175,,,,,,,,KH_th,001,2025-03-09_20h19.12.932,MainFlow,2024.2.4,143.66061617173077,2025-03-09 20h19.32.609770 +0700,
1,66,1,word/wordth0661.png,image/True/img66.png,35,35,0,z,0.9342970000579953,None,0,35,35,35,135.72679680003785,,,,,,,137.21520109986886,136.7151317000389,136.72151799988933,136.72151799988933,137.20837859995663,138.31351609993726,138.31351609993726,z,0.9342970000579953,None,137.21520109986886,137.21520109986886,138.31351609993726,,,,,,,,KH_th,001,2025-03-09_20h19.12.932,MainFlow,2024.2.4,143.66061617173077,2025-03-09 20h19.32.609770 +0700,
1,24,0,word/wordth0241.png,image/False/imgf24.png,36,36,0,x,1.1858995000366122,None,0,36,36,36,139.25808939989656,,,,,,,140.74649809999391,140.2465450000018,140.2528420998715,140.2528420998715,140.73990980000235,141.83789519988932,141.83789519988932,x,1.1858995000366122,None,140.74649809999391,140.74649809999391,141.83789519988932,,,,,,,,KH_th,001,2025-03-09_20h19.12.932,MainFlow,2024.2.4,143.66061617173077,2025-03-09 20h19.32.609770 +0700,
1,14,1,word/wordth0141.png,image/True/img14.png,37,37,0,z,0.8945051999762654,None,0,37,37,37,143.03270339989103,,,,,,,144.52807509992272,144.02333760005422,144.03453149995767,144.03453149995767,144.52141320006922,145.62629859987646,145.62629859987646,z,0.8945051999762654,None,144.52807509992272,144.52807509992272,145.62629859987646,,,,,,,,KH_th,001,2025-03-09_20h19.12.932,MainFlow,2024.2.4,143.66061617173077,2025-03-09 20h19.32.609770 +0700,
1,20,0,word/wordth0201.png,image/False/imgf20.png,38,38,0,x,1.0807684001047164,None,0,38,38,38,146.529254199937,,,,,,,148.0176872999873,147.51721139997244,147.52414179989137,147.52414179989137,148.01098829996772,149.1360462999437,149.1360462999437,x,1.0807684001047164,None,148.0176872999873,148.0176872999873,149.1360462999437,,,,,,,,KH_th,001,2025-03-09_20h19.12.932,MainFlow,2024.2.4,143.66061617173077,2025-03-09 20h19.32.609770 +0700,
1,89,0,word/wordth0891.png,image/False/imgf89.png,39,39,0,x,1.3066948999185115,None,0,39,39,39,150.2273977000732,,,,,,,151.7157960999757,151.21694319997914,151.22146959998645,151.22146959998645,151.70907550002448,152.8071067999117,152.8071067999117,x,1.3066948999185115,None,151.7157960999757,151.7157960999757,152.8071067999117,,,,,,,,KH_th,001,2025-03-09_20h19.12.932,MainFlow,2024.2.4,143.66061617173077,2025-03-09 20h19.32.609770 +0700,
1,64,0,word/wordth0641.png,image/False/imgf64.png,40,40,0,x,1.4037756000179797,None,0,40,40,40,154.1271438000258,,,,,,,155.61560930009,155.1157527999021,155.12188820005395,155.12188820005395,155.60897370008752,156.68607870000415,156.68607870000415,x,1.4037756000179797,None,155.61560930009,155.61560930009,156.68607870000415,,,,,,,,KH_th,001,2025-03-09_20h19.12.932,MainFlow,2024.2.4,143.66061617173077,2025-03-09 20h19.32.609770 +0700,
1,56,1,word/wordth0561.png,image/True/img56.png,41,41,0,z,0.9997862000018358,None,0,41,41,41,158.09721369994804,,,,,,,159.59165730001405,159.08801649999805,159.09830449987203,159.09830449987203,159.5851493999362,160.68302679993212,160.68302679993212,z,0.9997862000018358,None,159.59165730001405,159.59165730001405,160.68302679993212,,,,,,,,KH_th,001,2025-03-09_20h19.12.932,MainFlow,2024.2.4,143.66061617173077,2025-03-09 20h19.32.609770 +0700,
1,15,1,word/wordth0151.png,image/True/img15.png,42,42,0,z,1.393370799953118,None,0,42,42,42,161.6902697000187,,,,,,,163.18570540007204,162.68157420004718,162.69209880009294,162.69209880009294,163.17894189991057,164.29742519999854,164.29742519999854,z,1.393370799953118,None,163.18570540007204,163.18570540007204,164.29742519999854,,,,,,,,KH_th,001,2025-03-09_20h19.12.932,MainFlow,2024.2.4,143.66061617173077,2025-03-09 20h19.32.609770 +0700,
1,88,0,word/wordth0881.png,image/False/imgf88.png,43,43,0,x,1.267825299873948,None,0,43,43,43,165.702026899904,,,,,,,167.18955160002224,166.69071039999835,166.69527869997546,166.69527869997546,167.18294149986468,168.28796999994665,168.28796999994665,x,1.267825299873948,None,167.18955160002224,167.18955160002224,168.28796999994665,,,,,,,,KH_th,001,2025-03-09_20h19.12.932,MainFlow,2024.2.4,143.66061617173077,2025-03-09 20h19.32.609770 +0700,
1,94,1,word/wordth0941.png,image/True/img94.png,44,44,0,z,0.8177918000146747,None,0,44,44,44,169.56619690009393,,,,,,,171.05462619988248,170.5549955999013,170.56064180005342,170.56064180005342,171.0479403999634,172.14600609987974,172.14600609987974,z,0.8177918000146747,None,171.05462619988248,171.05462619988248,172.14600609987974,,,,,,,,KH_th,001,2025-03-09_20h19.12.932,MainFlow,2024.2.4,143.66061617173077,2025-03-09 20h19.32.609770 +0700,
1,40,0,word/wordth0401.png,image/False/imgf40.png,45,45,0,x,1.0467272999230772,None,0,45,45,45,172.97238519997336,,,,,,,174.46777229988948,173.96367309987545,173.97421199991368,173.97421199991368,174.46106359991245,175.56608989997767,175.56608989997767,x,1.0467272999230772,None,174.46777229988948,174.46777229988948,175.56608989997767,,,,,,,,KH_th,001,2025-03-09_20h19.12.932,MainFlow,2024.2.4,143.66061617173077,2025-03-09 20h19.32.609770 +0700,
1,41,0,word/wordth0411.png,image/False/imgf41.png,46,46,0,x,0.9359677000902593,None,0,46,46,46,176.62192200007848,,,,,,,178.11033619986847,177.61048609996215,177.61663389997557,177.61663389997557,178.1036062000785,179.18083239998668,179.18083239998668,x,0.9359677000902593,None,178.11033619986847,178.11033619986847,179.18083239998668,,,,,,,,KH_th,001,2025-03-09_20h19.12.932,MainFlow,2024.2.4,143.66061617173077,2025-03-09 20h19.32.609770 +0700,
1,7,1,word/wordth0071.png,image/True/img07.png,47,47,0,z,0.9677522999700159,None,0,47,47,47,180.12622069986537,,,,,,,181.6207709000446,181.11651129997335,181.1272235000506,181.1272235000506,181.61410510004498,182.72604910004884,182.72604910004884,z,0.9677522999700159,None,181.6207709000446,181.6207709000446,182.72604910004884,,,,,,,,KH_th,001,2025-03-09_20h19.12.932,MainFlow,2024.2.4,143.66061617173077,2025-03-09 20h19.32.609770 +0700,
1,60,0,word/wordth0601.png,image/False/imgf60.png,48,48,0,x,1.1936949000228196,None,0,48,48,48,183.70614910009317,,,,,,,185.1937889000401,184.69454000005499,184.6993996000383,184.6993996000383,185.18696819990873,186.29211529996246,186.29211529996246,x,1.1936949000228196,None,185.1937889000401,185.1937889000401,186.29211529996246,,,,,,,,KH_th,001,2025-03-09_20h19.12.932,MainFlow,2024.2.4,143.66061617173077,2025-03-09 20h19.32.609770 +0700,
1,23,0,word/wordth0231.png,image/False/imgf23.png,49,49,0,x,1.5703968999441713,None,0,49,49,49,187.49388609989546,,,,,,,188.98230140004307,188.4833273999393,188.48793910001405,188.48793910001405,188.97559399995953,190.10844519990496,190.10844519990496,x,1.5703968999441713,None,188.98230140004307,188.98230140004307,190.10844519990496,,,,,,,,KH_th,001,2025-03-09_20h19.12.932,MainFlow,2024.2.4,143.66061617173077,2025-03-09 20h19.32.609770 +0700,
1,68,0,word/wordth0681.png,image/False/imgf68.png,50,50,0,x,1.1403715999331325,None,0,50,50,50,191.69253279990517,,,,,,,193.18093899986707,192.68057870003395,192.68739430001006,192.68739430001006,193.17425999999978,194.25842999992892,194.25842999992892,x,1.1403715999331325,None,193.18093899986707,193.18093899986707,194.25842999992892,,,,,,,,KH_th,001,2025-03-09_20h19.12.932,MainFlow,2024.2.4,143.66061617173077,2025-03-09 20h19.32.609770 +0700,
1,26,1,word/wordth0261.png,image/True/img26.png,51,51,0,z,1.3395561000797898,None,0,51,51,51,195.41152279987,,,,,,,196.89985630009323,196.4000001999084,196.40626399987377,196.40626399987377,196.8932741000317,198.01224300009198,198.01224300009198,z,1.3395561000797898,None,196.89985630009323,196.89985630009323,198.01224300009198,,,,,,,,KH_th,001,2025-03-09_20h19.12.932,MainFlow,2024.2.4,143.66061617173077,2025-03-09 20h19.32.609770 +0700,
1,89,0,word/wordth0891.png,image/False/imgf89.png,52,52,0,x,1.1160294997971505,None,0,52,52,52,199.35992090008222,,,,,,,200.84833370009437,200.34864700003527,200.35471439990215,200.35471439990215,200.84166450006887,201.93976500001736,201.93976500001736,x,1.1160294997971505,None,200.84833370009437,200.84833370009437,201.93976500001736,,,,,,,,KH_th,001,2025-03-09_20h19.12.932,MainFlow,2024.2.4,143.66061617173077,2025-03-09 20h19.32.609770 +0700,
1,3,0,word/wordth0031.png,image/False/imgf03.png,53,53,0,z,4.211992900120094,None,0,53,53,53,203.0650138000492,,,,,,,204.5534540999215,204.05445370008238,204.05910559999757,204.05910559999757,204.54675139999017,205.64481179998256,205.64481179998256,z,4.211992900120094,None,204.5534540999215,204.5534540999215,205.64481179998256,,,,,,,,KH_th,001,2025-03-09_20h19.12.932,MainFlow,2024.2.4,143.66061617173077,2025-03-09 20h19.32.609770 +0700,
1,55,1,word/wordth0551.png,image/True/img55.png,54,54,0,z,1.0246022001374513,None,0,54,54,54,209.86431289999746,,,,,,,211.35191600001417,210.8520804999862,210.85823639994487,210.85823639994487,211.34522309992462,212.45719420001842,212.45719420001842,z,1.0246022001374513,None,211.35191600001417,211.35191600001417,212.45719420001842,,,,,,,,KH_th,001,2025-03-09_20h19.12.932,MainFlow,2024.2.4,143.66061617173077,2025-03-09 20h19.32.609770 +0700,
1,46,1,word/wordth0461.png,image/True/img46.png,55,55,0,z,2.4540898001287133,None,0,55,55,55,213.49212429998443,,,,,,,214.98054490005597,214.480735699879,214.48686790000647,214.48686790000647,214.97393470001407,216.09277160000056,216.09277160000056,z,2.4540898001287133,None,214.98054490005597,214.98054490005597,216.09277160000056,,,,,,,,KH_th,001,2025-03-09_20h19.12.932,MainFlow,2024.2.4,143.66061617173077,2025-03-09 20h19.32.609770 +0700,
1,1,1,word/wordth0011.png,image/True/img01.png,56,56,0,z,2.690412500174716,None,0,56,56,56,218.56042049988173,,,,,,,220.05504200002179,219.5505635999143,219.56152829993516,219.56152829993516,220.04838689998724,221.16039229999296,221.16039229999296,z,2.690412500174716,None,220.05504200002179,220.05504200002179,221.16039229999296,,,,,,,,KH_th,001,2025-03-09_20h19.12.932,MainFlow,2024.2.4,143.66061617173077,2025-03-09 20h19.32.609770 +0700,
1,3,1,word/wordth0031.png,image/True/img03.png,57,57,0,z,1.945764800067991,None,0,57,57,57,223.86441290006042,,,,,,,225.35203769989312,224.85205059987493,224.85849980008788,224.85849980008788,225.3453363000881,226.4502189999912,226.4502189999912,z,1.945764800067991,None,225.35203769989312,225.35203769989312,226.4502189999912,,,,,,,,KH_th,001,2025-03-09_20h19.12.932,MainFlow,2024.2.4,143.66061617173077,2025-03-09 20h19.32.609770 +0700,
1,76,1,word/wordth0761.png,image/True/img76.png,58,58,0,z,0.9592286001425236,None,0,58,58,58,228.4035515000578,,,,,,,229.89824829995632,229.39382690005004,229.4047059000004,229.4047059000004,229.89143599988893,230.99657529988326,230.99657529988326,z,0.9592286001425236,None,229.89824829995632,229.89824829995632,230.99657529988326,,,,,,,,KH_th,001,2025-03-09_20h19.12.932,MainFlow,2024.2.4,143.66061617173077,2025-03-09 20h19.32.609770 +0700,
1,52,0,word/wordth0521.png,image/False/imgf52.png,59,59,0,x,1.5434363998938352,None,0,59,59,59,231.96894959989004,,,,,,,233.4574663999956,232.958135999972,232.963007299928,232.963007299928,233.45074960007332,234.5413794000633,234.5413794000633,x,1.5434363998938352,None,233.4574663999956,233.4574663999956,234.5413794000633,,,,,,,,KH_th,001,2025-03-09_20h19.12.932,MainFlow,2024.2.4,143.66061617173077,2025-03-09 20h19.32.609770 +0700,
1,14,0,word/wordth0141.png,image/False/imgf14.png,60,60,0,x,1.380004599923268,None,0,60,60,60,236.09810129995458,,,,,,,237.586507699918,237.08660609996878,237.09300519991666,237.09300519991666,237.57986869988963,238.68481480004266,238.68481480004266,x,1.380004599923268,None,237.586507699918,237.586507699918,238.68481480004266,,,,,,,,KH_th,001,2025-03-09_20h19.12.932,MainFlow,2024.2.4,143.66061617173077,2025-03-09 20h19.32.609770 +0700,
1,61,1,word/wordth0611.png,image/True/img61.png,61,61,0,z,1.0819751999806613,None,0,61,61,61,240.07429670006968,,,,,,,241.56271640001796,241.06308169988915,241.06876379996538,241.06876379996538,241.55603430001065,242.6680369998794,242.6680369998794,z,1.0819751999806613,None,241.56271640001796,241.56271640001796,242.6680369998794,,,,,,,,KH_th,001,2025-03-09_20h19.12.932,MainFlow,2024.2.4,143.66061617173077,2025-03-09 20h19.32.609770 +0700,
1,93,0,word/wordth0931.png,image/False/imgf93.png,62,62,0,z,2.635419299826026,None,0,62,62,62,243.75852739997208,,,,,,,245.25389580009505,244.7497509000823,244.7603742000647,244.7603742000647,245.24720410001464,246.3383857998997,246.3383857998997,z,2.635419299826026,None,245.25389580009505,245.25389580009505,246.3383857998997,,,,,,,,KH_th,001,2025-03-09_20h19.12.932,MainFlow,2024.2.4,143.66061617173077,2025-03-09 20h19.32.609770 +0700,
1,37,1,word/wordth0371.png,image/True/img37.png,63,63,0,z,0.9652404000516981,None,0,63,63,63,248.98680999991484,,,,,,,250.47441660007462,249.97458639997058,249.98070809990168,249.98070809990168,250.46771069988608,251.59356429986656,251.59356429986656,z,0.9652404000516981,None,250.47441660007462,250.47441660007462,251.59356429986656,,,,,,,,KH_th,001,2025-03-09_20h19.12.932,MainFlow,2024.2.4,143.66061617173077,2025-03-09 20h19.32.609770 +0700,
1,79,0,word/wordth0791.png,image/False/imgf79.png,64,64,0,z,3.432538899825886,None,0,64,64,64,252.56596749997698,,,,,,,254.0543571000453,253.5554742999375,253.5600562999025,253.5600562999025,254.04765209998004,255.15926339989528,255.15926339989528,z,3.432538899825886,None,254.0543571000453,254.0543571000453,255.15926339989528,,,,,,,,KH_th,001,2025-03-09_20h19.12.932,MainFlow,2024.2.4,143.66061617173077,2025-03-09 20h19.32.609770 +0700,
1,37,0,word/wordth0371.png,image/False/imgf37.png,65,65,0,x,1.0172460000030696,None,0,65,65,65,258.60060969996266,,,,,,,260.088219899917,259.5884886998683,259.59422830003314,259.59422830003314,260.0815180998761,261.2065530999098,261.2065530999098,x,1.0172460000030696,None,260.088219899917,260.088219899917,261.2065530999098,,,,,,,,KH_th,001,2025-03-09_20h19.12.932,MainFlow,2024.2.4,143.66061617173077,2025-03-09 20h19.32.609770 +0700,
1,3,1,word/wordth0031.png,image/True/img03.png,66,66,0,z,0.9388252999633551,None,0,66,66,66,262.2353570999112,,,,,,,263.7237758000847,263.22399319987744,263.23007739987224,263.23007739987224,263.71715299994685,264.8221096000634,264.8221096000634,z,0.9388252999633551,None,263.7237758000847,263.7237758000847,264.8221096000634,,,,,,,,KH_th,001,2025-03-09_20h19.12.932,MainFlow,2024.2.4,143.66061617173077,2025-03-09 20h19.32.609770 +0700,
1,93,0,word/wordth0931.png,image/False/imgf93.png,67,67,0,z,2.318318999838084,None,0,67,67,67,265.7744130999781,,,,,,,267.26204829989,266.76232809992507,266.76805040007457,266.76805040007457,267.2552964000497,268.3464792999439,268.3464792999439,z,2.318318999838084,None,267.26204829989,267.26204829989,268.3464792999439,,,,,,,,KH_th,001,2025-03-09_20h19.12.932,MainFlow,2024.2.4,143.66061617173077,2025-03-09 20h19.32.609770 +0700,
1,30,1,word/wordth0301.png,image/True/img30.png,68,68,0,z,1.1074263001792133,None,0,68,68,68,270.67517509986646,,,,,,,272.16280420008115,271.6632276000455,271.66841079993173,271.66841079993173,272.15597379999235,273.2463738999795,273.2463738999795,z,1.1074263001792133,None,272.16280420008115,272.16280420008115,273.2463738999795,,,,,,,,KH_th,001,2025-03-09_20h19.12.932,MainFlow,2024.2.4,143.66061617173077,2025-03-09 20h19.32.609770 +0700,
1,46,0,word/wordth0461.png,image/False/imgf46.png,69,69,0,x,0.859619399998337,None,0,69,69,69,274.36554730008356,,,,,,,275.853983100038,275.354153299937,275.36030320008285,275.36030320008285,275.84727209992707,276.96619799989276,276.96619799989276,x,0.859619399998337,None,275.853983100038,275.853983100038,276.96619799989276,,,,,,,,KH_th,001,2025-03-09_20h19.12.932,MainFlow,2024.2.4,143.66061617173077,2025-03-09 20h19.32.609770 +0700,
1,27,0,word/wordth0271.png,image/False/imgf27.png,70,70,0,x,1.8847207000944763,None,0,70,70,70,277.8343128999695,,,,,,,279.322709399974,278.82364630000666,278.82835770002566,278.82835770002566,279.3160069999285,280.41410840000026,280.41410840000026,x,1.8847207000944763,None,279.322709399974,279.322709399974,280.41410840000026,,,,,,,,KH_th,001,2025-03-09_20h19.12.932,MainFlow,2024.2.4,143.66061617173077,2025-03-09 20h19.32.609770 +0700,
1,37,1,word/wordth0371.png,image/True/img37.png,71,71,0,z,1.2053281001280993,None,0,71,71,71,282.31183600006625,,,,,,,283.79944319999777,283.2993812998757,283.30577969993465,283.30577969993465,283.79263349995017,284.9184824998956,284.9184824998956,z,1.2053281001280993,None,283.79944319999777,283.79944319999777,284.9184824998956,,,,,,,,KH_th,001,2025-03-09_20h19.12.932,MainFlow,2024.2.4,143.66061617173077,2025-03-09 20h19.32.609770 +0700,
1,20,1,word/wordth0201.png,image/True/img20.png,72,72,0,z,0.8278256000485271,None,0,72,72,72,286.1342746000737,,,,,,,287.62268169992603,287.12297139992006,287.1291276998818,287.1291276998818,287.6160514000803,288.7279841999989,288.7279841999989,z,0.8278256000485271,None,287.62268169992603,287.62268169992603,288.7279841999989,,,,,,,,KH_th,001,2025-03-09_20h19.12.932,MainFlow,2024.2.4,143.66061617173077,2025-03-09 20h19.32.609770 +0700,
1,17,1,word/wordth0171.png,image/True/img17.png,73,73,0,z,1.3936344000976533,None,0,73,73,73,289.56908080005087,,,,,,,291.0636295999866,290.5595058000181,290.5700894999318,290.5700894999318,291.05694140004925,292.15419059991837,292.15419059991837,z,1.3936344000976533,None,291.0636295999866,291.0636295999866,292.15419059991837,,,,,,,,KH_th,001,2025-03-09_20h19.12.932,MainFlow,2024.2.4,143.66061617173077,2025-03-09 20h19.32.609770 +0700,
1,10,0,word/wordth0101.png,image/False/imgf10.png,74,74,0,x,0.964727999875322,None,0,74,74,74,293.55838120006956,,,,,,,295.0537358999718,294.5493876999244,294.56021740008146,294.56021740008146,295.0472281000111,296.15208379994147,296.15208379994147,x,0.964727999875322,None,295.0537358999718,295.0537358999718,296.15208379994147,,,,,,,,KH_th,001,2025-03-09_20h19.12.932,MainFlow,2024.2.4,143.66061617173077,2025-03-09 20h19.32.609770 +0700,
1,68,1,word/wordth0681.png,image/True/img68.png,75,75,0,z,0.7694268000777811,None,0,75,75,75,297.12446200009435,,,,,,,298.61288190004416,298.11291850009,298.11920029995963,298.11920029995963,298.6062036000658,299.6833963000681,299.6833963000681,z,0.7694268000777811,None,298.61288190004416,298.61288190004416,299.6833963000681,,,,,,,,KH_th,001,2025-03-09_20h19.12.932,MainFlow,2024.2.4,143.66061617173077,2025-03-09 20h19.32.609770 +0700,
1,82,0,word/wordth0821.png,image/False/imgf82.png,76,76,0,x,1.1020641000941396,None,0,76,76,76,300.46113330009393,,,,,,,301.949537999928,301.45077620004304,301.45520560001023,301.45520560001023,301.94286169996485,303.04776520002633,303.04776520002633,x,1.1020641000941396,None,301.949537999928,301.949537999928,303.04776520002633,,,,,,,,KH_th,001,2025-03-09_20h19.12.932,MainFlow,2024.2.4,143.66061617173077,2025-03-09 20h19.32.609770 +0700,
1,42,1,word/wordth0421.png,image/True/img42.png,77,77,0,z,1.0999992999713868,None,0,77,77,77,304.16009239992127,,,,,,,305.6476962999441,305.1482376998756,305.1533349000383,305.1533349000383,305.6410129000433,306.74589539994486,306.74589539994486,z,1.0999992999713868,None,305.6476962999441,305.6476962999441,306.74589539994486,,,,,,,,KH_th,001,2025-03-09_20h19.12.932,MainFlow,2024.2.4,143.66061617173077,2025-03-09 20h19.32.609770 +0700,
1,59,1,word/wordth0591.png,image/True/img59.png,78,78,0,x,0.7995463002007455,None,0,78,78,78,307.8574182000011,,,,,,,309.3458412999753,308.8460969000589,308.85215739998966,308.85215739998966,309.33917759987526,310.4233065000735,310.4233065000735,x,0.7995463002007455,None,309.3458412999753,309.3458412999753,310.4233065000735,,,,,,,,KH_th,001,2025-03-09_20h19.12.932,MainFlow,2024.2.4,143.66061617173077,2025-03-09 20h19.32.609770 +0700,
1,18,1,word/wordth0181.png,image/True/img18.png,79,79,0,z,0.8941679999697953,None,0,79,79,79,311.2296597000677,,,,,,,312.7242078999989,312.21957110008225,312.2306852999609,312.2306852999609,312.71754599991255,313.80864459997974,313.80864459997974,z,0.8941679999697953,None,312.7242078999989,312.7242078999989,313.80864459997974,,,,,,,,KH_th,001,2025-03-09_20h19.12.932,MainFlow,2024.2.4,143.66061617173077,2025-03-09 20h19.32.609770 +0700,
1,63,1,word/wordth0631.png,image/True/img63.png,80,80,0,z,1.1655568000860512,None,0,80,80,80,314.7122549000196,,,,,,,316.1999133999925,315.69981319992803,315.7063682000153,315.7063682000153,316.19321669987403,317.2982473000884,317.2982473000884,z,1.1655568000860512,None,316.1999133999925,316.1999133999925,317.2982473000884,,,,,,,,KH_th,001,2025-03-09_20h19.12.932,MainFlow,2024.2.4,143.66061617173077,2025-03-09 20h19.32.609770 +0700,
1,40,0,word/wordth0401.png,image/False/imgf40.png,81,81,0,x,1.0229237999301404,None,0,81,81,81,318.4722064000089,,,,,,,319.9675811000634,319.46221000002697,319.4740718998946,319.4740718998946,319.9609095000196,321.07287020003423,321.07287020003423,x,1.0229237999301404,None,319.9675811000634,319.9675811000634,321.07287020003423,,,,,,,,KH_th,001,2025-03-09_20h19.12.932,MainFlow,2024.2.4,143.66061617173077,2025-03-09 20h19.32.609770 +0700,
1,55,0,word/wordth0551.png,image/False/imgf55.png,82,82,0,x,1.0702723998110741,None,0,82,82,82,322.10778309986927,,,,,,,323.5962261999957,323.0963761000894,323.10254170000553,323.10254170000553,323.5895380000584,324.69453620002605,324.69453620002605,x,1.0702723998110741,None,323.5962261999957,323.5962261999957,324.69453620002605,,,,,,,,KH_th,001,2025-03-09_20h19.12.932,MainFlow,2024.2.4,143.66061617173077,2025-03-09 20h19.32.609770 +0700,
1,26,1,word/wordth0261.png,image/True/img26.png,83,83,0,z,1.098022900056094,None,0,83,83,83,325.77813629992306,,,,,,,327.26655109995045,326.7666861999314,326.77288209996186,326.77288209996186,327.25987880001776,328.3787857000716,328.3787857000716,z,1.098022900056094,None,327.26655109995045,327.26655109995045,328.3787857000716,,,,,,,,KH_th,001,2025-03-09_20h19.12.932,MainFlow,2024.2.4,143.66061617173077,2025-03-09 20h19.32.609770 +0700,
1,28,0,word/wordth0281.png,image/False/imgf28.png,84,84,0,x,1.908858299953863,None,0,84,84,84,329.4902244999539,,,,,,,330.978616300039,330.4795836999547,330.48424259992316,330.48424259992316,330.97193629993126,332.0769398000557,332.0769398000557,x,1.908858299953863,None,330.978616300039,330.978616300039,332.0769398000557,,,,,,,,KH_th,001,2025-03-09_20h19.12.932,MainFlow,2024.2.4,143.66061617173077,2025-03-09 20h19.32.609770 +0700,
1,8,0,word/wordth0081.png,image/False/imgf08.png,85,85,0,x,1.0823142000008374,None,0,85,85,85,333.99468429991975,,,,,,,335.4831326000858,334.98355229990557,334.98873959993944,334.98873959993944,335.47644959995523,336.56753890006803,336.56753890006803,x,1.0823142000008374,None,335.4831326000858,335.4831326000858,336.56753890006803,,,,,,,,KH_th,001,2025-03-09_20h19.12.932,MainFlow,2024.2.4,143.66061617173077,2025-03-09 20h19.32.609770 +0700,
1,9,1,word/wordth0091.png,image/True/img09.png,86,86,0,z,1.0567333998624235,None,0,86,86,86,337.6580995998811,,,,,,,339.14651679992676,338.64693109993823,338.65251150005497,338.65251150005497,339.13983160001226,340.21007760008797,340.21007760008797,z,1.0567333998624235,None,339.14651679992676,339.14651679992676,340.21007760008797,,,,,,,,KH_th,001,2025-03-09_20h19.12.932,MainFlow,2024.2.4,143.66061617173077,2025-03-09 20h19.32.609770 +0700,
1,78,1,word/wordth0781.png,image/True/img78.png,87,87,0,z,1.1192417000420392,None,0,87,87,87,341.27979280008003,,,,,,,342.7681831999216,342.2683232999407,342.2745155999437,342.2745155999437,342.7614919000771,343.85957020008937,343.85957020008937,z,1.1192417000420392,None,342.7681831999216,342.7681831999216,343.85957020008937,,,,,,,,KH_th,001,2025-03-09_20h19.12.932,MainFlow,2024.2.4,143.66061617173077,2025-03-09 20h19.32.609770 +0700,
1,1,0,word/wordth0011.png,image/False/imgf01.png,88,88,0,x,1.0956198000349104,None,0,88,88,88,344.9918082000222,,,,,,,346.48028960009106,345.9805677998811,345.986241400009,345.986241400009,346.4735451999586,347.5642424998805,347.5642424998805,x,1.0956198000349104,None,346.48028960009106,346.48028960009106,347.5642424998805,,,,,,,,KH_th,001,2025-03-09_20h19.12.932,MainFlow,2024.2.4,143.66061617173077,2025-03-09 20h19.32.609770 +0700,
1,71,1,word/wordth0711.png,image/True/img71.png,89,89,0,z,1.1810206000227481,None,0,89,89,89,348.6691052999813,,,,,,,350.1575128999539,349.6583895999938,349.6631553999614,349.6631553999614,350.1508426000364,351.26279979990795,351.26279979990795,z,1.1810206000227481,None,350.1575128999539,350.1575128999539,351.26279979990795,,,,,,,,KH_th,001,2025-03-09_20h19.12.932,MainFlow,2024.2.4,143.66061617173077,2025-03-09 20h19.32.609770 +0700,
1,93,1,word/wordth0931.png,image/True/img93.png,90,90,0,z,2.0901327999308705,None,0,90,90,90,352.45069309999235,,,,,,,353.93909389991313,353.43935390003026,353.44539409992285,353.44539409992285,353.9323096999433,355.0226680999622,355.0226680999622,z,2.0901327999308705,None,353.93909389991313,353.93909389991313,355.0226680999622,,,,,,,,KH_th,001,2025-03-09_20h19.12.932,MainFlow,2024.2.4,143.66061617173077,2025-03-09 20h19.32.609770 +0700,
1,78,0,word/wordth0781.png,image/False/imgf78.png,91,91,0,x,1.5509226000867784,None,0,91,91,91,357.1227323000785,,,,,,,358.61043719993904,358.1105205998756,358.1167462999001,358.1167462999001,358.6038094998803,359.69486940000206,359.69486940000206,x,1.5509226000867784,None,358.61043719993904,358.61043719993904,359.69486940000206,,,,,,,,KH_th,001,2025-03-09_20h19.12.932,MainFlow,2024.2.4,143.66061617173077,2025-03-09 20h19.32.609770 +0700,
1,8,0,word/wordth0081.png,image/False/imgf08.png,92,92,0,x,0.9508492997847497,None,0,92,92,92,361.2589318000246,,,,,,,362.7465063999407,362.24713029991835,362.2521488000639,362.2521488000639,362.73995679989457,363.83094449993223,363.83094449993223,x,0.9508492997847497,None,362.7465063999407,362.7465063999407,363.83094449993223,,,,,,,,KH_th,001,2025-03-09_20h19.12.932,MainFlow,2024.2.4,143.66061617173077,2025-03-09 20h19.32.609770 +0700,
1,9,0,word/wordth0091.png,image/False/imgf09.png,93,93,0,x,0.5795044999103993,None,0,93,93,93,364.7901355000213,,,,,,,366.2777573999483,365.77825179998763,365.78386939992197,365.78386939992197,366.27113060001284,367.3553003000561,367.3553003000561,x,0.5795044999103993,None,366.2777573999483,366.2777573999483,367.3553003000561,,,,,,,,KH_th,001,2025-03-09_20h19.12.932,MainFlow,2024.2.4,143.66061617173077,2025-03-09 20h19.32.609770 +0700,
1,75,1,word/wordth0751.png,image/True/img75.png,94,94,0,z,1.7077565998770297,None,0,94,94,94,367.9460626000073,,,,,,,369.4407261000015,368.9367710999213,368.94717469997704,368.94717469997704,369.4340627999045,370.53904549987055,370.53904549987055,z,1.7077565998770297,None,369.4407261000015,369.4407261000015,370.53904549987055,,,,,,,,KH_th,001,2025-03-09_20h19.12.932,MainFlow,2024.2.4,143.66061617173077,2025-03-09 20h19.32.609770 +0700,
1,95,0,word/wordth0951.png,image/False/imgf95.png,95,95,0,x,1.7349595001433045,None,0,95,95,95,372.25520749995485,,,,,,,373.7436420000158,373.2438228998799,373.2499746000394,373.2499746000394,373.73695930000395,374.8489161999896,374.8489161999896,x,1.7349595001433045,None,373.7436420000158,373.7436420000158,374.8489161999896,,,,,,,,KH_th,001,2025-03-09_20h19.12.932,MainFlow,2024.2.4,143.66061617173077,2025-03-09 20h19.32.609770 +0700,
1,70,1,word/wordth0701.png,image/True/img70.png,96,96,0,z,0.5732879999559373,None,0,96,96,96,376.59290149994195,,,,,,,378.0882623998914,377.58409989997745,377.5947215000633,377.5947215000633,378.0815665998962,379.186593899969,379.186593899969,z,0.5732879999559373,None,378.0882623998914,378.0882623998914,379.186593899969,,,,,,,,KH_th,001,2025-03-09_20h19.12.932,MainFlow,2024.2.4,143.66061617173077,2025-03-09 20h19.32.609770 +0700,
1,94,0,word/wordth0941.png,image/False/imgf94.png,97,97,0,x,0.9275140999816358,None,0,97,97,97,379.7704998999834,,,,,,,381.25799089996144,380.7584124999121,380.76440309989266,380.76440309989266,381.2514078000095,382.3772811999079,382.3772811999079,x,0.9275140999816358,None,381.25799089996144,381.25799089996144,382.3772811999079,,,,,,,,KH_th,001,2025-03-09_20h19.12.932,MainFlow,2024.2.4,143.66061617173077,2025-03-09 20h19.32.609770 +0700,
1,9,0,word/wordth0091.png,image/False/imgf09.png,98,98,0,x,0.9194059001747519,None,0,98,98,98,383.31560249999166,,,,,,,384.803322999971,384.303751999978,384.3089672999922,384.3089672999922,384.79668370005675,385.8733934999909,385.8733934999909,x,0.9194059001747519,None,384.803322999971,384.803322999971,385.8733934999909,,,,,,,,KH_th,001,2025-03-09_20h19.12.932,MainFlow,2024.2.4,143.66061617173077,2025-03-09 20h19.32.609770 +0700,
1,18,0,word/wordth0181.png,image/False/imgf18.png,99,99,0,x,1.2259978998918086,None,0,99,99,99,386.80450810003094,,,,,,,388.292915500002,387.79299029987305,387.79925199993886,387.79925199993886,388.28624869999476,389.38385759992525,389.38385759992525,x,1.2259978998918086,None,388.292915500002,388.292915500002,389.38385759992525,,,,,,,,KH_th,001,2025-03-09_20h19.12.932,MainFlow,2024.2.4,143.66061617173077,2025-03-09 20h19.32.609770 +0700,
1,28,1,word/wordth0281.png,image/True/img28.png,100,100,0,z,1.124319499824196,None,0,100,100,100,390.62082939990796,,,,,,,392.10923619987443,391.6100550999399,391.6148886999581,391.6148886999581,392.10257790004835,393.2214885998983,393.2214885998983,z,1.124319499824196,None,392.10923619987443,392.10923619987443,393.2214885998983,,,,,,,,KH_th,001,2025-03-09_20h19.12.932,MainFlow,2024.2.4,143.66061617173077,2025-03-09 20h19.32.609770 +0700,
1,23,1,word/wordth0231.png,image/True/img23.png,101,101,0,z,0.7263372000306845,None,0,101,101,101,394.35371270007454,,,,,,,395.8421668000519,395.3423563998658,395.34844550001435,395.34844550001435,395.83542410004884,396.94046509987675,396.94046509987675,z,0.7263372000306845,None,395.8421668000519,395.8421668000519,396.94046509987675,,,,,,,,KH_th,001,2025-03-09_20h19.12.932,MainFlow,2024.2.4,143.66061617173077,2025-03-09 20h19.32.609770 +0700,
1,30,0,word/wordth0301.png,image/False/imgf30.png,102,102,0,x,1.1225231001153588,None,0,102,102,102,397.6764909999911,,,,,,,399.16490380000323,398.6653924998827,398.67095410008915,398.67095410008915,399.15821589995176,400.2562818999868,400.2562818999868,x,1.1225231001153588,None,399.16490380000323,399.16490380000323,400.2562818999868,,,,,,,,KH_th,001,2025-03-09_20h19.12.932,MainFlow,2024.2.4,143.66061617173077,2025-03-09 20h19.32.609770 +0700,
1,11,1,word/wordth0111.png,image/True/img11.png,103,103,0,z,1.067641100147739,None,0,103,103,103,401.3885699000675,,,,,,,402.876966800075,402.3780390000902,402.3826099000871,402.3826099000871,402.8702883000951,403.9961592000909,403.9961592000909,z,1.067641100147739,None,402.876966800075,402.876966800075,403.9961592000909,,,,,,,,KH_th,001,2025-03-09_20h19.12.932,MainFlow,2024.2.4,143.66061617173077,2025-03-09 20h19.32.609770 +0700,
1,75,0,word/wordth0751.png,image/False/imgf75.png,104,104,0,x,1.2073944001458585,None,0,104,104,104,405.07279850007035,,,,,,,406.5612143999897,406.061406099936,406.06750810006633,406.06750810006633,406.5545945998747,407.6524310000241,407.6524310000241,x,1.2073944001458585,None,406.5612143999897,406.5612143999897,407.6524310000241,,,,,,,,KH_th,001,2025-03-09_20h19.12.932,MainFlow,2024.2.4,143.66061617173077,2025-03-09 20h19.32.609770 +0700,
1,6,0,word/wordth0061.png,image/False/imgf06.png,105,105,0,x,1.7247543998528272,None,0,105,105,105,408.86824400001206,,,,,,,410.3636229999829,409.85850020009093,409.8700741000939,409.8700741000939,410.3568325000815,411.44805409992114,411.44805409992114,x,1.7247543998528272,None,410.3636229999829,410.3636229999829,411.44805409992114,,,,,,,,KH_th,001,2025-03-09_20h19.12.932,MainFlow,2024.2.4,143.66061617173077,2025-03-09 20h19.32.609770 +0700,
1,27,1,word/wordth0271.png,image/True/img27.png,106,106,0,z,0.9118731999769807,None,0,106,106,106,413.1858769999817,,,,,,,414.67349629988894,414.17378040007316,414.1798564000055,414.1798564000055,414.666805600049,415.7649276999291,415.7649276999291,z,0.9118731999769807,None,414.67349629988894,414.67349629988894,415.7649276999291,,,,,,,,KH_th,001,2025-03-09_20h19.12.932,MainFlow,2024.2.4,143.66061617173077,2025-03-09 20h19.32.609770 +0700,
1,1,1,word/wordth0011.png,image/True/img01.png,107,107,0,z,0.8195397001691163,None,0,107,107,107,416.68856999999844,,,,,,,418.17700210004114,417.6772125000134,417.6833263998851,417.6833263998851,418.17031479999423,419.2822871999815,419.2822871999815,z,0.8195397001691163,None,418.17700210004114,418.17700210004114,419.2822871999815,,,,,,,,KH_th,001,2025-03-09_20h19.12.932,MainFlow,2024.2.4,143.66061617173077,2025-03-09 20h19.32.609770 +0700,
1,44,0,word/wordth0441.png,image/False/imgf44.png,108,108,0,x,1.1935413000173867,None,0,108,108,108,420.10947369993664,,,,,,,421.6040352000855,421.0995616998989,421.1104735999834,421.1104735999834,421.59748039999977,422.7163019999862,422.7163019999862,x,1.1935413000173867,None,421.6040352000855,421.6040352000855,422.7163019999862,,,,,,,,KH_th,001,2025-03-09_20h19.12.932,MainFlow,2024.2.4,143.66061617173077,2025-03-09 20h19.32.609770 +0700,
1,48,0,word/wordth0481.png,image/False/imgf48.png,109,109,0,x,1.0082407998852432,None,0,109,109,109,423.9180435000453,,,,,,,425.40643560001627,424.90666049998254,424.9127829000354,424.9127829000354,425.3997796999756,426.5185664999299,426.5185664999299,x,1.0082407998852432,None,425.40643560001627,425.40643560001627,426.5185664999299,,,,,,,,KH_th,001,2025-03-09_20h19.12.932,MainFlow,2024.2.4,143.66061617173077,2025-03-09 20h19.32.609770 +0700,
1,60,0,word/wordth0601.png,image/False/imgf60.png,110,110,0,x,0.9282986000180244,None,0,110,110,110,427.5397165999748,,,,,,,429.02814000006765,428.5283822999336,428.53443349990994,428.53443349990994,429.02135440008715,430.1265340000391,430.1265340000391,x,0.9282986000180244,None,429.02814000006765,429.02814000006765,430.1265340000391,,,,,,,,KH_th,001,2025-03-09_20h19.12.932,MainFlow,2024.2.4,143.66061617173077,2025-03-09 20h19.32.609770 +0700,
1,96,1,word/wordth0961.png,image/True/img96.png,111,111,0,z,0.6380841999780387,None,0,111,111,111,431.06408139993437,,,,,,,432.55947099998593,432.054942100076,432.0659155000467,432.0659155000467,432.5527774998918,433.66473610000685,433.66473610000685,z,0.6380841999780387,None,432.55947099998593,432.55947099998593,433.66473610000685,,,,,,,,KH_th,001,2025-03-09_20h19.12.932,MainFlow,2024.2.4,143.66061617173077,2025-03-09 20h19.32.609770 +0700,
1,79,0,word/wordth0791.png,image/False/imgf79.png,112,112,0,z,2.81572479987517,None,0,112,112,112,434.3104312000796,,,,,,,435.7988000998739,435.29894279991277,435.30529360007495,435.30529360007495,435.7921114999335,436.90409750002436,436.90409750002436,z,2.81572479987517,None,435.7988000998739,435.7988000998739,436.90409750002436,,,,,,,,KH_th,001,2025-03-09_20h19.12.932,MainFlow,2024.2.4,143.66061617173077,2025-03-09 20h19.32.609770 +0700,
1,7,0,word/wordth0071.png,image/False/imgf07.png,113,113,0,x,1.1815772000700235,None,0,113,113,113,439.7333033999894,,,,,,,441.22090690000914,440.72092469991185,440.72722960007377,440.72722960007377,441.21422569989227,442.31923789996654,442.31923789996654,x,1.1815772000700235,None,441.22090690000914,441.22090690000914,442.31923789996654,,,,,,,,KH_th,001,2025-03-09_20h19.12.932,MainFlow,2024.2.4,143.66061617173077,2025-03-09 20h19.32.609770 +0700,
1,36,0,word/wordth0361.png,image/False/imgf36.png,114,114,0,x,1.4751067999750376,None,0,114,114,114,443.5140869000461,,,,,,,445.0024925000034,444.50268159992993,444.5087772998959,444.5087772998959,444.9957808998879,446.09369289991446,446.09369289991446,x,1.4751067999750376,None,445.0024925000034,445.0024925000034,446.09369289991446,,,,,,,,KH_th,001,2025-03-09_20h19.12.932,MainFlow,2024.2.4,143.66061617173077,2025-03-09 20h19.32.609770 +0700,
1,71,0,word/wordth0711.png,image/False/imgf71.png,115,115,0,x,1.1894604000262916,None,0,115,115,115,447.5806249999441,,,,,,,449.0690506999381,448.56950880005024,448.5755626000464,448.5755626000464,449.06233089999296,450.18043639999814,450.18043639999814,x,1.1894604000262916,None,449.0690506999381,449.0690506999381,450.18043639999814,,,,,,,,KH_th,001,2025-03-09_20h19.12.932,MainFlow,2024.2.4,143.66061617173077,2025-03-09 20h19.32.609770 +0700,
1,20,0,word/wordth0201.png,image/False/imgf20.png,116,116,0,x,1.9151488998904824,None,0,116,116,116,451.38303130003624,,,,,,,452.87144990009256,452.37162690004334,452.377824800089,452.377824800089,452.8648081999272,453.9906512000598,453.9906512000598,x,1.9151488998904824,None,452.87144990009256,452.87144990009256,453.9906512000598,,,,,,,,KH_th,001,2025-03-09_20h19.12.932,MainFlow,2024.2.4,143.66061617173077,2025-03-09 20h19.32.609770 +0700,
1,87,1,word/wordth0871.png,image/True/img87.png,117,117,0,z,0.5107917999848723,None,0,117,117,117,455.9153360000346,,,,,,,457.41073099989444,456.9067971999757,456.9171923000831,456.9171923000831,457.403950399952,458.51600699988194,458.51600699988194,z,0.5107917999848723,None,457.41073099989444,457.41073099989444,458.51600699988194,,,,,,,,KH_th,001,2025-03-09_20h19.12.932,MainFlow,2024.2.4,143.66061617173077,2025-03-09 20h19.32.609770 +0700,
1,50,0,word/wordth0501.png,image/False/imgf50.png,118,118,0,x,1.0435376998502761,None,0,118,118,118,459.0373559000436,,,,,,,460.5318839000538,460.0280802999623,460.03835879988037,460.03835879988037,460.52526400005445,461.6232809999492,461.6232809999492,x,1.0435376998502761,None,460.5318839000538,460.5318839000538,461.6232809999492,,,,,,,,KH_th,001,2025-03-09_20h19.12.932,MainFlow,2024.2.4,143.66061617173077,2025-03-09 20h19.32.609770 +0700,
1,18,1,word/wordth0181.png,image/True/img18.png,119,119,0,z,0.8158889000769705,None,0,119,119,119,462.6790511000436,,,,,,,464.1674758999143,463.66761030000634,463.67381089995615,463.67381089995615,464.1608784000855,465.2519093998708,465.2519093998708,z,0.8158889000769705,None,464.1674758999143,464.1674758999143,465.2519093998708,,,,,,,,KH_th,001,2025-03-09_20h19.12.932,MainFlow,2024.2.4,143.66061617173077,2025-03-09 20h19.32.609770 +0700,
1,71,0,word/wordth0711.png,image/False/imgf71.png,120,120,0,x,0.8768593999557197,None,0,120,120,120,466.07828889996745,,,,,,,467.5666406999808,467.0670521000866,467.0727794000413,467.0727794000413,467.5600803999696,468.67894449993037,468.67894449993037,x,0.8768593999557197,None,467.5666406999808,467.5666406999808,468.67894449993037,,,,,,,,KH_th,001,2025-03-09_20h19.12.932,MainFlow,2024.2.4,143.66061617173077,2025-03-09 20h19.32.609770 +0700,
1,46,1,word/wordth0461.png,image/True/img46.png,121,121,0,z,0.8684246002230793,None,0,121,121,121,469.56791369989514,,,,,,,471.05630420008674,470.5563860000111,470.5626222998835,470.5626222998835,471.0496084999759,472.1685524000786,472.1685524000786,z,0.8684246002230793,None,471.05630420008674,471.05630420008674,472.1685524000786,,,,,,,,KH_th,001,2025-03-09_20h19.12.932,MainFlow,2024.2.4,143.66061617173077,2025-03-09 20h19.32.609770 +0700,
1,10,1,word/wordth0101.png,image/True/img10.png,122,122,0,z,1.0133959001395851,None,0,122,122,122,473.04447180009447,,,,,,,474.53199040004984,474.03200170001946,474.0384406999219,474.0384406999219,474.52532549994066,475.62340809986927,475.62340809986927,z,1.0133959001395851,None,474.53199040004984,474.53199040004984,475.62340809986927,,,,,,,,KH_th,001,2025-03-09_20h19.12.932,MainFlow,2024.2.4,143.66061617173077,2025-03-09 20h19.32.609770 +0700,
1,16,0,word/wordth0161.png,image/False/imgf16.png,123,123,0,x,0.9836696002166718,None,0,123,123,123,476.6444316999987,,,,,,,478.13285410008393,477.6331255999394,477.63919700006954,477.63919700006954,478.126701900037,479.2381309000775,479.2381309000775,x,0.9836696002166718,None,478.13285410008393,478.13285410008393,479.2381309000775,,,,,,,,KH_th,001,2025-03-09_20h19.12.932,MainFlow,2024.2.4,143.66061617173077,2025-03-09 20h19.32.609770 +0700,
1,15,0,word/wordth0151.png,image/False/imgf15.png,124,124,0,x,1.7956813001073897,None,0,124,124,124,480.23135120002553,,,,,,,481.7197793999221,481.2200003999751,481.2260715998709,481.2260715998709,481.71310619986616,482.81811550003476,482.81811550003476,x,1.7956813001073897,None,481.7197793999221,481.7197793999221,482.81811550003476,,,,,,,,KH_th,001,2025-03-09_20h19.12.932,MainFlow,2024.2.4,143.66061617173077,2025-03-09 20h19.32.609770 +0700,
1,59,0,word/wordth0591.png,image/False/imgf59.png,125,125,0,x,1.7073053000494838,None,0,125,125,125,484.6246489000041,,,,,,,486.11310309986584,485.61401850008406,485.618691700045,485.618691700045,486.10638089990243,487.1835149999242,487.1835149999242,x,1.7073053000494838,None,486.11310309986584,486.11310309986584,487.1835149999242,,,,,,,,KH_th,001,2025-03-09_20h19.12.932,MainFlow,2024.2.4,143.66061617173077,2025-03-09 20h19.32.609770 +0700,
1,11,0,word/wordth0111.png,image/False/imgf11.png,126,126,0,x,2.050422400003299,None,0,126,126,126,488.899758500047,,,,,,,490.38805700000376,489.8884592000395,489.8945076998789,489.8945076998789,490.3814838998951,491.5003893999383,491.5003893999383,x,2.050422400003299,None,490.38805700000376,490.38805700000376,491.5003893999383,,,,,,,,KH_th,001,2025-03-09_20h19.12.932,MainFlow,2024.2.4,143.66061617173077,2025-03-09 20h19.32.609770 +0700,
1,75,1,word/wordth0751.png,image/True/img75.png,127,127,0,z,1.139845300000161,None,0,127,127,127,493.5580032998696,,,,,,,495.0456238000188,494.54582210001536,494.55194070003927,494.55194070003927,495.0389411000069,496.1439616999123,496.1439616999123,z,1.139845300000161,None,495.0456238000188,495.0456238000188,496.1439616999123,,,,,,,,KH_th,001,2025-03-09_20h19.12.932,MainFlow,2024.2.4,143.66061617173077,2025-03-09 20h19.32.609770 +0700,
1,33,1,word/wordth0331.png,image/True/img33.png,128,128,0,z,1.0171876000240445,None,0,128,128,128,497.2970578998793,,,,,,,498.79242109996267,498.2877877999563,498.29888719995506,498.29888719995506,498.78574399999343,499.8906300000381,499.8906300000381,z,1.0171876000240445,None,498.79242109996267,498.79242109996267,499.8906300000381,,,,,,,,KH_th,001,2025-03-09_20h19.12.932,MainFlow,2024.2.4,143.66061617173077,2025-03-09 20h19.32.609770 +0700,
1,66,0,word/wordth0661.png,image/False/imgf66.png,129,129,0,x,1.3833206999115646,None,0,129,129,129,500.91873909998685,,,,,,,502.40715019986965,501.90736559988,501.91348279989325,501.91348279989325,502.4004911999218,503.5054905998986,503.5054905998986,x,1.3833206999115646,None,502.40715019986965,502.40715019986965,503.5054905998986,,,,,,,,KH_th,001,2025-03-09_20h19.12.932,MainFlow,2024.2.4,143.66061617173077,2025-03-09 20h19.32.609770 +0700,
1,38,1,word/wordth0381.png,image/True/img38.png,130,130,0,z,0.9121872000396252,None,0,130,130,130,504.9018927998841,,,,,,,506.3972656999249,505.89309550006874,505.9036655998789,505.9036655998789,506.3904543998651,507.4886379998643,507.4886379998643,z,0.9121872000396252,None,506.3972656999249,506.3972656999249,507.4886379998643,,,,,,,,KH_th,001,2025-03-09_20h19.12.932,MainFlow,2024.2.4,143.66061617173077,2025-03-09 20h19.32.609770 +0700,
1,38,1,word/wordth0381.png,image/True/img38.png,131,131,0,z,0.3690716999117285,None,0,131,131,131,508.4123555000406,,,,,,,509.9007750998717,509.4010890999343,509.4071114999242,509.4071114999242,509.894091400085,510.98474460002035,510.98474460002035,z,0.3690716999117285,None,509.9007750998717,509.9007750998717,510.98474460002035,,,,,,,,KH_th,001,2025-03-09_20h19.12.932,MainFlow,2024.2.4,143.66061617173077,2025-03-09 20h19.32.609770 +0700,
1,63,1,word/wordth0631.png,image/True/img63.png,132,132,0,z,0.9958114000037313,None,0,132,132,132,511.3605678998865,,,,,,,512.8481652000919,512.3481854998972,512.354481899878,512.354481899878,512.8415230999235,513.9464982999489,513.9464982999489,z,0.9958114000037313,None,512.8481652000919,512.8481652000919,513.9464982999489,,,,,,,,KH_th,001,2025-03-09_20h19.12.932,MainFlow,2024.2.4,143.66061617173077,2025-03-09 20h19.32.609770 +0700,
1,33,0,word/wordth0331.png,image/False/imgf33.png,133,133,0,x,0.9430164000950754,None,0,133,133,133,514.9544389999937,,,,,,,516.4420141000301,515.942230500048,515.948349900078,515.948349900078,516.4353310998995,517.5473003999796,517.5473003999796,x,0.9430164000950754,None,516.4420141000301,516.4420141000301,517.5473003999796,,,,,,,,KH_th,001,2025-03-09_20h19.12.932,MainFlow,2024.2.4,143.66061617173077,2025-03-09 20h19.32.609770 +0700,
1,52,1,word/wordth0521.png,image/True/img52.png,134,134,0,z,0.830830299993977,None,0,134,134,134,518.4988498000894,,,,,,,519.9872478998732,519.4872143999673,519.4935739999637,519.4935739999637,519.9805512998719,521.0925274998881,521.0925274998881,z,0.830830299993977,None,519.9872478998732,519.9872478998732,521.0925274998881,,,,,,,,KH_th,001,2025-03-09_20h19.12.932,MainFlow,2024.2.4,143.66061617173077,2025-03-09 20h19.32.609770 +0700,
1,11,0,word/wordth0111.png,image/False/imgf11.png,135,135,0,z,0.833809400210157,None,0,135,135,135,521.9328133000527,,,,,,,523.4213086999953,522.9207778999116,522.9276972999796,522.9276972999796,523.4145643000957,524.5335214000661,524.5335214000661,z,0.833809400210157,None,523.4213086999953,523.4213086999953,524.5335214000661,,,,,,,,KH_th,001,2025-03-09_20h19.12.932,MainFlow,2024.2.4,143.66061617173077,2025-03-09 20h19.32.609770 +0700,
1,1,0,word/wordth0011.png,image/False/imgf01.png,136,136,0,x,1.0616813998203725,None,0,136,136,136,525.374566399958,,,,,,,526.8621869999915,526.3622922999784,526.3685298999771,526.3685298999771,526.8554863000754,527.9466325000394,527.9466325000394,x,1.0616813998203725,None,526.8621869999915,526.8621869999915,527.9466325000394,,,,,,,,KH_th,001,2025-03-09_20h19.12.932,MainFlow,2024.2.4,143.66061617173077,2025-03-09 20h19.32.609770 +0700,
1,96,0,word/wordth0961.png,image/False/imgf96.png,137,137,0,x,1.033453900134191,None,0,137,137,137,529.0163161000237,,,,,,,530.5047072998714,530.0048825000413,530.0110535998829,530.0110535998829,530.4980085000861,531.6029137999285,531.6029137999285,x,1.033453900134191,None,530.5047072998714,530.5047072998714,531.6029137999285,,,,,,,,KH_th,001,2025-03-09_20h19.12.932,MainFlow,2024.2.4,143.66061617173077,2025-03-09 20h19.32.609770 +0700,
1,57,1,word/wordth0571.png,image/True/img57.png,138,138,0,z,0.8908402998931706,None,0,138,138,138,532.6449265999254,,,,,,,534.1402572998777,533.6361928000115,533.6467259998899,533.6467259998899,534.1335883000866,535.2385340000037,535.2385340000037,z,0.8908402998931706,None,534.1402572998777,534.1402572998777,535.2385340000037,,,,,,,,KH_th,001,2025-03-09_20h19.12.932,MainFlow,2024.2.4,143.66061617173077,2025-03-09 20h19.32.609770 +0700,
1,30,1,word/wordth0301.png,image/True/img30.png,139,139,0,z,0.7510126000270247,None,0,139,139,139,536.141487200046,,,,,,,537.6299276000354,537.1302449998911,537.1359111999627,537.1359111999627,537.6232068000827,538.7143468998838,538.7143468998838,z,0.7510126000270247,None,537.6299276000354,537.6299276000354,538.7143468998838,,,,,,,,KH_th,001,2025-03-09_20h19.12.932,MainFlow,2024.2.4,143.66061617173077,2025-03-09 20h19.32.609770 +0700,
1,41,1,word/wordth0411.png,image/True/img41.png,140,140,0,z,1.1505678000394255,None,0,140,140,140,539.4788832000922,,,,,,,540.9665870000608,540.4667583000846,540.4726287999656,540.4726287999656,540.959896299988,542.0717376999091,542.0717376999091,z,1.1505678000394255,None,540.9665870000608,540.9665870000608,542.0717376999091,,,,,,,,KH_th,001,2025-03-09_20h19.12.932,MainFlow,2024.2.4,143.66061617173077,2025-03-09 20h19.32.609770 +0700,
1,50,1,word/wordth0501.png,image/True/img50.png,141,141,0,z,0.8396399999037385,None,0,141,141,141,543.2319185000379,,,,,,,544.7203661999665,544.2205113000236,544.2266651999671,544.2266651999671,544.7136385000776,545.818674299866,545.818674299866,z,0.8396399999037385,None,544.7203661999665,544.7203661999665,545.818674299866,,,,,,,,KH_th,001,2025-03-09_20h19.12.932,MainFlow,2024.2.4,143.66061617173077,2025-03-09 20h19.32.609770 +0700,
1,3,0,word/wordth0031.png,image/False/imgf03.png,142,142,0,x,0.993696500081569,None,0,142,142,142,546.6659190999344,,,,,,,548.1543409998994,547.6542569999583,547.6606797999702,547.6606797999702,548.1476614999119,549.2457125999499,549.2457125999499,x,0.993696500081569,None,548.1543409998994,548.1543409998994,549.2457125999499,,,,,,,,KH_th,001,2025-03-09_20h19.12.932,MainFlow,2024.2.4,143.66061617173077,2025-03-09 20h19.32.609770 +0700,
1,78,1,word/wordth0781.png,image/True/img78.png,143,143,0,z,0.7907411002088338,None,0,143,143,143,550.252839300083,,,,,,,551.7412696999963,551.2411642000079,551.2475874999072,551.2475874999072,551.7345982999541,552.8326300999615,552.8326300999615,z,0.7907411002088338,None,551.7412696999963,551.7412696999963,552.8326300999615,,,,,,,,KH_th,001,2025-03-09_20h19.12.932,MainFlow,2024.2.4,143.66061617173077,2025-03-09 20h19.32.609770 +0700,
1,76,0,word/wordth0761.png,image/False/imgf76.png,144,144,0,x,0.6724822001997381,None,0,144,144,144,553.6320330000017,,,,,,,555.1196204998996,554.6200514000375,554.6257297000848,554.6257297000848,555.1129375000019,556.2318458000664,556.2318458000664,x,0.6724822001997381,None,555.1196204998996,555.1196204998996,556.2318458000664,,,,,,,,KH_th,001,2025-03-09_20h19.12.932,MainFlow,2024.2.4,143.66061617173077,2025-03-09 20h19.32.609770 +0700,
1,6,1,word/wordth0061.png,image/True/img06.png,145,145,0,z,0.8593007999006659,None,0,145,145,145,556.9130947000813,,,,,,,558.4006805000827,557.9006878999062,557.9071543999016,557.9071543999016,558.3940026999917,559.4850133999716,559.4850133999716,z,0.8593007999006659,None,558.4006805000827,558.4006805000827,559.4850133999716,,,,,,,,KH_th,001,2025-03-09_20h19.12.932,MainFlow,2024.2.4,143.66061617173077,2025-03-09 20h19.32.609770 +0700,
1,31,0,word/wordth0311.png,image/False/imgf31.png,146,146,0,x,1.0161445999983698,None,0,146,146,146,560.3540550998878,,,,,,,561.8416545998771,561.3422713000327,561.3472956998739,561.3472956998739,561.835001999978,562.9121759999543,562.9121759999543,x,1.0161445999983698,None,561.8416545998771,561.8416545998771,562.9121759999543,,,,,,,,KH_th,001,2025-03-09_20h19.12.932,MainFlow,2024.2.4,143.66061617173077,2025-03-09 20h19.32.609770 +0700,
1,22,0,word/wordth0221.png,image/False/imgf22.png,147,147,0,x,0.8876132001169026,None,0,147,147,147,563.940982399974,,,,,,,565.4285575000104,564.9286559000611,564.9349076000508,564.9349076000508,565.421895199921,566.5337070000824,566.5337070000824,x,0.8876132001169026,None,565.4285575000104,565.4285575000104,566.5337070000824,,,,,,,,KH_th,001,2025-03-09_20h19.12.932,MainFlow,2024.2.4,143.66061617173077,2025-03-09 20h19.32.609770 +0700,
1,28,0,word/wordth0281.png,image/False/imgf28.png,148,148,0,x,0.8718775999732316,None,0,148,148,148,567.429802800063,,,,,,,568.9181641999166,568.4183585999999,568.4245235999115,568.4245235999115,568.9114862999413,570.0094522999134,570.0094522999134,x,0.8718775999732316,None,568.9181641999166,568.9181641999166,570.0094522999134,,,,,,,,KH_th,001,2025-03-09_20h19.12.932,MainFlow,2024.2.4,143.66061617173077,2025-03-09 20h19.32.609770 +0700,
1,57,0,word/wordth0571.png,image/False/imgf57.png,149,149,0,x,1.3890716000460088,None,0,149,149,149,570.891556999879,,,,,,,572.379981599981,571.8807206000201,571.8856033000629,571.8856033000629,572.3732886998914,573.4852539000567,573.4852539000567,x,1.3890716000460088,None,572.379981599981,572.379981599981,573.4852539000567,,,,,,,,KH_th,001,2025-03-09_20h19.12.932,MainFlow,2024.2.4,143.66061617173077,2025-03-09 20h19.32.609770 +0700,
1,7,0,word/wordth0071.png,image/False/imgf07.png,150,150,0,x,0.8397468999028206,None,0,150,150,150,574.8816555999219,,,,,,,576.3700832000468,575.8712108000182,575.8757283999585,575.8757283999585,576.3634482000489,577.4745740999933,577.4745740999933,x,0.8397468999028206,None,576.3700832000468,576.3700832000468,577.4745740999933,,,,,,,,KH_th,001,2025-03-09_20h19.12.932,MainFlow,2024.2.4,143.66061617173077,2025-03-09 20h19.32.609770 +0700,
1,56,1,word/wordth0561.png,image/True/img56.png,151,151,0,z,0.6779475999064744,None,0,151,151,151,578.3234240000602,,,,,,,579.8110094999429,579.3116313999053,579.3166465999093,579.3166465999093,579.8043541999068,580.909374800045,580.909374800045,z,0.6779475999064744,None,579.8110094999429,579.8110094999429,580.909374800045,,,,,,,,KH_th,001,2025-03-09_20h19.12.932,MainFlow,2024.2.4,143.66061617173077,2025-03-09 20h19.32.609770 +0700,
1,6,0,word/wordth0061.png,image/False/imgf06.png,152,152,0,x,0.9217691000085324,None,0,152,152,152,581.5976299000904,,,,,,,583.085150500061,582.5852097000461,582.5914636000525,582.5914636000525,583.0783820999786,584.1695483999792,584.1695483999792,x,0.9217691000085324,None,583.085150500061,583.085150500061,584.1695483999792,,,,,,,,KH_th,001,2025-03-09_20h19.12.932,MainFlow,2024.2.4,143.66061617173077,2025-03-09 20h19.32.609770 +0700,
1,36,0,word/wordth0361.png,image/False/imgf36.png,153,153,0,x,1.0933487999718636,None,0,153,153,153,585.1002217999194,,,,,,,586.5886548999697,586.0887799998745,586.0949780000374,586.0949780000374,586.5820758000482,587.6869671999011,587.6869671999011,x,1.0933487999718636,None,586.5886548999697,586.5886548999697,587.6869671999011,,,,,,,,KH_th,001,2025-03-09_20h19.12.932,MainFlow,2024.2.4,143.66061617173077,2025-03-09 20h19.32.609770 +0700,
1,79,1,word/wordth0791.png,image/True/img79.png,154,154,0,z,2.532151499995962,None,0,154,154,154,588.7914166999981,,,,,,,590.2798385000788,589.7805365999229,589.7854647999629,589.7854647999629,590.2730183000676,591.3851477999706,591.3851477999706,z,2.532151499995962,None,590.2798385000788,590.2798385000788,591.3851477999706,,,,,,,,KH_th,001,2025-03-09_20h19.12.932,MainFlow,2024.2.4,143.66061617173077,2025-03-09 20h19.32.609770 +0700,
1,52,0,word/wordth0521.png,image/False/imgf52.png,155,155,0,x,2.2770219000522047,None,0,155,155,155,593.9293325999752,,,,,,,595.4169306999538,594.9170484000351,594.9232510998845,594.9232510998845,595.4102241999935,596.5083220999222,596.5083220999222,x,2.2770219000522047,None,595.4169306999538,595.4169306999538,596.5083220999222,,,,,,,,KH_th,001,2025-03-09_20h19.12.932,MainFlow,2024.2.4,143.66061617173077,2025-03-09 20h19.32.609770 +0700,
1,18,0,word/wordth0181.png,image/False/imgf18.png,156,156,0,x,2.7781008000019938,None,0,156,156,156,598.7953530000523,,,,,,,600.282915199874,599.7836364998948,599.7886057000142,599.7886057000142,600.2762919000816,601.3882017000578,601.3882017000578,x,2.7781008000019938,None,600.282915199874,600.282915199874,601.3882017000578,,,,,,,,KH_th,001,2025-03-09_20h19.12.932,MainFlow,2024.2.4,143.66061617173077,2025-03-09 20h19.32.609770 +0700,
1,23,1,word/wordth0231.png,image/True/img23.png,157,157,0,z,0.7288165001664311,None,0,157,157,157,604.1756963999942,,,,,,,605.6632962999865,605.1635582000017,605.1693243999034,605.1693243999034,605.656654200051,606.76150709996,606.76150709996,z,0.7288165001664311,None,605.6632962999865,605.6632962999865,606.76150709996,,,,,,,,KH_th,001,2025-03-09_20h19.12.932,MainFlow,2024.2.4,143.66061617173077,2025-03-09 20h19.32.609770 +0700,
1,61,1,word/wordth0611.png,image/True/img61.png,158,158,0,z,0.8401032001711428,None,0,158,158,158,607.4984659000766,,,,,,,608.9860501000658,608.4870483998675,608.4917053000536,608.4917053000536,608.979403699981,610.0912043000571,610.0912043000571,z,0.8401032001711428,None,608.9860501000658,608.9860501000658,610.0912043000571,,,,,,,,KH_th,001,2025-03-09_20h19.12.932,MainFlow,2024.2.4,143.66061617173077,2025-03-09 20h19.32.609770 +0700,
1,44,1,word/wordth0441.png,image/True/img44.png,159,159,0,z,1.1500019000377506,None,0,159,159,159,610.9385939999484,,,,,,,612.4269981000107,611.9274434000254,611.9330513000023,611.9330513000023,612.4203673000447,613.5253574999515,613.5253574999515,z,1.1500019000377506,None,612.4269981000107,612.4269981000107,613.5253574999515,,,,,,,,KH_th,001,2025-03-09_20h19.12.932,MainFlow,2024.2.4,143.66061617173077,2025-03-09 20h19.32.609770 +0700,
1,10,1,word/wordth0101.png,image/True/img10.png,160,160,0,z,1.036292300093919,None,0,160,160,160,614.6853849000763,,,,,,,616.1738285000902,615.6740051000379,615.6802612999454,615.6802612999454,616.1670051000547,617.2720264999662,617.2720264999662,z,1.036292300093919,None,616.1738285000902,616.1738285000902,617.2720264999662,,,,,,,,KH_th,001,2025-03-09_20h19.12.932,MainFlow,2024.2.4,143.66061617173077,2025-03-09 20h19.32.609770 +0700,
1,31,1,word/wordth0311.png,image/True/img31.png,161,161,0,z,0.5135226000566036,None,0,161,161,161,618.3209710998926,,,,,,,619.809399300022,619.3105029999278,619.3150376998819,619.3150376998819,619.8027518000454,620.9147757999599,620.9147757999599,z,0.5135226000566036,None,619.809399300022,619.809399300022,620.9147757999599,,,,,,,,KH_th,001,2025-03-09_20h19.12.932,MainFlow,2024.2.4,143.66061617173077,2025-03-09 20h19.32.609770 +0700,
1,14,0,word/wordth0141.png,image/False/imgf14.png,162,162,0,x,0.9351828000508249,None,0,162,162,162,621.4360261000693,,,,,,,622.9235306000337,622.4241339000873,622.4292715999763,622.4292715999763,622.9169302999508,624.0141719998792,624.0141719998792,x,0.9351828000508249,None,622.9235306000337,622.9235306000337,624.0141719998792,,,,,,,,KH_th,001,2025-03-09_20h19.12.932,MainFlow,2024.2.4,143.66061617173077,2025-03-09 20h19.32.609770 +0700,
1,15,0,word/wordth0151.png,image/False/imgf15.png,163,163,0,x,1.6429832000285387,None,0,163,163,163,624.9596112999134,,,,,,,626.4479712999891,625.9480961998925,625.9544353999663,625.9544353999663,626.4413290000521,627.5463827000931,627.5463827000931,x,1.6429832000285387,None,626.4479712999891,626.4479712999891,627.5463827000931,,,,,,,,KH_th,001,2025-03-09_20h19.12.932,MainFlow,2024.2.4,143.66061617173077,2025-03-09 20h19.32.609770 +0700,
1,51,1,word/wordth0511.png,image/True/img51.png,164,164,0,z,1.367688899859786,None,0,164,164,164,629.1999609998893,,,,,,,630.6883431999013,630.1885154000483,630.1944009000435,630.1944009000435,630.6817701000255,631.7866364000365,631.7866364000365,z,1.367688899859786,None,630.6883431999013,630.6883431999013,631.7866364000365,,,,,,,,KH_th,001,2025-03-09_20h19.12.932,MainFlow,2024.2.4,143.66061617173077,2025-03-09 20h19.32.609770 +0700,
1,82,1,word/wordth0821.png,image/True/img82.png,165,165,0,z,1.3571507001761347,None,0,165,165,165,633.1622361000627,,,,,,,634.6506334999576,634.1504919000436,634.1570530000608,634.1570530000608,634.6439600999001,635.721159900073,635.721159900073,z,1.3571507001761347,None,634.6506334999576,634.6506334999576,635.721159900073,,,,,,,,KH_th,001,2025-03-09_20h19.12.932,MainFlow,2024.2.4,143.66061617173077,2025-03-09 20h19.32.609770 +0700,
1,27,0,word/wordth0271.png,image/False/imgf27.png,166,166,0,x,0.7017447000835091,None,0,166,166,166,637.0897623000201,,,,,,,638.5781874998938,638.0783305000514,638.0845188999083,638.0845188999083,638.5715322000906,639.6695767999627,639.6695767999627,x,0.7017447000835091,None,638.5781874998938,638.5781874998938,639.6695767999627,,,,,,,,KH_th,001,2025-03-09_20h19.12.932,MainFlow,2024.2.4,143.66061617173077,2025-03-09 20h19.32.609770 +0700,
1,78,0,word/wordth0781.png,image/False/imgf78.png,167,167,0,x,1.10873689991422,None,0,167,167,167,640.3847274000291,,,,,,,641.8731559000444,641.3733663000166,641.3794869999401,641.3794869999401,641.866474899929,642.9506248000544,642.9506248000544,x,1.10873689991422,None,641.8731559000444,641.8731559000444,642.9506248000544,,,,,,,,KH_th,001,2025-03-09_20h19.12.932,MainFlow,2024.2.4,143.66061617173077,2025-03-09 20h19.32.609770 +0700,
1,89,1,word/wordth0891.png,image/True/img89.png,168,168,0,z,0.8836250999011099,None,0,168,168,168,644.06896100007,,,,,,,645.5574060000945,645.0575987000484,645.0637199000921,645.0637199000921,645.5507563999854,646.6417032999452,646.6417032999452,z,0.8836250999011099,None,645.5574060000945,645.5574060000945,646.6417032999452,,,,,,,,KH_th,001,2025-03-09_20h19.12.932,MainFlow,2024.2.4,143.66061617173077,2025-03-09 20h19.32.609770 +0700,
1,76,1,word/wordth0761.png,image/True/img76.png,169,169,0,z,1.5956262999679893,None,0,169,169,169,647.5377253000624,,,,,,,649.0261412998661,648.5263567999937,648.5324856000952,648.5324856000952,649.0193950999528,650.1166882999241,650.1166882999241,z,1.5956262999679893,None,649.0261412998661,649.0261412998661,650.1166882999241,,,,,,,,KH_th,001,2025-03-09_20h19.12.932,MainFlow,2024.2.4,143.66061617173077,2025-03-09 20h19.32.609770 +0700,
1,17,0,word/wordth0171.png,image/False/imgf17.png,170,170,0,z,2.1091336000245064,None,0,170,170,170,651.7224751000758,,,,,,,653.2108857000712,652.711020699935,652.7173164999112,652.7173164999112,653.2041309999768,654.3161744999234,654.3161744999234,z,2.1091336000245064,None,653.2108857000712,653.2108857000712,654.3161744999234,,,,,,,,KH_th,001,2025-03-09_20h19.12.932,MainFlow,2024.2.4,143.66061617173077,2025-03-09 20h19.32.609770 +0700,
1,95,1,word/wordth0951.png,image/True/img95.png,171,171,0,z,1.702159299980849,None,0,171,171,171,656.4363521998748,,,,,,,657.9239505999722,657.4243538000155,657.4295838999096,657.4295838999096,657.917265099939,659.0361883998848,659.0361883998848,z,1.702159299980849,None,657.9239505999722,657.9239505999722,659.0361883998848,,,,,,,,KH_th,001,2025-03-09_20h19.12.932,MainFlow,2024.2.4,143.66061617173077,2025-03-09 20h19.32.609770 +0700,
1,61,0,word/wordth0611.png,image/False/imgf61.png,172,172,0,z,1.5113161001354456,None,0,172,172,172,660.7454403999727,,,,,,,662.2338183999527,661.7343834999483,661.7394437000621,661.7394437000621,662.2271096999757,663.3390200000722,663.3390200000722,z,1.5113161001354456,None,662.2338183999527,662.2338183999527,663.3390200000722,,,,,,,,KH_th,001,2025-03-09_20h19.12.932,MainFlow,2024.2.4,143.66061617173077,2025-03-09 20h19.32.609770 +0700,
1,82,1,word/wordth0821.png,image/True/img82.png,173,173,0,z,0.7757321000099182,None,0,173,173,173,664.8606112999842,,,,,,,666.3490442999173,665.8489480998833,665.8554946000222,665.8554946000222,666.3423780999146,667.4195815999992,667.4195815999992,z,0.7757321000099182,None,666.3490442999173,666.3490442999173,667.4195815999992,,,,,,,,KH_th,001,2025-03-09_20h19.12.932,MainFlow,2024.2.4,143.66061617173077,2025-03-09 20h19.32.609770 +0700,
1,14,1,word/wordth0141.png,image/True/img14.png,174,174,0,z,0.6843149000778794,None,0,174,174,174,668.2049489000347,,,,,,,669.692678600084,669.1927640999202,669.1991793999914,669.1991793999914,669.6861105000135,670.7909929000307,670.7909929000307,z,0.6843149000778794,None,669.692678600084,669.692678600084,670.7909929000307,,,,,,,,KH_th,001,2025-03-09_20h19.12.932,MainFlow,2024.2.4,143.66061617173077,2025-03-09 20h19.32.609770 +0700,
1,38,0,word/wordth0381.png,image/False/imgf38.png,175,175,0,x,1.275502200005576,None,0,175,175,175,671.4861216999125,,,,,,,672.9737277000677,672.4741201000288,672.4793515000492,672.4793515000492,672.9670474999584,674.0928062000312,674.0928062000312,x,1.275502200005576,None,672.9737277000677,672.9737277000677,674.0928062000312,,,,,,,,KH_th,001,2025-03-09_20h19.12.932,MainFlow,2024.2.4,143.66061617173077,2025-03-09 20h19.32.609770 +0700,
1,17,0,word/wordth0171.png,image/False/imgf17.png,176,176,0,z,0.808540599886328,None,0,176,176,176,675.3780938999262,,,,,,,676.8665215999354,676.366589399986,676.3728326000273,676.3728326000273,676.859846000094,677.9717939998955,677.9717939998955,z,0.808540599886328,None,676.8665215999354,676.8665215999354,677.9717939998955,,,,,,,,KH_th,001,2025-03-09_20h19.12.932,MainFlow,2024.2.4,143.66061617173077,2025-03-09 20h19.32.609770 +0700,
1,42,0,word/wordth0421.png,image/False/imgf42.png,177,177,0,x,0.8044036000501364,None,0,177,177,177,678.7912270999514,,,,,,,680.2796535000671,679.7801584999543,679.7852882000152,679.7852882000152,680.2728675999679,681.3918856999371,681.3918856999371,x,0.8044036000501364,None,680.2796535000671,680.2796535000671,681.3918856999371,,,,,,,,KH_th,001,2025-03-09_20h19.12.932,MainFlow,2024.2.4,143.66061617173077,2025-03-09 20h19.32.609770 +0700,
1,24,1,word/wordth0241.png,image/True/img24.png,178,178,0,z,1.0940125999040902,None,0,178,178,178,682.2051587998867,,,,,,,683.6927115998697,683.192780100042,683.1990932000335,683.1990932000335,683.6860623999964,684.7633139998652,684.7633139998652,z,1.0940125999040902,None,683.6927115998697,683.6927115998697,684.7633139998652,,,,,,,,KH_th,001,2025-03-09_20h19.12.932,MainFlow,2024.2.4,143.66061617173077,2025-03-09 20h19.32.609770 +0700,
1,51,1,word/wordth0511.png,image/True/img51.png,179,179,0,z,0.6148365000262856,None,0,179,179,179,685.8677610000595,,,,,,,687.3561865999363,686.8562936000526,686.862505099969,686.862505099969,687.3494907999411,688.4545183998998,688.4545183998998,z,0.6148365000262856,None,687.3561865999363,687.3561865999363,688.4545183998998,,,,,,,,KH_th,001,2025-03-09_20h19.12.932,MainFlow,2024.2.4,143.66061617173077,2025-03-09 20h19.32.609770 +0700,
1,24,0,word/wordth0241.png,image/False/imgf24.png,180,180,0,x,1.5871973999310285,None,0,180,180,180,689.0799871000927,,,,,,,690.5676979999989,690.0678264999297,690.0740415998735,690.0740415998735,690.561044299975,691.6591185000725,691.6591185000725,x,1.5871973999310285,None,690.5676979999989,690.5676979999989,691.6591185000725,,,,,,,,KH_th,001,2025-03-09_20h19.12.932,MainFlow,2024.2.4,143.66061617173077,2025-03-09 20h19.32.609770 +0700,
1,23,0,word/wordth0231.png,image/False/imgf23.png,181,181,0,x,0.9904394999612123,None,0,181,181,181,693.2579608999658,,,,,,,694.7455273000523,694.245899300091,694.2516181999817,694.2516181999817,694.738767700037,695.8638772000559,695.8638772000559,x,0.9904394999612123,None,694.7455273000523,694.7455273000523,695.8638772000559,,,,,,,,KH_th,001,2025-03-09_20h19.12.932,MainFlow,2024.2.4,143.66061617173077,2025-03-09 20h19.32.609770 +0700,
1,6,1,word/wordth0061.png,image/True/img06.png,182,182,0,x,1.1935861997772008,None,0,182,182,182,696.8648806998972,,,,,,,698.3532710999716,697.853303299984,697.8597347000614,697.8597347000614,698.3465724999551,699.437722899951,699.437722899951,x,1.1935861997772008,None,698.3532710999716,698.3532710999716,699.437722899951,,,,,,,,KH_th,001,2025-03-09_20h19.12.932,MainFlow,2024.2.4,143.66061617173077,2025-03-09 20h19.32.609770 +0700,
1,93,1,word/wordth0931.png,image/True/img93.png,183,183,0,z,1.2510277000255883,None,0,183,183,183,700.6402992000803,,,,,,,702.1279128999449,701.6281955000013,701.6339612000156,701.6339612000156,702.1212162999436,703.2122903999407,703.2122903999407,z,1.2510277000255883,None,702.1279128999449,702.1279128999449,703.2122903999407,,,,,,,,KH_th,001,2025-03-09_20h19.12.932,MainFlow,2024.2.4,143.66061617173077,2025-03-09 20h19.32.609770 +0700,
1,38,0,word/wordth0381.png,image/False/imgf38.png,184,184,0,x,0.8670000000856817,None,0,184,184,184,704.4705356000923,,,,,,,705.9580220000353,705.4584381999448,705.4644524999894,705.4644524999894,705.9514389999676,707.0773209999315,707.0773209999315,x,0.8670000000856817,None,705.9580220000353,705.9580220000353,707.0773209999315,,,,,,,,KH_th,001,2025-03-09_20h19.12.932,MainFlow,2024.2.4,143.66061617173077,2025-03-09 20h19.32.609770 +0700,
1,57,1,word/wordth0571.png,image/True/img57.png,185,185,0,z,0.8412077999673784,None,0,185,185,185,707.9523704999592,,,,,,,709.4407623000443,708.9407943999395,708.9472843999974,708.9472843999974,709.43407139997,710.5391166000627,710.5391166000627,z,0.8412077999673784,None,709.4407623000443,709.4407623000443,710.5391166000627,,,,,,,,KH_th,001,2025-03-09_20h19.12.932,MainFlow,2024.2.4,143.66061617173077,2025-03-09 20h19.32.609770 +0700,
1,40,1,word/wordth0401.png,image/True/img40.png,186,186,0,z,0.9374448000453413,None,0,186,186,186,711.3933047999162,,,,,,,712.8817076999694,712.3808651000727,712.388071199879,712.388071199879,712.8750352999195,714.0078660999425,714.0078660999425,z,0.9374448000453413,None,712.8817076999694,712.8817076999694,714.0078660999425,,,,,,,,KH_th,001,2025-03-09_20h19.12.932,MainFlow,2024.2.4,143.66061617173077,2025-03-09 20h19.32.609770 +0700,
1,50,0,word/wordth0501.png,image/False/imgf50.png,187,187,0,x,0.9579859001096338,None,0,187,187,187,714.9524701000191,,,,,,,716.4408173998818,715.9410031998996,715.9471402000636,715.9471402000636,716.4341446000617,717.5314006998669,717.5314006998669,x,0.9579859001096338,None,716.4408173998818,716.4408173998818,717.5314006998669,,,,,,,,KH_th,001,2025-03-09_20h19.12.932,MainFlow,2024.2.4,143.66061617173077,2025-03-09 20h19.32.609770 +0700,
1,66,0,word/wordth0661.png,image/False/imgf66.png,188,188,0,x,0.8419141001068056,None,0,188,188,188,718.4976673000492,,,,,,,719.9861041000113,719.485842499882,719.4925180999562,719.4925180999562,719.9794041998684,721.084413500037,721.084413500037,x,0.8419141001068056,None,719.9861041000113,719.9861041000113,721.084413500037,,,,,,,,KH_th,001,2025-03-09_20h19.12.932,MainFlow,2024.2.4,143.66061617173077,2025-03-09 20h19.32.609770 +0700,
1,44,0,word/wordth0441.png,image/False/imgf44.png,189,189,0,x,1.0390732001978904,None,0,189,189,189,721.9394115000032,,,,,,,723.4270079000853,722.9262691000476,722.9326434000395,722.9326434000395,723.4203544000629,724.5392394999508,724.5392394999508,x,1.0390732001978904,None,723.4270079000853,723.4270079000853,724.5392394999508,,,,,,,,KH_th,001,2025-03-09_20h19.12.932,MainFlow,2024.2.4,143.66061617173077,2025-03-09 20h19.32.609770 +0700,
1,75,0,word/wordth0751.png,image/False/imgf75.png,190,190,0,x,0.7154441999737173,None,0,190,190,190,725.5880934000015,,,,,,,727.0764784999192,726.5765289999545,726.5829409998842,726.5829409998842,727.0697939000092,728.167872400023,728.167872400023,x,0.7154441999737173,None,727.0764784999192,727.0764784999192,728.167872400023,,,,,,,,KH_th,001,2025-03-09_20h19.12.932,MainFlow,2024.2.4,143.66061617173077,2025-03-09 20h19.32.609770 +0700,
1,31,0,word/wordth0311.png,image/False/imgf31.png,191,191,0,x,0.626315200002864,None,0,191,191,191,728.8908031000756,,,,,,,730.378409099998,729.8785806000233,729.8847487000749,729.8847487000749,730.3717272998765,731.448994499864,731.448994499864,x,0.626315200002864,None,730.378409099998,730.378409099998,731.448994499864,,,,,,,,KH_th,001,2025-03-09_20h19.12.932,MainFlow,2024.2.4,143.66061617173077,2025-03-09 20h19.32.609770 +0700,
1,87,1,word/wordth0871.png,image/True/img87.png,192,192,0,z,0.8111015998292714,None,0,192,192,192,732.0884622999001,,,,,,,733.5760572000872,733.0761935000774,733.0823866999708,733.0823866999708,733.5693858999293,734.6812169998884,734.6812169998884,z,0.8111015998292714,None,733.5760572000872,733.5760572000872,734.6812169998884,,,,,,,,KH_th,001,2025-03-09_20h19.12.932,MainFlow,2024.2.4,143.66061617173077,2025-03-09 20h19.32.609770 +0700,
1,33,1,word/wordth0331.png,image/True/img33.png,193,193,0,z,0.7809039000421762,None,0,193,193,193,735.5015855999663,,,,,,,736.989187899977,736.4894081000239,736.4955138999503,736.4955138999503,736.9825269000139,738.0874111999292,738.0874111999292,z,0.7809039000421762,None,736.989187899977,736.989187899977,738.0874111999292,,,,,,,,KH_th,001,2025-03-09_20h19.12.932,MainFlow,2024.2.4,143.66061617173077,2025-03-09 20h19.32.609770 +0700,
1,70,0,word/wordth0701.png,image/False/imgf70.png,194,194,0,x,0.7863465000409633,None,0,194,194,194,738.8800478999037,,,,,,,740.3675595000386,739.867533700075,739.8739660999272,739.8739660999272,740.3608955000527,741.4589648998808,741.4589648998808,x,0.7863465000409633,None,740.3675595000386,740.3675595000386,741.4589648998808,,,,,,,,KH_th,001,2025-03-09_20h19.12.932,MainFlow,2024.2.4,143.66061617173077,2025-03-09 20h19.32.609770 +0700,
1,27,1,word/wordth0271.png,image/True/img27.png,195,195,0,z,0.7829276002012193,None,0,195,195,195,742.2575453999452,,,,,,,743.7459597999696,743.2460155999288,743.2522885999642,743.2522885999642,743.7392511998769,744.8303819999564,744.8303819999564,z,0.7829276002012193,None,743.7459597999696,743.7459597999696,744.8303819999564,,,,,,,,KH_th,001,2025-03-09_20h19.12.932,MainFlow,2024.2.4,143.66061617173077,2025-03-09 20h19.32.609770 +0700,
1,88,1,word/wordth0881.png,image/True/img88.png,196,196,0,z,0.8146878001280129,None,0,196,196,196,745.6228421998676,,,,,,,747.1104327000212,746.6101998998784,746.6160915999208,746.6160915999208,747.1037391000427,748.222686199937,748.222686199937,z,0.8146878001280129,None,747.1104327000212,747.1104327000212,748.222686199937,,,,,,,,KH_th,001,2025-03-09_20h19.12.932,MainFlow,2024.2.4,143.66061617173077,2025-03-09 20h19.32.609770 +0700,
1,87,0,word/wordth0871.png,image/False/imgf87.png,197,197,0,x,0.889443299965933,None,0,197,197,197,749.049869999988,,,,,,,750.5374863999896,750.037539599929,750.0438012999948,750.0438012999948,750.5306778000668,751.6288683998864,751.6288683998864,x,0.889443299965933,None,750.5374863999896,750.5374863999896,751.6288683998864,,,,,,,,KH_th,001,2025-03-09_20h19.12.932,MainFlow,2024.2.4,143.66061617173077,2025-03-09 20h19.32.609770 +0700,
1,11,1,word/wordth0111.png,image/True/img11.png,198,198,0,z,0.9139540998730808,None,0,198,198,198,752.5255901000928,,,,,,,754.0131935998797,753.5134916000534,753.5192038998939,753.5192038998939,754.0064987000078,755.1323585000355,755.1323585000355,z,0.9139540998730808,None,754.0131935998797,754.0131935998797,755.1323585000355,,,,,,,,KH_th,001,2025-03-09_20h19.12.932,MainFlow,2024.2.4,143.66061617173077,2025-03-09 20h19.32.609770 +0700,
1,61,0,word/wordth0611.png,image/False/imgf61.png,199,199,0,z,0.8714225001167506,None,0,199,199,199,756.0560560999438,,,,,,,757.5444960999303,757.0450160999317,757.050130299991,757.050130299991,757.5378065998666,758.6558872000314,758.6558872000314,z,0.8714225001167506,None,757.5444960999303,757.5444960999303,758.6558872000314,,,,,,,,KH_th,001,2025-03-09_20h19.12.932,MainFlow,2024.2.4,143.66061617173077,2025-03-09 20h19.32.609770 +0700,
1,15,1,word/wordth0151.png,image/True/img15.png,200,200,0,z,0.723938100039959,None,0,200,200,200,759.5387214999646,,,,,,,761.0271425000392,760.527734400006,760.5327949000057,760.5327949000057,761.0204672000837,762.1393724998925,762.1393724998925,z,0.723938100039959,None,761.0271425000392,761.0271425000392,762.1393724998925,,,,,,,,KH_th,001,2025-03-09_20h19.12.932,MainFlow,2024.2.4,143.66061617173077,2025-03-09 20h19.32.609770 +0700,
1,16,0,word/wordth0161.png,image/False/imgf16.png,201,201,0,x,0.8513221999164671,None,0,201,201,201,762.8754080000799,,,,,,,764.3637945998926,763.8638500000816,763.8701243000105,763.8701243000105,764.3571015000343,765.4689903999679,765.4689903999679,x,0.8513221999164671,None,764.3637945998926,764.3637945998926,765.4689903999679,,,,,,,,KH_th,001,2025-03-09_20h19.12.932,MainFlow,2024.2.4,143.66061617173077,2025-03-09 20h19.32.609770 +0700,
1,63,0,word/wordth0631.png,image/False/imgf63.png,202,202,0,z,4.797377299983054,None,0,202,202,202,766.3302543999162,,,,,,,767.8186548999511,767.3187825998757,767.3250281999353,767.3250281999353,767.8119717000518,768.9239499000832,768.9239499000832,z,4.797377299983054,None,767.8186548999511,767.8186548999511,768.9239499000832,,,,,,,,KH_th,001,2025-03-09_20h19.12.932,MainFlow,2024.2.4,143.66061617173077,2025-03-09 20h19.32.609770 +0700,
1,28,1,word/wordth0281.png,image/True/img28.png,203,203,0,z,0.9391737999394536,None,0,203,203,203,773.7343530999497,,,,,,,775.2219165998977,774.7221355999354,774.7282815999351,774.7282815999351,775.2153145000339,776.3341415000614,776.3341415000614,z,0.9391737999394536,None,775.2219165998977,775.2219165998977,776.3341415000614,,,,,,,,KH_th,001,2025-03-09_20h19.12.932,MainFlow,2024.2.4,143.66061617173077,2025-03-09 20h19.32.609770 +0700,
1,89,1,word/wordth0891.png,image/True/img89.png,204,204,0,z,0.6228599001187831,None,0,204,204,204,777.2856612999458,,,,,,,778.7741187999491,778.2742582999635,778.2803865999449,778.2803865999449,778.7674211000558,779.8514530998655,779.8514530998655,z,0.6228599001187831,None,778.7741187999491,778.7741187999491,779.8514530998655,,,,,,,,KH_th,001,2025-03-09_20h19.12.932,MainFlow,2024.2.4,143.66061617173077,2025-03-09 20h19.32.609770 +0700,
1,76,0,word/wordth0761.png,image/False/imgf76.png,205,205,0,x,0.5423826000187546,None,0,205,205,205,780.4833041999955,,,,,,,781.9717361000367,781.4723775999155,781.4773575998843,781.4773575998843,781.965129799908,783.0839583999477,783.0839583999477,x,0.5423826000187546,None,781.9717361000367,781.9717361000367,783.0839583999477,,,,,,,,KH_th,001,2025-03-09_20h19.12.932,MainFlow,2024.2.4,143.66061617173077,2025-03-09 20h19.32.609770 +0700,
1,51,0,word/wordth0511.png,image/False/imgf51.png,206,206,0,x,1.1522811001632363,None,0,206,206,206,783.6401728999335,,,,,,,785.1276465998963,784.6279031999875,784.6339700000826,784.6339700000826,785.1208566999994,786.2190379998647,786.2190379998647,x,1.1522811001632363,None,785.1276465998963,785.1276465998963,786.2190379998647,,,,,,,,KH_th,001,2025-03-09_20h19.12.932,MainFlow,2024.2.4,143.66061617173077,2025-03-09 20h19.32.609770 +0700,
1,26,0,word/wordth0261.png,image/False/imgf26.png,207,207,0,x,1.023281600093469,None,0,207,207,207,787.3790905000642,,,,,,,788.8675204999745,788.3676640000194,788.3738454999402,788.3738454999402,788.8608506000601,789.9797284998931,789.9797284998931,x,1.023281600093469,None,788.8675204999745,788.8675204999745,789.9797284998931,,,,,,,,KH_th,001,2025-03-09_20h19.12.932,MainFlow,2024.2.4,143.66061617173077,2025-03-09 20h19.32.609770 +0700,
1,16,1,word/wordth0161.png,image/True/img16.png,208,208,0,z,0.9735773999709636,None,0,208,208,208,791.01470900001,,,,,,,792.5031071000267,792.0032979999669,792.0094105000608,792.0094105000608,792.496456899913,793.6145035000518,793.6145035000518,z,0.9735773999709636,None,792.5031071000267,792.5031071000267,793.6145035000518,,,,,,,,KH_th,001,2025-03-09_20h19.12.932,MainFlow,2024.2.4,143.66061617173077,2025-03-09 20h19.32.609770 +0700,
1,64,1,word/wordth0641.png,image/True/img64.png,209,209,0,z,0.6925544999539852,None,0,209,209,209,794.6016239998862,,,,,,,796.0900127999485,795.5904005998746,795.5960413999856,795.5960413999856,796.0833546998911,797.1674925000407,797.1674925000407,z,0.6925544999539852,None,796.0900127999485,796.0900127999485,797.1674925000407,,,,,,,,KH_th,001,2025-03-09_20h19.12.932,MainFlow,2024.2.4,143.66061617173077,2025-03-09 20h19.32.609770 +0700,
1,7,1,word/wordth0071.png,image/True/img07.png,210,210,0,z,0.8935004000086337,None,0,210,210,210,797.8695990000851,,,,,,,799.3571927999146,798.857075799955,798.8636344999541,798.8636344999541,799.3505182000808,800.4555086998735,800.4555086998735,z,0.8935004000086337,None,799.3571927999146,799.3571927999146,800.4555086998735,,,,,,,,KH_th,001,2025-03-09_20h19.12.932,MainFlow,2024.2.4,143.66061617173077,2025-03-09 20h19.32.609770 +0700,
1,10,0,word/wordth0101.png,image/False/imgf10.png,211,211,0,x,1.0196588998660445,None,0,211,211,211,801.3591618998908,,,,,,,802.8467904999852,802.3467232000548,802.3532628000248,802.3532628000248,802.8401391000953,803.9373309998773,803.9373309998773,x,1.0196588998660445,None,802.8467904999852,802.8467904999852,803.9373309998773,,,,,,,,KH_th,001,2025-03-09_20h19.12.932,MainFlow,2024.2.4,143.66061617173077,2025-03-09 20h19.32.609770 +0700,
1,22,1,word/wordth0221.png,image/True/img22.png,212,212,0,z,1.5293317001778632,None,0,212,212,212,804.9661566999275,,,,,,,806.4545632998925,805.9546958000865,805.9610758998897,805.9610758998897,806.4479670000728,807.5807159000542,807.5807159000542,z,1.5293317001778632,None,806.4545632998925,806.4545632998925,807.5807159000542,,,,,,,,KH_th,001,2025-03-09_20h19.12.932,MainFlow,2024.2.4,143.66061617173077,2025-03-09 20h19.32.609770 +0700,
1,40,1,word/wordth0401.png,image/True/img40.png,213,213,0,z,0.5793626999948174,None,0,213,213,213,809.1169060999528,,,,,,,810.604509799974,810.1046476999763,810.1108826000709,810.1108826000709,810.5980728000868,811.7307007999625,811.7307007999625,z,0.5793626999948174,None,810.604509799974,810.604509799974,811.7307007999625,,,,,,,,KH_th,001,2025-03-09_20h19.12.932,MainFlow,2024.2.4,143.66061617173077,2025-03-09 20h19.32.609770 +0700,
1,57,0,word/wordth0571.png,image/False/imgf57.png,214,214,0,x,1.1405446999706328,None,0,214,214,214,812.3215186998714,,,,,,,813.8091289000586,813.3097222999204,813.31480679987,813.31480679987,813.8024335999507,814.9144431999885,814.9144431999885,x,1.1405446999706328,None,813.8091289000586,813.8091289000586,814.9144431999885,,,,,,,,KH_th,001,2025-03-09_20h19.12.932,MainFlow,2024.2.4,143.66061617173077,2025-03-09 20h19.32.609770 +0700,
1,50,1,word/wordth0501.png,image/True/img50.png,215,215,0,z,0.7367078000679612,None,0,215,215,215,816.0675323000178,,,,,,,817.5559493000619,817.0565382998902,817.0615866000298,817.0615866000298,817.5492650000378,818.6542925999966,818.6542925999966,z,0.7367078000679612,None,817.5559493000619,817.5559493000619,818.6542925999966,,,,,,,,KH_th,001,2025-03-09_20h19.12.932,MainFlow,2024.2.4,143.66061617173077,2025-03-09 20h19.32.609770 +0700,
1,64,0,word/wordth0641.png,image/False/imgf64.png,216,216,0,x,1.1088169999420643,None,0,216,216,216,819.4042223000433,,,,,,,820.8927064999007,820.3926822999492,820.3991105998866,820.3991105998866,820.8860778999515,821.9631624000613,821.9631624000613,x,1.1088169999420643,None,820.8927064999007,820.8927064999007,821.9631624000613,,,,,,,,KH_th,001,2025-03-09_20h19.12.932,MainFlow,2024.2.4,143.66061617173077,2025-03-09 20h19.32.609770 +0700,
1,42,1,word/wordth0421.png,image/True/img42.png,217,217,0,z,0.8597461001481861,None,0,217,217,217,823.0815006000921,,,,,,,824.5699299999978,824.0703225000761,824.0759463000577,824.0759463000577,824.5632231999189,825.6682480999734,825.6682480999734,z,0.8597461001481861,None,824.5699299999978,824.5699299999978,825.6682480999734,,,,,,,,KH_th,001,2025-03-09_20h19.12.932,MainFlow,2024.2.4,143.66061617173077,2025-03-09 20h19.32.609770 +0700,
1,56,0,word/wordth0561.png,image/False/imgf56.png,218,218,0,x,0.6650384999811649,None,0,218,218,218,826.5363588000182,,,,,,,828.0247774000745,827.5249381000176,827.5310998999048,827.5310998999048,828.018127999967,829.1439588000067,829.1439588000067,x,0.6650384999811649,None,828.0247774000745,828.0247774000745,829.1439588000067,,,,,,,,KH_th,001,2025-03-09_20h19.12.932,MainFlow,2024.2.4,143.66061617173077,2025-03-09 20h19.32.609770 +0700,
1,22,1,word/wordth0221.png,image/True/img22.png,219,219,0,z,0.9599734998773783,None,0,219,219,219,829.8174205999821,,,,,,,831.3057742000092,830.8051724000834,830.8121386999264,830.8121386999264,831.2991798000876,832.4250234998763,832.4250234998763,z,0.9599734998773783,None,831.3057742000092,831.3057742000092,832.4250234998763,,,,,,,,KH_th,001,2025-03-09_20h19.12.932,MainFlow,2024.2.4,143.66061617173077,2025-03-09 20h19.32.609770 +0700,
1,82,0,word/wordth0821.png,image/False/imgf82.png,220,220,0,x,0.9215905999299139,None,0,220,220,220,833.3973807999864,,,,,,,834.88566670008,834.3857797000092,834.3922160000075,834.3922160000075,834.8791173999198,835.9840681999922,835.9840681999922,x,0.9215905999299139,None,834.88566670008,834.88566670008,835.9840681999922,,,,,,,,KH_th,001,2025-03-09_20h19.12.932,MainFlow,2024.2.4,143.66061617173077,2025-03-09 20h19.32.609770 +0700,
1,54,1,word/wordth0541.png,image/True/img54.png,221,221,0,z,0.7822230998426676,None,0,221,221,221,836.9148003999144,,,,,,,838.4032328000758,837.9032650999725,837.9096146998927,837.9096146998927,838.3965302999131,839.515443299897,839.515443299897,z,0.7822230998426676,None,838.4032328000758,838.4032328000758,839.515443299897,,,,,,,,KH_th,001,2025-03-09_20h19.12.932,MainFlow,2024.2.4,143.66061617173077,2025-03-09 20h19.32.609770 +0700,
1,55,0,word/wordth0551.png,image/False/imgf55.png,222,222,0,x,1.1398503000382334,None,0,222,222,222,840.3078550999053,,,,,,,841.7954742999282,841.2955908998847,841.3019731999375,841.3019731999375,841.7888020998798,842.886820100015,842.886820100015,x,1.1398503000382334,None,841.7954742999282,841.7954742999282,842.886820100015,,,,,,,,KH_th,001,2025-03-09_20h19.12.932,MainFlow,2024.2.4,143.66061617173077,2025-03-09 20h19.32.609770 +0700,
1,48,1,word/wordth0481.png,image/True/img48.png,223,223,0,x,3.8579675001092255,None,0,223,223,223,844.0399849000387,,,,,,,845.5284259000327,845.0284210999962,845.0349095999263,845.0349095999263,845.5217301999219,846.633700999897,846.633700999897,x,3.8579675001092255,None,845.5284259000327,845.5284259000327,846.633700999897,,,,,,,,KH_th,001,2025-03-09_20h19.12.932,MainFlow,2024.2.4,143.66061617173077,2025-03-09 20h19.32.609770 +0700,
1,44,1,word/wordth0441.png,image/True/img44.png,224,224,0,z,0.8780242998618633,None,0,224,224,224,850.4985370999202,,,,,,,851.9862510000821,851.4863599999808,851.4925881999079,851.4925881999079,851.979434199864,853.0776382999029,853.0776382999029,z,0.8780242998618633,None,851.9862510000821,851.9862510000821,853.0776382999029,,,,,,,,KH_th,001,2025-03-09_20h19.12.932,MainFlow,2024.2.4,143.66061617173077,2025-03-09 20h19.32.609770 +0700,
