lang,wordid,truestate,worddir,imgdir,thisN,thisTrialN,thisRepN,key_resp.keys,key_resp.rt,key_resp.duration,trials.thisRepN,trials.thisTrialN,trials.thisN,trials.thisIndex,thisRow.t,notes,tutorial.started,tutorial.stopped,key_instruct.keys,key_instruct.rt,key_instruct.duration,plusblank.started,wordshow.started,image.started,plsuer.started,wordshow.stopped,imageword.started,key_resp.started,trials.key_resp.keys,trials.key_resp.rt,trials.key_resp.duration,image.stopped,plsuer.stopped,plusblank.stopped,ending.started,text_3.started,ending_key.started,ending.stopped,ending_key.keys,ending_key.rt,ending_key.duration,participant,session,date,expName,psychopyVersion,frameRate,expStart,
,,,,,,,,,,,,,,,,,0.003278899996075779,2.1948669999983395,space,2.159933799994178,None,,,,,,,,,,,,,,,,,,,,,KN_en,001,2025-03-11_23h35.32.166,MainFlow,2024.2.4,143.76801591709165,2025-03-11 23h35.45.627054 +0700,
2,87,0,word/worden0871.png,image/False/imgf87.png,0,0,0,z,0.3346739999979036,None,0,0,0,0,2.2503339999966556,,,,,,,3.707051199991838,3.1974339000007603,3.222079200000735,3.222079200000735,3.7006789000006393,4.857455899997149,4.857455899997149,z,0.3346739999979036,None,,,,,,,,,,,KN_en,001,2025-03-11_23h35.32.166,MainFlow,2024.2.4,143.76801591709165,2025-03-11 23h35.45.627054 +0700,
2,93,0,word/worden0931.png,image/False/imgf93.png,1,1,0,x,0.6553329000016674,None,0,1,1,1,5.199830699988524,,,,,,,6.6857196999917505,6.18949689999863,6.192547499987995,6.192547499987995,6.679985800001305,7.791016199989826,7.791016199989826,x,0.6553329000016674,None,6.6857196999917505,6.6857196999917505,7.791016199989826,,,,,,,,KN_en,001,2025-03-11_23h35.32.166,MainFlow,2024.2.4,143.76801591709165,2025-03-11 23h35.45.627054 +0700,
2,23,0,word/worden0231.png,image/False/imgf23.png,2,2,0,x,0.5011380000069039,None,0,2,2,2,8.458973100001458,,,,,,,9.956526900001336,9.462346999993315,9.466299099993194,9.466299099993194,9.951477099995827,11.108782299997984,11.108782299997984,x,0.5011380000069039,None,9.956526900001336,9.956526900001336,11.108782299997984,,,,,,,,KN_en,001,2025-03-11_23h35.32.166,MainFlow,2024.2.4,143.76801591709165,2025-03-11 23h35.45.627054 +0700,
2,10,1,word/worden0101.png,image/True/img10.png,3,3,0,z,0.5101675999903819,None,0,3,3,3,11.616725100000622,,,,,,,13.121858999991673,12.623801699999603,12.62732899999537,12.62732899999537,13.11535379999259,14.227284699998563,14.227284699998563,z,0.5101675999903819,None,,,12.62732899999537,,,,,,,,KN_en,001,2025-03-11_23h35.32.166,MainFlow,2024.2.4,143.76801591709165,2025-03-11 23h35.45.627054 +0700,
2,50,0,word/worden0501.png,image/False/imgf50.png,4,4,0,x,0.3392560000065714,None,0,4,4,4,14.746603399995365,,,,,,,16.24653249999392,15.751371599995764,15.755173500001547,15.755173500001547,16.240736599997035,17.33539419999579,17.33539419999579,x,0.3392560000065714,None,16.24653249999392,16.24653249999392,,,,,,,,,KN_en,001,2025-03-11_23h35.32.166,MainFlow,2024.2.4,143.76801591709165,2025-03-11 23h35.45.627054 +0700,
2,33,1,word/worden0331.png,image/True/img33.png,5,5,0,z,0.33668890000262763,None,0,5,5,5,17.68386659999669,,,,,,,19.183936699992046,18.684568899989245,18.68877119998797,18.68877119998797,19.17842519999249,20.297104699988267,20.297104699988267,z,0.33668890000262763,None,19.183936699992046,19.183936699992046,,,,,,,,,KN_en,001,2025-03-11_23h35.32.166,MainFlow,2024.2.4,143.76801591709165,2025-03-11 23h35.45.627054 +0700,
2,95,0,word/worden0951.png,image/False/imgf95.png,6,6,0,x,0.39753360000031535,None,0,6,6,6,20.64525629999116,,,,,,,22.141980399988825,21.646364699990954,21.651142699993216,21.651142699993216,22.13652390000061,23.262077099992894,23.262077099992894,x,0.39753360000031535,None,22.141980399988825,22.141980399988825,23.262077099992894,,,,,,,,KN_en,001,2025-03-11_23h35.32.166,MainFlow,2024.2.4,143.76801591709165,2025-03-11 23h35.45.627054 +0700,
2,7,0,word/worden0071.png,image/False/imgf07.png,7,7,0,x,0.4130823000014061,None,0,7,7,7,23.669409900001483,,,,,,,25.154370199990808,24.659108499996364,24.662101800000528,24.662101800000528,25.14884749999328,26.261616099989624,26.261616099989624,x,0.4130823000014061,None,25.154370199990808,25.154370199990808,26.261616099989624,,,,,,,,KN_en,001,2025-03-11_23h35.32.166,MainFlow,2024.2.4,143.76801591709165,2025-03-11 23h35.45.627054 +0700,
2,28,1,word/worden0281.png,image/True/img28.png,8,8,0,z,0.43545910000102594,None,0,8,8,8,26.681695899998886,,,,,,,28.174649299995508,27.681670499994652,27.684423599988804,27.684423599988804,28.168736399995396,29.3108152999921,29.3108152999921,z,0.43545910000102594,None,28.174649299995508,28.174649299995508,29.3108152999921,,,,,,,,KN_en,001,2025-03-11_23h35.32.166,MainFlow,2024.2.4,143.76801591709165,2025-03-11 23h35.45.627054 +0700,
2,38,1,word/worden0381.png,image/True/img38.png,9,9,0,z,0.3659237999963807,None,0,9,9,9,29.757422199996654,,,,,,,31.257323500001803,30.75921269999526,30.762754600000335,30.762754600000335,31.251323299991782,32.35844909999287,32.35844909999287,z,0.3659237999963807,None,31.257323500001803,31.257323500001803,,,,,,,,,KN_en,001,2025-03-11_23h35.32.166,MainFlow,2024.2.4,143.76801591709165,2025-03-11 23h35.45.627054 +0700,
2,33,0,word/worden0331.png,image/False/imgf33.png,10,10,0,x,0.31553829999757,None,0,10,10,10,32.736161699998775,,,,,,,34.228951199998846,33.73237469999003,33.73567739999271,33.73567739999271,34.223251899995375,35.34793629999331,35.34793629999331,x,0.31553829999757,None,34.228951199998846,34.228951199998846,35.34793629999331,,,,,,,,KN_en,001,2025-03-11_23h35.32.166,MainFlow,2024.2.4,143.76801591709165,2025-03-11 23h35.45.627054 +0700,
2,76,1,word/worden0761.png,image/True/img76.png,11,11,0,z,0.4418346000020392,None,0,11,11,11,35.67307749998872,,,,,,,37.16589839999506,36.66842159999942,36.672027399996296,36.672027399996296,37.160247899999376,38.28446999999869,38.28446999999869,z,0.4418346000020392,None,37.16589839999506,37.16589839999506,38.28446999999869,,,,,,,,KN_en,001,2025-03-11_23h35.32.166,MainFlow,2024.2.4,143.76801591709165,2025-03-11 23h35.45.627054 +0700,
2,75,0,word/worden0751.png,image/False/imgf75.png,12,12,0,x,0.4873538000101689,None,0,12,12,12,38.734944700001506,,,,,,,40.22801389999222,39.732783200000995,39.73625779998838,39.73625779998838,40.22200409999641,41.33203589999175,41.33203589999175,x,0.4873538000101689,None,40.22801389999222,40.22801389999222,41.33203589999175,,,,,,,,KN_en,001,2025-03-11_23h35.32.166,MainFlow,2024.2.4,143.76801591709165,2025-03-11 23h35.45.627054 +0700,
2,7,1,word/worden0071.png,image/True/img07.png,13,13,0,z,0.48962089999986347,None,0,13,13,13,41.83145479999075,,,,,,,43.317434899989166,42.82408099999884,42.82742259999213,42.82742259999213,43.31170979999297,44.44106169999577,44.44106169999577,z,0.48962089999986347,None,43.317434899989166,43.317434899989166,44.44106169999577,,,,,,,,KN_en,001,2025-03-11_23h35.32.166,MainFlow,2024.2.4,143.76801591709165,2025-03-11 23h35.45.627054 +0700,
2,51,1,word/worden0511.png,image/True/img51.png,14,14,0,z,0.6109061000024667,None,0,14,14,14,44.94300489999296,,,,,,,46.44203989999369,45.94625829999859,45.94998320000013,45.94998320000013,46.43585369999346,47.56116939999629,47.56116939999629,z,0.6109061000024667,None,46.44203989999369,46.44203989999369,47.56116939999629,,,,,,,,KN_en,001,2025-03-11_23h35.32.166,MainFlow,2024.2.4,143.76801591709165,2025-03-11 23h35.45.627054 +0700,
2,59,0,word/worden0591.png,image/False/imgf59.png,15,15,0,x,0.4741121000115527,None,0,15,15,15,48.18070019999868,,,,,,,49.67856000000029,49.18150109999988,49.18625859999156,49.18625859999156,49.67338519998884,50.750727599996026,50.750727599996026,x,0.4741121000115527,None,49.67856000000029,49.67856000000029,50.750727599996026,,,,,,,,KN_en,001,2025-03-11_23h35.32.166,MainFlow,2024.2.4,143.76801591709165,2025-03-11 23h35.45.627054 +0700,
2,54,0,word/worden0541.png,image/False/imgf54.png,16,16,0,x,0.3693468999990728,None,0,16,16,16,51.23339679998753,,,,,,,52.72656840000127,52.22765439999057,52.23232329999155,52.23232329999155,52.72143309999956,53.846538099998725,53.846538099998725,x,0.3693468999990728,None,52.72656840000127,52.72656840000127,53.846538099998725,,,,,,,,KN_en,001,2025-03-11_23h35.32.166,MainFlow,2024.2.4,143.76801591709165,2025-03-11 23h35.45.627054 +0700,
2,6,1,word/worden0061.png,image/True/img06.png,17,17,0,z,0.3160736999998335,None,0,17,17,17,54.22496949999186,,,,,,,55.71782720000192,55.22466529998928,55.22827839999809,55.22827839999809,55.71194559999276,56.813283099996625,56.813283099996625,z,0.3160736999998335,None,55.71782720000192,55.71782720000192,56.813283099996625,,,,,,,,KN_en,001,2025-03-11_23h35.32.166,MainFlow,2024.2.4,143.76801591709165,2025-03-11 23h35.45.627054 +0700,
2,41,1,word/worden0411.png,image/True/img41.png,18,18,0,z,0.46241510000254493,None,0,18,18,18,57.142233199992916,,,,,,,58.63432440000179,58.13603889998922,58.13971350000065,58.13971350000065,58.628537699987646,59.76746039999125,59.76746039999125,z,0.46241510000254493,None,58.63432440000179,58.63432440000179,59.76746039999125,,,,,,,,KN_en,001,2025-03-11_23h35.32.166,MainFlow,2024.2.4,143.76801591709165,2025-03-11 23h35.45.627054 +0700,
2,42,0,word/worden0421.png,image/False/imgf42.png,19,19,0,x,0.37578499999654014,None,0,19,19,19,60.23991849999584,,,,,,,61.730527699997765,61.2369835999998,61.241620299988426,61.241620299988426,61.72468449998996,62.85904169999412,62.85904169999412,x,0.37578499999654014,None,61.730527699997765,61.730527699997765,62.85904169999412,,,,,,,,KN_en,001,2025-03-11_23h35.32.166,MainFlow,2024.2.4,143.76801591709165,2025-03-11 23h35.45.627054 +0700,
2,64,0,word/worden0641.png,image/False/imgf64.png,20,20,0,x,0.5391817999916384,None,0,20,20,20,63.2440770999965,,,,,,,64.743962499997,64.24958569998853,64.25337520000176,64.25337520000176,64.7388132999913,65.81821859999036,65.81821859999036,x,0.5391817999916384,None,64.743962499997,64.743962499997,,,,,,,,,KN_en,001,2025-03-11_23h35.32.166,MainFlow,2024.2.4,143.76801591709165,2025-03-11 23h35.45.627054 +0700,
2,96,1,word/worden0961.png,image/True/img96.png,21,21,0,z,0.4258387999871047,None,0,21,21,21,66.36847200000193,,,,,,,67.8614041999972,67.3646982999926,67.367883599989,67.367883599989,67.8557759999967,68.9874020999996,68.9874020999996,z,0.4258387999871047,None,67.8614041999972,67.8614041999972,68.9874020999996,,,,,,,,KN_en,001,2025-03-11_23h35.32.166,MainFlow,2024.2.4,143.76801591709165,2025-03-11 23h35.45.627054 +0700,
2,76,0,word/worden0761.png,image/False/imgf76.png,22,22,0,x,0.5525192000059178,None,0,22,22,22,69.42355870000029,,,,,,,70.91675999999279,70.41835779999383,70.42149929999141,70.42149929999141,70.91165609999734,72.05610859999433,72.05610859999433,x,0.5525192000059178,None,70.91675999999279,70.91675999999279,72.05610859999433,,,,,,,,KN_en,001,2025-03-11_23h35.32.166,MainFlow,2024.2.4,143.76801591709165,2025-03-11 23h35.45.627054 +0700,
2,17,1,word/worden0171.png,image/True/img17.png,23,23,0,z,0.4711115000100108,None,0,23,23,23,72.61784189999162,,,,,,,74.1101811999979,73.61278820000007,73.61616739998863,73.61616739998863,74.1048649000004,75.22931640000024,75.22931640000024,z,0.4711115000100108,None,74.1101811999979,74.1101811999979,75.22931640000024,,,,,,,,KN_en,001,2025-03-11_23h35.32.166,MainFlow,2024.2.4,143.76801591709165,2025-03-11 23h35.45.627054 +0700,
2,6,1,word/worden0061.png,image/True/img06.png,24,24,0,z,0.38210950000211596,None,0,24,24,24,75.70687660000112,,,,,,,77.20704239999759,76.70831879999605,76.71195729999454,76.71195729999454,77.20181559999764,78.29828799999086,78.29828799999086,z,0.38210950000211596,None,77.20704239999759,77.20704239999759,,,,,,,,,KN_en,001,2025-03-11_23h35.32.166,MainFlow,2024.2.4,143.76801591709165,2025-03-11 23h35.45.627054 +0700,
2,88,1,word/worden0881.png,image/True/img88.png,25,25,0,z,0.2955126000015298,None,0,25,25,25,78.69246109999949,,,,,,,80.17831109999679,79.67941549999523,79.68207729999267,79.68207729999267,80.16539069999999,81.30910739999672,81.30910739999672,z,0.2955126000015298,None,80.17131569999037,80.17131569999037,81.30910739999672,,,,,,,,KN_en,001,2025-03-11_23h35.32.166,MainFlow,2024.2.4,143.76801591709165,2025-03-11 23h35.45.627054 +0700,
2,44,1,word/worden0441.png,image/True/img44.png,26,26,0,z,0.32344670000020415,None,0,26,26,26,81.61575519999315,,,,,,,83.1082669999887,82.61176829999022,82.61505759999272,82.61505759999272,83.10233899999002,84.21636769999168,84.21636769999168,z,0.32344670000020415,None,83.1082669999887,83.1082669999887,84.21636769999168,,,,,,,,KN_en,001,2025-03-11_23h35.32.166,MainFlow,2024.2.4,143.76801591709165,2025-03-11 23h35.45.627054 +0700,
2,27,0,word/worden0271.png,image/False/imgf27.png,27,27,0,x,0.6646301000000676,None,0,27,27,27,84.55234309998923,,,,,,,86.04534689999127,85.55076569999801,85.55421899999783,85.55421899999783,86.03989010000078,87.14335759999813,87.14335759999813,x,0.6646301000000676,None,86.04534689999127,86.04534689999127,87.14335759999813,,,,,,,,KN_en,001,2025-03-11_23h35.32.166,MainFlow,2024.2.4,143.76801591709165,2025-03-11 23h35.45.627054 +0700,
2,14,0,word/worden0141.png,image/False/imgf14.png,28,28,0,x,0.4570016000070609,None,0,28,28,28,87.81562470000063,,,,,,,89.30872869999439,88.80995809999877,88.81313919999229,88.81313919999229,89.30342849998851,90.42479150000145,90.42479150000145,x,0.4570016000070609,None,89.30872869999439,89.30872869999439,90.42479150000145,,,,,,,,KN_en,001,2025-03-11_23h35.32.166,MainFlow,2024.2.4,143.76801591709165,2025-03-11 23h35.45.627054 +0700,
2,40,0,word/worden0401.png,image/False/imgf40.png,29,29,0,x,0.373744299999089,None,0,29,29,29,90.8916567999986,,,,,,,92.38469979999354,91.89060400000017,91.8943614000018,91.8943614000018,92.37897639999574,93.50708939999458,93.50708939999458,x,0.373744299999089,None,92.38469979999354,92.38469979999354,93.50708939999458,,,,,,,,KN_en,001,2025-03-11_23h35.32.166,MainFlow,2024.2.4,143.76801591709165,2025-03-11 23h35.45.627054 +0700,
2,1,0,word/worden0011.png,image/False/imgf01.png,30,30,0,x,0.6185813000047347,None,0,30,30,30,93.89386389999709,,,,,,,95.38487029999669,94.89031829999294,94.89449500000046,94.89449500000046,95.37983749998966,96.47359609999694,96.47359609999694,x,0.6185813000047347,None,95.38487029999669,95.38487029999669,96.47359609999694,,,,,,,,KN_en,001,2025-03-11_23h35.32.166,MainFlow,2024.2.4,143.76801591709165,2025-03-11 23h35.45.627054 +0700,
2,3,0,word/worden0031.png,image/False/imgf03.png,31,31,0,x,0.4391506000101799,None,0,31,31,31,97.0994631999929,,,,,,,98.59944839999662,98.09976659998938,98.10452379999333,98.10452379999333,98.59411399999226,99.70590739999898,99.70590739999898,x,0.4391506000101799,None,98.59944839999662,98.59944839999662,,,,,,,,,KN_en,001,2025-03-11_23h35.32.166,MainFlow,2024.2.4,143.76801591709165,2025-03-11 23h35.45.627054 +0700,
2,57,1,word/worden0571.png,image/True/img57.png,32,32,0,z,0.4282760999922175,None,0,32,32,32,100.15454909999971,,,,,,,101.6472541999974,101.15050759998849,101.15521679999074,101.15521679999074,101.6416615999915,102.77861719999055,102.77861719999055,z,0.4282760999922175,None,101.6472541999974,101.6472541999974,102.77861719999055,,,,,,,,KN_en,001,2025-03-11_23h35.32.166,MainFlow,2024.2.4,143.76801591709165,2025-03-11 23h35.45.627054 +0700,
2,88,0,word/worden0881.png,image/False/imgf88.png,33,33,0,x,0.4085745000047609,None,0,33,33,33,103.21852489998855,,,,,,,104.71506550000049,104.22197299999243,104.22524719999637,104.22524719999637,104.70894659998885,105.85002309999254,105.85002309999254,x,0.4085745000047609,None,104.71506550000049,104.71506550000049,105.85002309999254,,,,,,,,KN_en,001,2025-03-11_23h35.32.166,MainFlow,2024.2.4,143.76801591709165,2025-03-11 23h35.45.627054 +0700,
2,52,0,word/worden0521.png,image/False/imgf52.png,34,34,0,x,0.47295980001217686,None,0,34,34,34,106.27046169999812,,,,,,,107.7701980999991,107.2713165999885,107.27477499999804,107.27477499999804,107.76440559999901,108.87738109999918,108.87738109999918,x,0.47295980001217686,None,107.7701980999991,107.7701980999991,,,,,,,,,KN_en,001,2025-03-11_23h35.32.166,MainFlow,2024.2.4,143.76801591709165,2025-03-11 23h35.45.627054 +0700,
2,50,0,word/worden0501.png,image/False/imgf50.png,35,35,0,x,0.43336060000001453,None,0,35,35,35,109.36011719999078,,,,,,,110.85286780000024,110.35726619999332,110.36091289999604,110.36091289999604,110.84709109998948,111.97093089998816,111.97093089998816,x,0.43336060000001453,None,110.85286780000024,110.85286780000024,111.97093089998816,,,,,,,,KN_en,001,2025-03-11_23h35.32.166,MainFlow,2024.2.4,143.76801591709165,2025-03-11 23h35.45.627054 +0700,
2,78,1,word/worden0781.png,image/True/img78.png,36,36,0,z,0.4094681999995373,None,0,36,36,36,112.41664239999955,,,,,,,113.91516939998837,113.41765479999594,113.42105589999119,113.42105589999119,113.90992369999003,115.02964470000006,115.02964470000006,z,0.4094681999995373,None,113.91516939998837,113.91516939998837,115.02964470000006,,,,,,,,KN_en,001,2025-03-11_23h35.32.166,MainFlow,2024.2.4,143.76801591709165,2025-03-11 23h35.45.627054 +0700,
2,61,0,word/worden0611.png,image/False/imgf61.png,37,37,0,x,0.6372577000001911,None,0,37,37,37,115.45144379998965,,,,,,,116.9421250999876,116.44665329999407,116.45002839999506,116.45002839999506,116.9368012999912,118.06505889999971,118.06505889999971,x,0.6372577000001911,None,116.9421250999876,116.9421250999876,118.06505889999971,,,,,,,,KN_en,001,2025-03-11_23h35.32.166,MainFlow,2024.2.4,143.76801591709165,2025-03-11 23h35.45.627054 +0700,
2,36,0,word/worden0361.png,image/False/imgf36.png,38,38,0,x,0.45412139999098144,None,0,38,38,38,118.71242759999586,,,,,,,120.20526639999298,119.7111631000007,119.71441629999026,119.71441629999026,120.19925079999666,121.30302519998804,121.30302519998804,x,0.45412139999098144,None,120.20526639999298,120.20526639999298,121.30302519998804,,,,,,,,KN_en,001,2025-03-11_23h35.32.166,MainFlow,2024.2.4,143.76801591709165,2025-03-11 23h35.45.627054 +0700,
2,10,1,word/worden0101.png,image/True/img10.png,39,39,0,z,0.5663768000085838,None,0,39,39,39,121.76748589999625,,,,,,,123.26019839999208,122.76589660000172,122.7695354999887,122.7695354999887,123.25447359999816,124.37444149999646,124.37444149999646,z,0.5663768000085838,None,123.26019839999208,123.26019839999208,124.37444149999646,,,,,,,,KN_en,001,2025-03-11_23h35.32.166,MainFlow,2024.2.4,143.76801591709165,2025-03-11 23h35.45.627054 +0700,
2,75,1,word/worden0751.png,image/True/img75.png,40,40,0,z,0.373333299998194,None,0,40,40,40,124.94970869999088,,,,,,,126.43344709998928,125.93927679999615,125.94222230000014,125.94222230000014,126.4281375999999,127.54835459998867,127.54835459998867,z,0.373333299998194,None,126.43344709998928,126.43344709998928,127.54835459998867,,,,,,,,KN_en,001,2025-03-11_23h35.32.166,MainFlow,2024.2.4,143.76801591709165,2025-03-11 23h35.45.627054 +0700,
2,1,1,word/worden0011.png,image/True/img01.png,41,41,0,z,0.44899630000873003,None,0,41,41,41,127.93331809999654,,,,,,,129.42590629999177,128.92811639999854,128.93141959999048,128.93141959999048,129.4207163999963,130.55262019998918,130.55262019998918,z,0.44899630000873003,None,129.42590629999177,129.42590629999177,130.55262019998918,,,,,,,,KN_en,001,2025-03-11_23h35.32.166,MainFlow,2024.2.4,143.76801591709165,2025-03-11 23h35.45.627054 +0700,
2,37,1,word/worden0371.png,image/True/img37.png,42,42,0,z,0.3690409999981057,None,0,42,42,42,131.00881069999014,,,,,,,132.4948990999983,132.00079459999688,132.00396199998795,132.00396199998795,132.48917689999507,133.63436839998758,133.63436839998758,z,0.3690409999981057,None,132.4948990999983,132.4948990999983,133.63436839998758,,,,,,,,KN_en,001,2025-03-11_23h35.32.166,MainFlow,2024.2.4,143.76801591709165,2025-03-11 23h35.45.627054 +0700,
2,66,0,word/worden0661.png,image/False/imgf66.png,43,43,0,x,0.4017002000036882,None,0,43,43,43,134.01557540000067,,,,,,,135.5088662999915,135.0101910999947,135.01483539999754,135.01483539999754,135.5033015999943,136.62359649999416,136.62359649999416,x,0.4017002000036882,None,135.5088662999915,135.5088662999915,136.62359649999416,,,,,,,,KN_en,001,2025-03-11_23h35.32.166,MainFlow,2024.2.4,143.76801591709165,2025-03-11 23h35.45.627054 +0700,
2,55,1,word/worden0551.png,image/True/img55.png,44,44,0,z,0.37849909999931697,None,0,44,44,44,137.03624529999797,,,,,,,138.52217409999867,138.0233589999989,138.02742879999278,138.02742879999278,138.5165161999903,139.65599030000158,139.65599030000158,z,0.37849909999931697,None,138.52217409999867,138.52217409999867,139.65599030000158,,,,,,,,KN_en,001,2025-03-11_23h35.32.166,MainFlow,2024.2.4,143.76801591709165,2025-03-11 23h35.45.627054 +0700,
2,70,0,word/worden0701.png,image/False/imgf70.png,45,45,0,x,0.47686809999868274,None,0,45,45,45,140.04160389999743,,,,,,,141.53445880000072,141.0373421999975,141.04010249998828,141.04010249998828,141.52856669999892,142.64029469998786,142.64029469998786,x,0.47686809999868274,None,141.53445880000072,141.53445880000072,142.64029469998786,,,,,,,,KN_en,001,2025-03-11_23h35.32.166,MainFlow,2024.2.4,143.76801591709165,2025-03-11 23h35.45.627054 +0700,
2,68,0,word/worden0681.png,image/False/imgf68.png,46,46,0,x,0.42890249998890795,None,0,46,46,46,143.1243386999995,,,,,,,144.6173243999947,144.11857559999044,144.12183530000038,144.12183530000038,144.6121439999988,145.7021139999997,145.7021139999997,x,0.42890249998890795,None,144.6173243999947,144.6173243999947,145.7021139999997,,,,,,,,KN_en,001,2025-03-11_23h35.32.166,MainFlow,2024.2.4,143.76801591709165,2025-03-11 23h35.45.627054 +0700,
2,75,1,word/worden0751.png,image/True/img75.png,47,47,0,z,0.507863399994676,None,0,47,47,47,146.13775489998807,,,,,,,147.63065269999788,147.13254429999506,147.13593889999902,147.13593889999902,147.62530909999623,148.73770289999084,148.73770289999084,z,0.507863399994676,None,147.63065269999788,147.63065269999788,148.73770289999084,,,,,,,,KN_en,001,2025-03-11_23h35.32.166,MainFlow,2024.2.4,143.76801591709165,2025-03-11 23h35.45.627054 +0700,
2,38,1,word/worden0381.png,image/True/img38.png,48,48,0,z,0.3632440000073984,None,0,48,48,48,149.25511169999663,,,,,,,150.74826169999142,150.2527618999884,150.25638900000195,150.25638900000195,150.74305189998995,151.85355879999406,151.85355879999406,z,0.3632440000073984,None,150.74826169999142,150.74826169999142,151.85355879999406,,,,,,,,KN_en,001,2025-03-11_23h35.32.166,MainFlow,2024.2.4,143.76801591709165,2025-03-11 23h35.45.627054 +0700,
2,42,1,word/worden0421.png,image/True/img42.png,49,49,0,z,0.3511010000074748,None,0,49,49,49,152.22668159999012,,,,,,,153.73370199999772,153.23690519999946,153.2405493999977,153.2405493999977,153.72727559998748,154.8429929999984,154.8429929999984,z,0.3511010000074748,None,,,153.2405493999977,,,,,,,,KN_en,001,2025-03-11_23h35.32.166,MainFlow,2024.2.4,143.76801591709165,2025-03-11 23h35.45.627054 +0700,
2,11,0,word/worden0111.png,image/False/imgf11.png,50,50,0,x,0.4389984000008553,None,0,50,50,50,155.20536110000103,,,,,,,156.6982968999946,156.19956899998942,156.20277329999954,156.20277329999954,156.69305509999685,157.83745839999756,157.83745839999756,x,0.4389984000008553,None,156.6982968999946,156.6982968999946,157.83745839999756,,,,,,,,KN_en,001,2025-03-11_23h35.32.166,MainFlow,2024.2.4,143.76801591709165,2025-03-11 23h35.45.627054 +0700,
2,41,0,word/worden0411.png,image/False/imgf41.png,51,51,0,x,0.2891772000002675,None,0,51,51,51,158.28805009998905,,,,,,,159.78102429999853,159.28564429999096,159.28892369999085,159.28892369999085,159.77577789999486,160.87462349999987,160.87462349999987,x,0.2891772000002675,None,159.78102429999853,159.78102429999853,160.87462349999987,,,,,,,,KN_en,001,2025-03-11_23h35.32.166,MainFlow,2024.2.4,143.76801591709165,2025-03-11 23h35.45.627054 +0700,
2,82,1,word/worden0821.png,image/True/img82.png,52,52,0,z,0.37288599999737926,None,0,52,52,52,161.16955909998796,,,,,,,162.66943679998803,162.1724236000009,162.17610279998917,162.17610279998917,162.66392369999085,163.7400256999972,163.7400256999972,z,0.37288599999737926,None,162.66943679998803,162.66943679998803,,,,,,,,,KN_en,001,2025-03-11_23h35.32.166,MainFlow,2024.2.4,143.76801591709165,2025-03-11 23h35.45.627054 +0700,
2,88,0,word/worden0881.png,image/False/imgf88.png,53,53,0,x,0.5023568000033265,None,0,53,53,53,164.12024779999047,,,,,,,165.6061786999926,165.11082209998858,165.11356169999635,165.11356169999635,165.6004927999893,166.7251810000016,166.7251810000016,x,0.5023568000033265,None,165.6061786999926,165.6061786999926,166.7251810000016,,,,,,,,KN_en,001,2025-03-11_23h35.32.166,MainFlow,2024.2.4,143.76801591709165,2025-03-11 23h35.45.627054 +0700,
2,8,1,word/worden0081.png,image/True/img08.png,54,54,0,z,0.6255544000014197,None,0,54,54,54,167.23944639999536,,,,,,,168.7236777999933,168.22483349998947,168.22753089999605,168.22753089999605,168.7108498999878,169.80887009999424,169.80887009999424,z,0.6255544000014197,None,168.71683499999926,168.71683499999926,169.80887009999424,,,,,,,,KN_en,001,2025-03-11_23h35.32.166,MainFlow,2024.2.4,143.76801591709165,2025-03-11 23h35.45.627054 +0700,
2,16,0,word/worden0161.png,image/False/imgf16.png,55,55,0,x,0.417996399992262,None,0,55,55,55,170.44562329999462,,,,,,,171.93144519999623,171.43671129998984,171.43977089998953,171.43977089998953,171.92615139999543,173.0529450999893,173.0529450999893,x,0.417996399992262,None,171.93144519999623,171.93144519999623,173.0529450999893,,,,,,,,KN_en,001,2025-03-11_23h35.32.166,MainFlow,2024.2.4,143.76801591709165,2025-03-11 23h35.45.627054 +0700,
2,10,0,word/worden0101.png,image/False/imgf10.png,56,56,0,x,0.39094689999183174,None,0,56,56,56,173.48062919999938,,,,,,,174.9726246999926,174.48059259999718,174.4834955999977,174.4834955999977,174.96738439999172,176.08484070000122,176.08484070000122,x,0.39094689999183174,None,174.9726246999926,174.9726246999926,176.08484070000122,,,,,,,,KN_en,001,2025-03-11_23h35.32.166,MainFlow,2024.2.4,143.76801591709165,2025-03-11 23h35.45.627054 +0700,
2,76,0,word/worden0761.png,image/False/imgf76.png,57,57,0,x,0.3601102999964496,None,0,57,57,57,176.48594749999756,,,,,,,177.97892599999614,177.48203369999828,177.48536079999758,177.48536079999758,177.9730614,179.1117363999947,179.1117363999947,x,0.3601102999964496,None,177.97892599999614,177.97892599999614,179.1117363999947,,,,,,,,KN_en,001,2025-03-11_23h35.32.166,MainFlow,2024.2.4,143.76801591709165,2025-03-11 23h35.45.627054 +0700,
2,42,1,word/worden0421.png,image/True/img42.png,58,58,0,z,0.41060550000111107,None,0,58,58,58,179.47835189999023,,,,,,,180.97133349999785,180.47404869999446,180.4779489999928,180.4779489999928,180.96612159999495,182.07426269999996,182.07426269999996,z,0.41060550000111107,None,180.97133349999785,180.97133349999785,182.07426269999996,,,,,,,,KN_en,001,2025-03-11_23h35.32.166,MainFlow,2024.2.4,143.76801591709165,2025-03-11 23h35.45.627054 +0700,
2,26,0,word/worden0261.png,image/False/imgf26.png,59,59,0,x,0.5195827999996254,None,0,59,59,59,182.4941325999971,,,,,,,183.9984184999921,183.49987220000185,183.50322610000148,183.50322610000148,183.99201119999634,185.1226456000004,185.1226456000004,x,0.5195827999996254,None,,,183.50322610000148,,,,,,,,KN_en,001,2025-03-11_23h35.32.166,MainFlow,2024.2.4,143.76801591709165,2025-03-11 23h35.45.627054 +0700,
2,26,1,word/worden0261.png,image/True/img26.png,60,60,0,z,0.5084530000021914,None,0,60,60,60,185.65084950000164,,,,,,,187.1441358000011,186.64999019999232,186.65355059999274,186.65355059999274,187.13789149999502,188.27383819999523,188.27383819999523,z,0.5084530000021914,None,187.1441358000011,187.1441358000011,188.27383819999523,,,,,,,,KN_en,001,2025-03-11_23h35.32.166,MainFlow,2024.2.4,143.76801591709165,2025-03-11 23h35.45.627054 +0700,
2,48,1,word/worden0481.png,image/True/img48.png,61,61,0,z,0.38902499999676365,None,0,61,61,61,188.7903840999934,,,,,,,190.28895499999635,189.79103239999677,189.79450889999862,189.79450889999862,190.28304949999438,191.41176259999338,191.41176259999338,z,0.38902499999676365,None,190.28895499999635,190.28895499999635,191.41176259999338,,,,,,,,KN_en,001,2025-03-11_23h35.32.166,MainFlow,2024.2.4,143.76801591709165,2025-03-11 23h35.45.627054 +0700,
2,71,0,word/worden0711.png,image/False/imgf71.png,62,62,0,x,0.4840888000035193,None,0,62,62,62,191.80937139999878,,,,,,,193.30214629998954,192.80330369999865,192.80661889999465,192.80661889999465,193.29629239998758,194.42944089999946,194.42944089999946,x,0.4840888000035193,None,193.30214629998954,193.30214629998954,194.42944089999946,,,,,,,,KN_en,001,2025-03-11_23h35.32.166,MainFlow,2024.2.4,143.76801591709165,2025-03-11 23h35.45.627054 +0700,
2,93,1,word/worden0931.png,image/True/img93.png,63,63,0,z,0.5997383000067202,None,0,63,63,63,194.92002269999648,,,,,,,196.4128716999985,195.91806489999,195.92163820000133,195.92163820000133,196.4076126,197.51702689999365,197.51702689999365,z,0.5997383000067202,None,196.4128716999985,196.4128716999985,197.51702689999365,,,,,,,,KN_en,001,2025-03-11_23h35.32.166,MainFlow,2024.2.4,143.76801591709165,2025-03-11 23h35.45.627054 +0700,
2,51,1,word/worden0511.png,image/True/img51.png,64,64,0,z,0.44716759999573696,None,0,64,64,64,198.12753209999937,,,,,,,199.6204391999927,199.12181079998845,199.12506259999645,199.12506259999645,199.6150198999967,200.73685839999234,200.73685839999234,z,0.44716759999573696,None,199.6204391999927,199.6204391999927,200.73685839999234,,,,,,,,KN_en,001,2025-03-11_23h35.32.166,MainFlow,2024.2.4,143.76801591709165,2025-03-11 23h35.45.627054 +0700,
2,78,0,word/worden0781.png,image/False/imgf78.png,65,65,0,x,0.36370509999687783,None,0,65,65,65,201.19221870000183,,,,,,,202.6965108000004,202.19827539999096,202.20197059999919,202.20197059999919,202.690254000001,203.7850904999941,203.7850904999941,x,0.36370509999687783,None,,,202.20197059999919,,,,,,,,KN_en,001,2025-03-11_23h35.32.166,MainFlow,2024.2.4,143.76801591709165,2025-03-11 23h35.45.627054 +0700,
2,64,0,word/worden0641.png,image/False/imgf64.png,66,66,0,x,0.48785819999466185,None,0,66,66,66,204.161105399995,,,,,,,205.65399379999144,205.16080739999597,205.16443639999488,205.16443639999488,205.64893869998923,206.7396146999963,206.7396146999963,x,0.48785819999466185,None,205.65399379999144,205.65399379999144,206.7396146999963,,,,,,,,KN_en,001,2025-03-11_23h35.32.166,MainFlow,2024.2.4,143.76801591709165,2025-03-11 23h35.45.627054 +0700,
2,68,1,word/worden0681.png,image/True/img68.png,67,67,0,z,0.6035274000023492,None,0,67,67,67,207.23686029999226,,,,,,,208.73650899999484,208.23800459998893,208.2415953000018,208.2415953000018,208.7303222999908,209.81265059999714,209.81265059999714,z,0.6035274000023492,None,208.73650899999484,208.73650899999484,,,,,,,,,KN_en,001,2025-03-11_23h35.32.166,MainFlow,2024.2.4,143.76801591709165,2025-03-11 23h35.45.627054 +0700,
2,57,0,word/worden0571.png,image/False/imgf57.png,68,68,0,x,0.41526819999853615,None,0,68,68,68,210.42541979999805,,,,,,,211.92368409999472,211.4269801999908,211.43029829999432,211.43029829999432,211.91839989999426,213.03065950000018,213.03065950000018,x,0.41526819999853615,None,211.92368409999472,211.92368409999472,213.03065950000018,,,,,,,,KN_en,001,2025-03-11_23h35.32.166,MainFlow,2024.2.4,143.76801591709165,2025-03-11 23h35.45.627054 +0700,
2,31,0,word/worden0311.png,image/False/imgf31.png,69,69,0,x,0.6248821999906795,None,0,69,69,69,213.4578157999931,,,,,,,214.9510209,214.45537739999418,214.45874119999644,214.45874119999644,214.94575249998888,216.0243843999924,216.0243843999924,x,0.6248821999906795,None,214.9510209,214.9510209,216.0243843999924,,,,,,,,KN_en,001,2025-03-11_23h35.32.166,MainFlow,2024.2.4,143.76801591709165,2025-03-11 23h35.45.627054 +0700,
2,31,0,word/worden0311.png,image/False/imgf31.png,70,70,0,x,0.4124989999982063,None,0,70,70,70,216.65865519999352,,,,,,,218.15157719999843,217.65325779998966,217.6566363999882,217.6566363999882,218.14590059999318,219.23575599999458,219.23575599999458,x,0.4124989999982063,None,218.15157719999843,218.15157719999843,219.23575599999458,,,,,,,,KN_en,001,2025-03-11_23h35.32.166,MainFlow,2024.2.4,143.76801591709165,2025-03-11 23h35.45.627054 +0700,
2,55,1,word/worden0551.png,image/True/img55.png,71,71,0,z,0.4919886999996379,None,0,71,71,71,219.6580724999949,,,,,,,221.14396889999625,220.65065379999578,220.65412189999188,220.65412189999188,221.13802149999538,222.2713880999945,222.2713880999945,z,0.4919886999996379,None,221.14396889999625,221.14396889999625,222.2713880999945,,,,,,,,KN_en,001,2025-03-11_23h35.32.166,MainFlow,2024.2.4,143.76801591709165,2025-03-11 23h35.45.627054 +0700,
2,36,1,word/worden0361.png,image/True/img36.png,72,72,0,z,0.3290640000050189,None,0,72,72,72,222.77006929999334,,,,,,,224.2752990000008,223.77767579999636,223.78134429999045,223.78134429999045,224.26904099999228,225.37009109999053,225.37009109999053,z,0.3290640000050189,None,,,223.78134429999045,,,,,,,,KN_en,001,2025-03-11_23h35.32.166,MainFlow,2024.2.4,143.76801591709165,2025-03-11 23h35.45.627054 +0700,
2,8,0,word/worden0081.png,image/False/imgf08.png,73,73,0,x,0.437082400007057,None,0,73,73,73,225.70558280000114,,,,,,,227.1983545999974,226.70061099999293,226.70409069999005,226.70409069999005,227.192541299999,228.29788369999733,228.29788369999733,x,0.437082400007057,None,227.1983545999974,227.1983545999974,228.29788369999733,,,,,,,,KN_en,001,2025-03-11_23h35.32.166,MainFlow,2024.2.4,143.76801591709165,2025-03-11 23h35.45.627054 +0700,
2,82,0,word/worden0821.png,image/False/imgf82.png,74,74,0,z,0.35073979999287985,None,0,74,74,74,228.74650349999138,,,,,,,230.23274959999253,229.73969719999877,229.7431127000018,229.7431127000018,230.22741469999892,231.3403704999946,231.3403704999946,z,0.35073979999287985,None,230.23274959999253,230.23274959999253,231.3403704999946,,,,,,,,KN_en,001,2025-03-11_23h35.32.166,MainFlow,2024.2.4,143.76801591709165,2025-03-11 23h35.45.627054 +0700,
2,14,0,word/worden0141.png,image/False/imgf14.png,75,75,0,x,0.42613340000389144,None,0,75,75,75,231.6974196999945,,,,,,,233.19731150000007,232.70158539999102,232.70512859999144,232.70512859999144,233.19147239999438,234.3107646999997,234.3107646999997,x,0.42613340000389144,None,233.19731150000007,233.19731150000007,,,,,,,,,KN_en,001,2025-03-11_23h35.32.166,MainFlow,2024.2.4,143.76801591709165,2025-03-11 23h35.45.627054 +0700,
2,71,1,word/worden0711.png,image/True/img71.png,76,76,0,z,0.3925521000055596,None,0,76,76,76,234.74556159999338,,,,,,,236.23142219999863,235.73395579999487,235.736622299999,235.736622299999,236.2262929999997,237.35252669999318,237.35252669999318,z,0.3925521000055596,None,236.23142219999863,236.23142219999863,237.35252669999318,,,,,,,,KN_en,001,2025-03-11_23h35.32.166,MainFlow,2024.2.4,143.76801591709165,2025-03-11 23h35.45.627054 +0700,
2,22,0,word/worden0221.png,image/False/imgf22.png,77,77,0,x,0.41779659999883734,None,0,77,77,77,237.75431079999544,,,,,,,239.2447542000009,238.74721789998875,238.75069539999822,238.75069539999822,239.23962100000062,240.37190139999439,240.37190139999439,x,0.41779659999883734,None,239.2447542000009,239.2447542000009,240.37190139999439,,,,,,,,KN_en,001,2025-03-11_23h35.32.166,MainFlow,2024.2.4,143.76801591709165,2025-03-11 23h35.45.627054 +0700,
2,78,1,word/worden0781.png,image/True/img78.png,78,78,0,z,0.4092693999991752,None,0,78,78,78,240.7998235999985,,,,,,,242.29288850000012,241.79448119999142,241.79782290000003,241.79782290000003,242.28697829999146,243.39830309999525,243.39830309999525,z,0.4092693999991752,None,242.29288850000012,242.29288850000012,243.39830309999525,,,,,,,,KN_en,001,2025-03-11_23h35.32.166,MainFlow,2024.2.4,143.76801591709165,2025-03-11 23h35.45.627054 +0700,
2,51,0,word/worden0511.png,image/False/imgf51.png,79,79,0,x,0.33817059999273624,None,0,79,79,79,243.82014679998974,,,,,,,245.3128740999964,244.81493739999132,244.81876119998924,244.81876119998924,245.3074668999907,246.40160299999116,246.40160299999116,x,0.33817059999273624,None,245.3128740999964,245.3128740999964,246.40160299999116,,,,,,,,KN_en,001,2025-03-11_23h35.32.166,MainFlow,2024.2.4,143.76801591709165,2025-03-11 23h35.45.627054 +0700,
2,56,1,word/worden0561.png,image/True/img56.png,80,80,0,z,0.41902279999339953,None,0,80,80,80,246.7501079999929,,,,,,,248.24294019999797,247.7454521999898,247.74887179999496,247.74887179999496,248.23775829999067,249.3470062999986,249.3470062999986,z,0.41902279999339953,None,248.24294019999797,248.24294019999797,249.3470062999986,,,,,,,,KN_en,001,2025-03-11_23h35.32.166,MainFlow,2024.2.4,143.76801591709165,2025-03-11 23h35.45.627054 +0700,
2,60,1,word/worden0601.png,image/True/img60.png,81,81,0,z,0.34103480000339914,None,0,81,81,81,249.7774008999986,,,,,,,251.277059,250.77985009999247,250.7832689999923,250.7832689999923,251.27203209999425,252.38082659999782,252.38082659999782,z,0.34103480000339914,None,251.277059,251.277059,252.38082659999782,,,,,,,,KN_en,001,2025-03-11_23h35.32.166,MainFlow,2024.2.4,143.76801591709165,2025-03-11 23h35.45.627054 +0700,
2,96,0,word/worden0961.png,image/False/imgf96.png,82,82,0,x,0.41159040000638925,None,0,82,82,82,252.7281188999914,,,,,,,254.22789249999914,253.72912219999125,253.73297079998883,253.73297079998883,254.2223406999983,255.34120450000046,255.34120450000046,x,0.41159040000638925,None,254.22789249999914,254.22789249999914,,,,,,,,,KN_en,001,2025-03-11_23h35.32.166,MainFlow,2024.2.4,143.76801591709165,2025-03-11 23h35.45.627054 +0700,
2,3,0,word/worden0031.png,image/False/imgf03.png,83,83,0,x,0.4243036999978358,None,0,83,83,83,255.76292369999283,,,,,,,257.2621067,256.7660124999966,256.7692895999935,256.7692895999935,257.256000399997,258.3761555999954,258.3761555999954,x,0.4243036999978358,None,257.2621067,257.2621067,258.3761555999954,,,,,,,,KN_en,001,2025-03-11_23h35.32.166,MainFlow,2024.2.4,143.76801591709165,2025-03-11 23h35.45.627054 +0700,
2,55,0,word/worden0551.png,image/False/imgf55.png,84,84,0,x,0.3961706999980379,None,0,84,84,84,258.81018739999854,,,,,,,260.29603569999745,259.80209209999884,259.80522749999363,259.80522749999363,260.2901111999963,261.4093553999992,261.4093553999992,x,0.3961706999980379,None,260.29603569999745,260.29603569999745,261.4093553999992,,,,,,,,KN_en,001,2025-03-11_23h35.32.166,MainFlow,2024.2.4,143.76801591709165,2025-03-11 23h35.45.627054 +0700,
2,71,1,word/worden0711.png,image/True/img71.png,85,85,0,z,0.06689599998935591,None,0,85,85,85,261.8164626999933,,,,,,,263.31640089998837,262.817781699996,262.82154730000184,262.82154730000184,263.3104939999903,264.43731249999837,264.43731249999837,z,0.06689599998935591,None,263.31640089998837,263.31640089998837,,,,,,,,,KN_en,001,2025-03-11_23h35.32.166,MainFlow,2024.2.4,143.76801591709165,2025-03-11 23h35.45.627054 +0700,
2,3,1,word/worden0031.png,image/True/img03.png,86,86,0,z,0.4167883000045549,None,0,86,86,86,264.5104643999948,,,,,,,265.9964536999905,265.50308579999546,265.5064718999929,265.5064718999929,265.990853299998,267.11549159999413,267.11549159999413,z,0.4167883000045549,None,265.9964536999905,265.9964536999905,267.11549159999413,,,,,,,,KN_en,001,2025-03-11_23h35.32.166,MainFlow,2024.2.4,143.76801591709165,2025-03-11 23h35.45.627054 +0700,
2,52,1,word/worden0521.png,image/True/img52.png,87,87,0,z,0.37490740000794176,None,0,87,87,87,267.54466559999855,,,,,,,269.0378864999948,268.54495929999393,268.54830499998934,268.54830499998934,269.03162729999167,270.16519809998863,270.16519809998863,z,0.37490740000794176,None,269.0378864999948,269.0378864999948,270.16519809998863,,,,,,,,KN_en,001,2025-03-11_23h35.32.166,MainFlow,2024.2.4,143.76801591709165,2025-03-11 23h35.45.627054 +0700,
2,95,0,word/worden0951.png,image/False/imgf95.png,88,88,0,x,0.5791443999914918,None,0,88,88,88,270.55111499999475,,,,,,,272.0368630000012,271.54282579998835,271.54553139999916,271.54553139999916,272.0310032999987,273.1595091999916,273.1595091999916,x,0.5791443999914918,None,272.0368630000012,272.0368630000012,273.1595091999916,,,,,,,,KN_en,001,2025-03-11_23h35.32.166,MainFlow,2024.2.4,143.76801591709165,2025-03-11 23h35.45.627054 +0700,
2,6,0,word/worden0061.png,image/False/imgf06.png,89,89,0,x,0.4574875999969663,None,0,89,89,89,273.74483569999575,,,,,,,275.24459509999724,274.74515459999384,274.74896309999167,274.74896309999167,275.2391481999948,276.33887129998766,276.33887129998766,x,0.4574875999969663,None,275.24459509999724,275.24459509999724,,,,,,,,,KN_en,001,2025-03-11_23h35.32.166,MainFlow,2024.2.4,143.76801591709165,2025-03-11 23h35.45.627054 +0700,
2,79,1,word/worden0791.png,image/True/img79.png,90,90,0,z,0.35929330000362825,None,0,90,90,90,276.8066531999939,,,,,,,278.30673070000194,277.80817989999196,277.81195629999274,277.81195629999274,278.3005865000014,279.421042099988,279.421042099988,z,0.35929330000362825,None,278.30673070000194,278.30673070000194,,,,,,,,,KN_en,001,2025-03-11_23h35.32.166,MainFlow,2024.2.4,143.76801591709165,2025-03-11 23h35.45.627054 +0700,
2,61,0,word/worden0611.png,image/False/imgf61.png,91,91,0,x,0.4942331999918679,None,0,91,91,91,279.792142899998,,,,,,,281.2921590999904,280.7936362999899,280.7971051999921,280.7971051999921,281.28627119999146,282.41076639998937,282.41076639998937,x,0.4942331999918679,None,281.2921590999904,281.2921590999904,,,,,,,,,KN_en,001,2025-03-11_23h35.32.166,MainFlow,2024.2.4,143.76801591709165,2025-03-11 23h35.45.627054 +0700,
2,46,0,word/worden0461.png,image/False/imgf46.png,92,92,0,x,0.4334645999915665,None,0,92,92,92,282.9167690999893,,,,,,,284.4025166999927,283.9079542999971,283.9108016999962,283.9108016999962,284.39674079998804,285.54547399999865,285.54547399999865,x,0.4334645999915665,None,284.4025166999927,284.4025166999927,285.54547399999865,,,,,,,,KN_en,001,2025-03-11_23h35.32.166,MainFlow,2024.2.4,143.76801591709165,2025-03-11 23h35.45.627054 +0700,
2,89,1,word/worden0891.png,image/True/img89.png,93,93,0,z,0.4144587000046158,None,0,93,93,93,285.98552689999633,,,,,,,287.4783527999971,286.98091209999984,286.9843390999886,286.9843390999886,287.4727821999986,288.57053159999487,288.57053159999487,z,0.4144587000046158,None,287.4783527999971,287.4783527999971,288.57053159999487,,,,,,,,KN_en,001,2025-03-11_23h35.32.166,MainFlow,2024.2.4,143.76801591709165,2025-03-11 23h35.45.627054 +0700,
2,26,0,word/worden0261.png,image/False/imgf26.png,94,94,0,x,0.571909999998752,None,0,94,94,94,288.9948020000011,,,,,,,290.48473509999167,289.9867438999936,289.9901620000019,289.9901620000019,290.47915539999667,291.61825839999074,291.61825839999074,x,0.571909999998752,None,290.48473509999167,290.48473509999167,291.61825839999074,,,,,,,,KN_en,001,2025-03-11_23h35.32.166,MainFlow,2024.2.4,143.76801591709165,2025-03-11 23h35.45.627054 +0700,
2,44,0,word/worden0441.png,image/False/imgf44.png,95,95,0,x,0.35330879999673925,None,0,95,95,95,292.1995501999918,,,,,,,293.6923550999927,293.1969393999898,293.2006432999915,293.2006432999915,293.6865084000019,294.8328793999972,294.8328793999972,x,0.35330879999673925,None,293.6923550999927,293.6923550999927,294.8328793999972,,,,,,,,KN_en,001,2025-03-11_23h35.32.166,MainFlow,2024.2.4,143.76801591709165,2025-03-11 23h35.45.627054 +0700,
2,82,1,word/worden0821.png,image/True/img82.png,96,96,0,z,0.3864854999992531,None,0,96,96,96,295.1922504999966,,,,,,,296.67785469999944,296.18499729999166,296.1877958999976,296.1877958999976,296.67195679999713,297.75487219999195,297.75487219999195,z,0.3864854999992531,None,296.67785469999944,296.67785469999944,297.75487219999195,,,,,,,,KN_en,001,2025-03-11_23h35.32.166,MainFlow,2024.2.4,143.76801591709165,2025-03-11 23h35.45.627054 +0700,
2,16,1,word/worden0161.png,image/True/img16.png,97,97,0,z,0.3966190000064671,None,0,97,97,97,298.1499218999961,,,,,,,299.64258449999033,299.1495078000007,299.1530703999888,299.1530703999888,299.6370244999998,300.7805818999914,300.7805818999914,z,0.3966190000064671,None,299.64258449999033,299.64258449999033,300.7805818999914,,,,,,,,KN_en,001,2025-03-11_23h35.32.166,MainFlow,2024.2.4,143.76801591709165,2025-03-11 23h35.45.627054 +0700,
2,20,1,word/worden0201.png,image/True/img20.png,98,98,0,z,0.3809818000008818,None,0,98,98,98,301.18390889999864,,,,,,,302.66987489999156,302.17489899999055,302.1777873999963,302.1777873999963,302.6639626999968,303.7961837999901,303.7961837999901,z,0.3809818000008818,None,302.66987489999156,302.66987489999156,303.7961837999901,,,,,,,,KN_en,001,2025-03-11_23h35.32.166,MainFlow,2024.2.4,143.76801591709165,2025-03-11 23h35.45.627054 +0700,
2,20,1,word/worden0201.png,image/True/img20.png,99,99,0,z,0.29314359999261796,None,0,99,99,99,304.18333919999714,,,,,,,305.68311859999085,305.1843366999965,305.1877266999945,305.1877266999945,305.67715099999623,306.80519379999896,306.80519379999896,z,0.29314359999261796,None,305.68311859999085,305.68311859999085,,,,,,,,,KN_en,001,2025-03-11_23h35.32.166,MainFlow,2024.2.4,143.76801591709165,2025-03-11 23h35.45.627054 +0700,
2,96,1,word/worden0961.png,image/True/img96.png,100,100,0,z,0.3370156000019051,None,0,100,100,100,307.10718349998933,,,,,,,308.5993938999891,308.1060423000017,308.10929799999576,308.10929799999576,308.5940760999947,309.7254511999927,309.7254511999927,z,0.3370156000019051,None,308.5993938999891,308.5993938999891,309.7254511999927,,,,,,,,KN_en,001,2025-03-11_23h35.32.166,MainFlow,2024.2.4,143.76801591709165,2025-03-11 23h35.45.627054 +0700,
2,64,1,word/worden0641.png,image/True/img64.png,101,101,0,z,0.331915000002482,None,0,101,101,101,310.0710560000007,,,,,,,311.557023699992,311.05819840000186,311.0611072999891,311.0611072999891,311.54437170000165,312.6477004999906,312.6477004999906,z,0.331915000002482,None,311.5500461999909,311.5500461999909,312.6477004999906,,,,,,,,KN_en,001,2025-03-11_23h35.32.166,MainFlow,2024.2.4,143.76801591709165,2025-03-11 23h35.45.627054 +0700,
2,78,0,word/worden0781.png,image/False/imgf78.png,102,102,0,x,0.3711887000099523,None,0,102,102,102,312.98729739998817,,,,,,,314.4803308999981,313.98362030000135,313.9872816999996,313.9872816999996,314.4750181999989,315.5704713999876,315.5704713999876,x,0.3711887000099523,None,314.4803308999981,314.4803308999981,315.5704713999876,,,,,,,,KN_en,001,2025-03-11_23h35.32.166,MainFlow,2024.2.4,143.76801591709165,2025-03-11 23h35.45.627054 +0700,
2,20,0,word/worden0201.png,image/False/imgf20.png,103,103,0,x,0.35072740000032354,None,0,103,103,103,315.95417050000106,,,,,,,317.4447099999961,316.94710739998845,316.95037690000026,316.95037690000026,317.43929739999294,318.59085159999086,318.59085159999086,x,0.35072740000032354,None,317.4447099999961,317.4447099999961,318.59085159999086,,,,,,,,KN_en,001,2025-03-11_23h35.32.166,MainFlow,2024.2.4,143.76801591709165,2025-03-11 23h35.45.627054 +0700,
2,89,1,word/worden0891.png,image/True/img89.png,104,104,0,z,0.4117637999879662,None,0,104,104,104,318.951459399992,,,,,,,320.4442616999877,319.94709049999074,319.9504586999974,319.9504586999974,320.4389644999901,321.53895089999423,321.53895089999423,z,0.4117637999879662,None,320.4442616999877,320.4442616999877,321.53895089999423,,,,,,,,KN_en,001,2025-03-11_23h35.32.166,MainFlow,2024.2.4,143.76801591709165,2025-03-11 23h35.45.627054 +0700,
2,59,0,word/worden0591.png,image/False/imgf59.png,105,105,0,x,0.3640006000059657,None,0,105,105,105,321.9578882999922,,,,,,,323.4574259999936,322.95830739999656,322.96237959999416,322.96237959999416,323.4515920999984,324.5307662999985,324.5307662999985,x,0.3640006000059657,None,323.4574259999936,323.4574259999936,,,,,,,,,KN_en,001,2025-03-11_23h35.32.166,MainFlow,2024.2.4,143.76801591709165,2025-03-11 23h35.45.627054 +0700,
2,24,0,word/worden0241.png,image/False/imgf24.png,106,106,0,x,0.4372181000071578,None,0,106,106,106,324.9017596999911,,,,,,,326.3945878999948,325.8994311999995,325.9028790000011,325.9028790000011,326.3892682000005,327.49852049999754,327.49852049999754,x,0.4372181000071578,None,326.3945878999948,326.3945878999948,327.49852049999754,,,,,,,,KN_en,001,2025-03-11_23h35.32.166,MainFlow,2024.2.4,143.76801591709165,2025-03-11 23h35.45.627054 +0700,
2,28,0,word/worden0281.png,image/False/imgf28.png,107,107,0,x,0.31976110000687186,None,0,107,107,107,327.94474409999384,,,,,,,329.435561899998,328.9375052999967,328.9408093999955,328.9408093999955,329.43051079999714,330.546110700001,330.546110700001,x,0.31976110000687186,None,329.435561899998,329.435561899998,330.546110700001,,,,,,,,KN_en,001,2025-03-11_23h35.32.166,MainFlow,2024.2.4,143.76801591709165,2025-03-11 23h35.45.627054 +0700,
2,15,0,word/worden0151.png,image/False/imgf15.png,108,108,0,x,0.3420977000059793,None,0,108,108,108,330.87420959999145,,,,,,,332.3724183000013,331.874536599993,331.87799979999545,331.87799979999545,332.3668131000013,333.4836326999939,333.4836326999939,x,0.3420977000059793,None,332.3724183000013,332.3724183000013,333.4836326999939,,,,,,,,KN_en,001,2025-03-11_23h35.32.166,MainFlow,2024.2.4,143.76801591709165,2025-03-11 23h35.45.627054 +0700,
2,30,1,word/worden0301.png,image/True/img30.png,109,109,0,z,0.5369345000071917,None,0,109,109,109,333.84005239998805,,,,,,,335.33720319998974,334.8415765999962,334.84507250000024,334.84507250000024,335.3319366999931,336.43382179999026,336.43382179999026,z,0.5369345000071917,None,335.33720319998974,335.33720319998974,336.43382179999026,,,,,,,,KN_en,001,2025-03-11_23h35.32.166,MainFlow,2024.2.4,143.76801591709165,2025-03-11 23h35.45.627054 +0700,
2,64,1,word/worden0641.png,image/True/img64.png,110,110,0,z,0.3605987000046298,None,0,110,110,110,336.9825520999875,,,,,,,338.46858789998805,337.9695739999879,337.9723856999917,337.9723856999917,338.4564307999972,339.5539532999974,339.5539532999974,z,0.3605987000046298,None,338.46157709999534,338.46157709999534,339.5539532999974,,,,,,,,KN_en,001,2025-03-11_23h35.32.166,MainFlow,2024.2.4,143.76801591709165,2025-03-11 23h35.45.627054 +0700,
2,52,0,word/worden0521.png,image/False/imgf52.png,111,111,0,x,0.5574991000030423,None,0,111,111,111,339.92644169999403,,,,,,,341.42623659998935,340.9285802999948,340.9321416999883,340.9321416999883,341.42066609999165,342.50850899999205,342.50850899999205,x,0.5574991000030423,None,341.42623659998935,341.42623659998935,,,,,,,,,KN_en,001,2025-03-11_23h35.32.166,MainFlow,2024.2.4,143.76801591709165,2025-03-11 23h35.45.627054 +0700,
2,33,1,word/worden0331.png,image/True/img33.png,112,112,0,z,0.36960249999538064,None,0,112,112,112,343.07878179999534,,,,,,,344.5643815999938,344.07076669999515,344.07354349999514,344.07354349999514,344.55859819999023,345.67244299998856,345.67244299998856,z,0.36960249999538064,None,344.5643815999938,344.5643815999938,345.67244299998856,,,,,,,,KN_en,001,2025-03-11_23h35.32.166,MainFlow,2024.2.4,143.76801591709165,2025-03-11 23h35.45.627054 +0700,
2,23,1,word/worden0231.png,image/True/img23.png,113,113,0,z,0.3442650999932084,None,0,113,113,113,346.0503039999894,,,,,,,347.5429957999877,347.0497650999896,347.0533918000001,347.0533918000001,347.53713849998894,348.65806399998837,348.65806399998837,z,0.3442650999932084,None,347.5429957999877,347.5429957999877,348.65806399998837,,,,,,,,KN_en,001,2025-03-11_23h35.32.166,MainFlow,2024.2.4,143.76801591709165,2025-03-11 23h35.45.627054 +0700,
2,11,1,word/worden0111.png,image/True/img11.png,114,114,0,z,0.3850337000039872,None,0,114,114,114,349.0148349999945,,,,,,,350.50797520000197,350.01500410000153,350.01840229998925,350.01840229998925,350.5019051999989,351.64606579999963,351.64606579999963,z,0.3850337000039872,None,350.50797520000197,350.50797520000197,351.64606579999963,,,,,,,,KN_en,001,2025-03-11_23h35.32.166,MainFlow,2024.2.4,143.76801591709165,2025-03-11 23h35.45.627054 +0700,
2,22,1,word/worden0221.png,image/True/img22.png,115,115,0,z,0.5335078999924008,None,0,115,115,115,352.0421678999992,,,,,,,353.5349165999942,353.03720729998895,353.04047139998875,353.04047139998875,353.5289094999898,354.6605087999924,354.6605087999924,z,0.5335078999924008,None,353.5349165999942,353.5349165999942,354.6605087999924,,,,,,,,KN_en,001,2025-03-11_23h35.32.166,MainFlow,2024.2.4,143.76801591709165,2025-03-11 23h35.45.627054 +0700,
2,37,0,word/worden0371.png,image/False/imgf37.png,116,116,0,z,0.32841450000705663,None,0,116,116,116,355.2022774999932,,,,,,,356.6940203999984,356.19603500000085,356.19931599999836,356.19931599999836,356.68883579999965,357.83743239998876,357.83743239998876,z,0.32841450000705663,None,356.6940203999984,356.6940203999984,357.83743239998876,,,,,,,,KN_en,001,2025-03-11_23h35.32.166,MainFlow,2024.2.4,143.76801591709165,2025-03-11 23h35.45.627054 +0700,
2,79,0,word/worden0791.png,image/False/imgf79.png,117,117,0,x,0.4222109999973327,None,0,117,117,117,358.1728537000017,,,,,,,359.66570240000146,359.16697349998867,359.1705222999881,359.1705222999881,359.65999129999545,360.7894693999988,360.7894693999988,x,0.4222109999973327,None,359.66570240000146,359.66570240000146,360.7894693999988,,,,,,,,KN_en,001,2025-03-11_23h35.32.166,MainFlow,2024.2.4,143.76801591709165,2025-03-11 23h35.45.627054 +0700,
2,56,1,word/worden0561.png,image/True/img56.png,118,118,0,z,0.4137687000038568,None,0,118,118,118,361.22120089999225,,,,,,,362.71371839998756,362.21603389999655,362.21929049999744,362.21929049999744,362.7080590999976,363.8187125999975,363.8187125999975,z,0.4137687000038568,None,362.71371839998756,362.71371839998756,363.8187125999975,,,,,,,,KN_en,001,2025-03-11_23h35.32.166,MainFlow,2024.2.4,143.76801591709165,2025-03-11 23h35.45.627054 +0700,
2,68,1,word/worden0681.png,image/True/img68.png,119,119,0,z,0.334422200001427,None,0,119,119,119,364.2411748000013,,,,,,,365.7271505999961,365.23549389999243,365.23825369999395,365.23825369999395,365.7219946999976,366.8152848999889,366.8152848999889,z,0.334422200001427,None,365.7271505999961,365.7271505999961,366.8152848999889,,,,,,,,KN_en,001,2025-03-11_23h35.32.166,MainFlow,2024.2.4,143.76801591709165,2025-03-11 23h35.45.627054 +0700,
2,27,0,word/worden0271.png,image/False/imgf27.png,120,120,0,z,0.295707900004345,None,0,120,120,120,367.15758220000134,,,,,,,368.6501508999936,368.15215939999325,368.1554302000004,368.1554302000004,368.6448323999939,369.75319579998904,369.75319579998904,z,0.295707900004345,None,368.6501508999936,368.6501508999936,369.75319579998904,,,,,,,,KN_en,001,2025-03-11_23h35.32.166,MainFlow,2024.2.4,143.76801591709165,2025-03-11 23h35.45.627054 +0700,
2,3,1,word/worden0031.png,image/True/img03.png,121,121,0,z,0.4294114999938756,None,0,121,121,121,370.0594338999945,,,,,,,371.55222069998854,371.0569850999891,371.0598466999945,371.0598466999945,371.5463865999918,372.67145369999344,372.67145369999344,z,0.4294114999938756,None,371.55222069998854,371.55222069998854,372.67145369999344,,,,,,,,KN_en,001,2025-03-11_23h35.32.166,MainFlow,2024.2.4,143.76801591709165,2025-03-11 23h35.45.627054 +0700,
2,38,0,word/worden0381.png,image/False/imgf38.png,122,122,0,x,0.49693049999768846,None,0,122,122,122,373.1074731999979,,,,,,,374.600517999992,374.10400639999716,374.1078659999912,374.1078659999912,374.5951983999985,375.7516822999896,375.7516822999896,x,0.49693049999768846,None,374.600517999992,374.600517999992,375.7516822999896,,,,,,,,KN_en,001,2025-03-11_23h35.32.166,MainFlow,2024.2.4,143.76801591709165,2025-03-11 23h35.45.627054 +0700,
2,59,1,word/worden0591.png,image/True/img59.png,123,123,0,z,0.4088060999929439,None,0,123,123,123,376.26031919999514,,,,,,,377.76636869998765,377.26785199998994,377.2713725999929,377.2713725999929,377.7602895000018,378.8504638000013,378.8504638000013,z,0.4088060999929439,None,,,377.2713725999929,,,,,,,,KN_en,001,2025-03-11_23h35.32.166,MainFlow,2024.2.4,143.76801591709165,2025-03-11 23h35.45.627054 +0700,
2,18,1,word/worden0181.png,image/True/img18.png,124,124,0,z,0.4320986999955494,None,0,124,124,124,379.2662338999944,,,,,,,380.75888729999133,380.264872499989,380.2682313999976,380.2682313999976,380.753667699988,381.8570856000006,381.8570856000006,z,0.4320986999955494,None,380.75888729999133,380.75888729999133,381.8570856000006,,,,,,,,KN_en,001,2025-03-11_23h35.32.166,MainFlow,2024.2.4,143.76801591709165,2025-03-11 23h35.45.627054 +0700,
2,60,1,word/worden0601.png,image/True/img60.png,125,125,0,z,0.34641530000953935,None,0,125,125,125,382.300247399995,,,,,,,383.7998432999884,383.3022532999894,383.3058497999882,383.3058497999882,383.7943715000001,384.8968259999965,384.8968259999965,z,0.34641530000953935,None,383.7998432999884,383.7998432999884,,,,,,,,,KN_en,001,2025-03-11_23h35.32.166,MainFlow,2024.2.4,143.76801591709165,2025-03-11 23h35.45.627054 +0700,
2,9,1,word/worden0091.png,image/True/img09.png,126,126,0,x,0.4448626000084914,None,0,126,126,126,385.2509526999929,,,,,,,386.7440429999988,386.2494338999968,386.25290479999967,386.25290479999967,386.73873689999164,387.8263436999987,387.8263436999987,x,0.4448626000084914,None,386.7440429999988,386.7440429999988,387.8263436999987,,,,,,,,KN_en,001,2025-03-11_23h35.32.166,MainFlow,2024.2.4,143.76801591709165,2025-03-11 23h35.45.627054 +0700,
2,9,0,word/worden0091.png,image/False/imgf09.png,127,127,0,x,0.48105329999816604,None,0,127,127,127,388.27815169999667,,,,,,,389.77092149999226,389.2754084999906,389.2786817999877,389.2786817999877,389.76518339999893,390.8638338000019,390.8638338000019,x,0.48105329999816604,None,389.77092149999226,389.77092149999226,390.8638338000019,,,,,,,,KN_en,001,2025-03-11_23h35.32.166,MainFlow,2024.2.4,143.76801591709165,2025-03-11 23h35.45.627054 +0700,
2,94,0,word/worden0941.png,image/False/imgf94.png,128,128,0,x,0.3741158000048017,None,0,128,128,128,391.3540953999909,,,,,,,392.85363509999297,392.3603928999946,392.3638895999902,392.3638895999902,392.84769999999844,393.97475999999733,393.97475999999733,x,0.3741158000048017,None,392.85363509999297,392.85363509999297,,,,,,,,,KN_en,001,2025-03-11_23h35.32.166,MainFlow,2024.2.4,143.76801591709165,2025-03-11 23h35.45.627054 +0700,
2,66,1,word/worden0661.png,image/True/img66.png,129,129,0,z,0.3252786999946693,None,0,129,129,129,394.3603514999995,,,,,,,395.85305429999426,395.35743119999825,395.36118089999945,395.36118089999945,395.84727620000194,396.9697429999942,396.9697429999942,z,0.3252786999946693,None,395.85305429999426,395.85305429999426,396.9697429999942,,,,,,,,KN_en,001,2025-03-11_23h35.32.166,MainFlow,2024.2.4,143.76801591709165,2025-03-11 23h35.45.627054 +0700,
2,1,0,word/worden0011.png,image/False/imgf01.png,130,130,0,x,0.4164387000055285,None,0,130,130,130,397.3041330999986,,,,,,,398.7970672999945,398.3042201999924,398.3076618999912,398.3076618999912,398.7910879999981,399.89638069999637,399.89638069999637,x,0.4164387000055285,None,398.7970672999945,398.7970672999945,399.89638069999637,,,,,,,,KN_en,001,2025-03-11_23h35.32.166,MainFlow,2024.2.4,143.76801591709165,2025-03-11 23h35.45.627054 +0700,
2,89,0,word/worden0891.png,image/False/imgf89.png,131,131,0,x,0.5871511999866925,None,0,131,131,131,400.32426409999607,,,,,,,401.8171650000004,401.31933919999574,401.3225507999887,401.3225507999887,401.81140089999826,402.9293202999979,402.9293202999979,x,0.5871511999866925,None,401.8171650000004,401.8171650000004,402.9293202999979,,,,,,,,KN_en,001,2025-03-11_23h35.32.166,MainFlow,2024.2.4,143.76801591709165,2025-03-11 23h35.45.627054 +0700,
2,48,1,word/worden0481.png,image/True/img48.png,132,132,0,z,0.2606219000008423,None,0,132,132,132,403.52586679998785,,,,,,,405.01102159998845,404.51197729998967,404.5147803,404.5147803,404.9990367999999,406.12523939998937,406.12523939998937,z,0.2606219000008423,None,405.00408899999456,405.00408899999456,406.12523939998937,,,,,,,,KN_en,001,2025-03-11_23h35.32.166,MainFlow,2024.2.4,143.76801591709165,2025-03-11 23h35.45.627054 +0700,
2,63,0,word/worden0631.png,image/False/imgf63.png,133,133,0,x,0.4328045000002021,None,0,133,133,133,406.39414209999086,,,,,,,407.88551179999195,407.388744099997,407.3928229000012,407.3928229000012,407.8802488999936,409.01065409999865,409.01065409999865,x,0.4328045000002021,None,407.88551179999195,407.88551179999195,409.01065409999865,,,,,,,,KN_en,001,2025-03-11_23h35.32.166,MainFlow,2024.2.4,143.76801591709165,2025-03-11 23h35.45.627054 +0700,
2,23,1,word/worden0231.png,image/True/img23.png,134,134,0,z,0.42795259998820256,None,0,134,134,134,409.45452279999154,,,,,,,410.9476305999997,410.45119310000155,410.4546626999945,410.4546626999945,410.9424600999919,412.06269219999376,412.06269219999376,z,0.42795259998820256,None,410.9476305999997,410.9476305999997,412.06269219999376,,,,,,,,KN_en,001,2025-03-11_23h35.32.166,MainFlow,2024.2.4,143.76801591709165,2025-03-11 23h35.45.627054 +0700,
2,40,0,word/worden0401.png,image/False/imgf40.png,135,135,0,x,0.3156858000002103,None,0,135,135,135,412.4968014999904,,,,,,,414.002404999992,413.5033434999932,413.5071273999929,413.5071273999929,413.99606530000165,415.1218030000018,415.1218030000018,x,0.3156858000002103,None,,,413.5071273999929,,,,,,,,KN_en,001,2025-03-11_23h35.32.166,MainFlow,2024.2.4,143.76801591709165,2025-03-11 23h35.45.627054 +0700,
2,52,1,word/worden0521.png,image/True/img52.png,136,136,0,z,0.5149172000092221,None,0,136,136,136,415.44784529999015,,,,,,,416.9460631999973,416.44743649999145,416.4509287999972,416.4509287999972,416.94019929999195,418.072073599993,418.072073599993,z,0.5149172000092221,None,416.9460631999973,416.9460631999973,418.072073599993,,,,,,,,KN_en,001,2025-03-11_23h35.32.166,MainFlow,2024.2.4,143.76801591709165,2025-03-11 23h35.45.627054 +0700,
2,30,1,word/worden0301.png,image/True/img30.png,137,137,0,z,0.4092289999971399,None,0,137,137,137,418.59874069999205,,,,,,,420.0915265999938,419.59384429999045,419.5971232000011,419.5971232000011,420.085224800001,421.1818501999951,421.1818501999951,z,0.4092289999971399,None,420.0915265999938,420.0915265999938,421.1818501999951,,,,,,,,KN_en,001,2025-03-11_23h35.32.166,MainFlow,2024.2.4,143.76801591709165,2025-03-11 23h35.45.627054 +0700,
2,15,1,word/worden0151.png,image/True/img15.png,138,138,0,z,0.4686078999948222,None,0,138,138,138,421.59808659998816,,,,,,,423.08412739999767,422.5909874999925,422.5943189999962,422.5943189999962,423.0789950999897,424.2170397000009,424.2170397000009,z,0.4686078999948222,None,423.08412739999767,423.08412739999767,424.2170397000009,,,,,,,,KN_en,001,2025-03-11_23h35.32.166,MainFlow,2024.2.4,143.76801591709165,2025-03-11 23h35.45.627054 +0700,
2,46,1,word/worden0461.png,image/True/img46.png,139,139,0,z,0.3138013999996474,None,0,139,139,139,424.69465219999256,,,,,,,426.1875018999999,425.6934298999986,425.697021999993,425.697021999993,426.181545799991,427.3320329999988,427.3320329999988,z,0.3138013999996474,None,426.1875018999999,426.1875018999999,427.3320329999988,,,,,,,,KN_en,001,2025-03-11_23h35.32.166,MainFlow,2024.2.4,143.76801591709165,2025-03-11 23h35.45.627054 +0700,
2,14,1,word/worden0141.png,image/True/img14.png,140,140,0,z,0.41792970000824425,None,0,140,140,140,427.6524184000009,,,,,,,429.1451234999986,428.64789239999664,428.65126829998917,428.65126829998917,429.13926999999967,430.2618373000005,430.2618373000005,z,0.41792970000824425,None,429.1451234999986,429.1451234999986,430.2618373000005,,,,,,,,KN_en,001,2025-03-11_23h35.32.166,MainFlow,2024.2.4,143.76801591709165,2025-03-11 23h35.45.627054 +0700,
2,66,0,word/worden0661.png,image/False/imgf66.png,141,141,0,x,0.4183181000116747,None,0,141,141,141,430.68665769998915,,,,,,,432.1864549999882,431.6912006999919,431.69517549999,431.69517549999,432.1802953000006,433.2901928999927,433.2901928999927,x,0.4183181000116747,None,432.1864549999882,432.1864549999882,,,,,,,,,KN_en,001,2025-03-11_23h35.32.166,MainFlow,2024.2.4,143.76801591709165,2025-03-11 23h35.45.627054 +0700,
2,46,0,word/worden0461.png,image/False/imgf46.png,142,142,0,x,0.47586849999788683,None,0,142,142,142,433.7206167999975,,,,,,,435.213686099989,434.71636330000183,434.71985629999836,434.71985629999836,435.20817819998774,436.3533494000003,436.3533494000003,x,0.47586849999788683,None,435.213686099989,435.213686099989,436.3533494000003,,,,,,,,KN_en,001,2025-03-11_23h35.32.166,MainFlow,2024.2.4,143.76801591709165,2025-03-11 23h35.45.627054 +0700,
2,18,1,word/worden0181.png,image/True/img18.png,143,143,0,z,0.34384180000051856,None,0,143,143,143,436.8381207999919,,,,,,,438.3241158999881,437.8252596999955,437.82791209999414,437.82791209999414,438.3120931000012,439.4276070999913,439.4276070999913,z,0.34384180000051856,None,438.3170883999992,438.3170883999992,439.4276070999913,,,,,,,,KN_en,001,2025-03-11_23h35.32.166,MainFlow,2024.2.4,143.76801591709165,2025-03-11 23h35.45.627054 +0700,
2,51,0,word/worden0511.png,image/False/imgf51.png,144,144,0,x,0.41109579999465495,None,0,144,144,144,439.78199449999374,,,,,,,441.2749452999997,440.77636150000035,440.779881800001,440.779881800001,441.2696782999992,442.36828239999886,442.36828239999886,x,0.41109579999465495,None,441.2749452999997,441.2749452999997,442.36828239999886,,,,,,,,KN_en,001,2025-03-11_23h35.32.166,MainFlow,2024.2.4,143.76801591709165,2025-03-11 23h35.45.627054 +0700,
2,76,1,word/worden0761.png,image/True/img76.png,145,145,0,z,0.5106382999947527,None,0,145,145,145,442.78970319998916,,,,,,,444.2881392999989,443.7915032000019,443.7947436999966,443.7947436999966,444.2825479999883,445.40234279999277,445.40234279999277,z,0.5106382999947527,None,444.2881392999989,444.2881392999989,445.40234279999277,,,,,,,,KN_en,001,2025-03-11_23h35.32.166,MainFlow,2024.2.4,143.76801591709165,2025-03-11 23h35.45.627054 +0700,
2,57,1,word/worden0571.png,image/True/img57.png,146,146,0,z,0.39217890000145417,None,0,146,146,146,445.9197240999929,,,,,,,447.41265569999814,446.91469019999204,446.9180683000013,446.9180683000013,447.40659649999,448.5337895999983,448.5337895999983,z,0.39217890000145417,None,447.41265569999814,447.41265569999814,448.5337895999983,,,,,,,,KN_en,001,2025-03-11_23h35.32.166,MainFlow,2024.2.4,143.76801591709165,2025-03-11 23h35.45.627054 +0700,
2,48,0,word/worden0481.png,image/False/imgf48.png,147,147,0,x,0.5636706999939634,None,0,147,147,147,448.9329438999994,,,,,,,450.42573649999395,449.93073169999116,449.9340669999947,449.9340669999947,450.4195929999987,451.56066329999885,451.56066329999885,x,0.5636706999939634,None,450.42573649999395,450.42573649999395,451.56066329999885,,,,,,,,KN_en,001,2025-03-11_23h35.32.166,MainFlow,2024.2.4,143.76801591709165,2025-03-11 23h35.45.627054 +0700,
2,37,0,word/worden0371.png,image/False/imgf37.png,148,148,0,x,0.4403387000056682,None,0,148,148,148,452.1342810999922,,,,,,,453.63369409998995,453.13668479998887,453.140301499996,453.140301499996,453.62759150000056,454.7806827999884,454.7806827999884,x,0.4403387000056682,None,453.63369409998995,453.63369409998995,,,,,,,,,KN_en,001,2025-03-11_23h35.32.166,MainFlow,2024.2.4,143.76801591709165,2025-03-11 23h35.45.627054 +0700,
2,60,0,word/worden0601.png,image/False/imgf60.png,149,149,0,x,0.38733319999300875,None,0,149,149,149,455.2304196999903,,,,,,,456.7301332999923,456.2329730999918,456.2365546999936,456.2365546999936,456.7243127999973,457.83573510000133,457.83573510000133,x,0.38733319999300875,None,456.7301332999923,456.7301332999923,,,,,,,,,KN_en,001,2025-03-11_23h35.32.166,MainFlow,2024.2.4,143.76801591709165,2025-03-11 23h35.45.627054 +0700,
2,24,1,word/worden0241.png,image/True/img24.png,150,150,0,z,0.31034499999077525,None,0,150,150,150,458.22982209999464,,,,,,,459.72257659999013,459.22946049999155,459.2329830999952,459.2329830999952,459.7166361999989,460.8089716999966,460.8089716999966,z,0.31034499999077525,None,459.72257659999013,459.72257659999013,460.8089716999966,,,,,,,,KN_en,001,2025-03-11_23h35.32.166,MainFlow,2024.2.4,143.76801591709165,2025-03-11 23h35.45.627054 +0700,
2,40,1,word/worden0401.png,image/True/img40.png,151,151,0,z,0.3677397999999812,None,0,151,151,151,461.12556329999643,,,,,,,462.6248862999928,462.12978399998974,462.1335037999961,462.1335037999961,462.61940869998944,463.7625817999942,463.7625817999942,z,0.3677397999999812,None,462.6248862999928,462.6248862999928,,,,,,,,,KN_en,001,2025-03-11_23h35.32.166,MainFlow,2024.2.4,143.76801591709165,2025-03-11 23h35.45.627054 +0700,
2,54,1,word/worden0541.png,image/True/img54.png,152,152,0,z,0.3567545000114478,None,0,152,152,152,464.14100229999167,,,,,,,465.64524909999454,465.1470963999891,465.1506805999961,465.1506805999961,465.6389078999928,466.7714827000018,466.7714827000018,z,0.3567545000114478,None,,,465.1506805999961,,,,,,,,KN_en,001,2025-03-11_23h35.32.166,MainFlow,2024.2.4,143.76801591709165,2025-03-11 23h35.45.627054 +0700,
2,44,0,word/worden0441.png,image/False/imgf44.png,153,153,0,x,0.5596768999967026,None,0,153,153,153,467.1389105999988,,,,,,,468.63740329998836,468.1452149999968,468.14846709999256,468.14846709999256,468.6314200999914,469.7768969999888,469.7768969999888,x,0.5596768999967026,None,468.63740329998836,468.63740329998836,469.7768969999888,,,,,,,,KN_en,001,2025-03-11_23h35.32.166,MainFlow,2024.2.4,143.76801591709165,2025-03-11 23h35.45.627054 +0700,
2,79,1,word/worden0791.png,image/True/img79.png,154,154,0,z,0.3849230999912834,None,0,154,154,154,470.3455576999986,,,,,,,471.83843139999954,471.3421412999887,471.3456307999877,471.3456307999877,471.83310969999,472.9586985999922,472.9586985999922,z,0.3849230999912834,None,471.83843139999954,471.83843139999954,472.9586985999922,,,,,,,,KN_en,001,2025-03-11_23h35.32.166,MainFlow,2024.2.4,143.76801591709165,2025-03-11 23h35.45.627054 +0700,
2,95,1,word/worden0951.png,image/True/img95.png,155,155,0,z,0.42947889999777544,None,0,155,155,155,473.3518788999936,,,,,,,474.83773119999387,474.34168139999383,474.344503299988,474.344503299988,474.8318977000017,475.96997890000057,475.96997890000057,z,0.42947889999777544,None,474.83773119999387,474.83773119999387,475.96997890000057,,,,,,,,KN_en,001,2025-03-11_23h35.32.166,MainFlow,2024.2.4,143.76801591709165,2025-03-11 23h35.45.627054 +0700,
2,37,1,word/worden0371.png,image/True/img37.png,156,156,0,z,0.49394099999335594,None,0,156,156,156,476.4068617000012,,,,,,,477.8997747999965,477.40221609998844,477.40553779999027,477.40553779999027,477.8947130999877,479.0380046999926,479.0380046999926,z,0.49394099999335594,None,477.8997747999965,477.8997747999965,479.0380046999926,,,,,,,,KN_en,001,2025-03-11_23h35.32.166,MainFlow,2024.2.4,143.76801591709165,2025-03-11 23h35.45.627054 +0700,
2,70,1,word/worden0701.png,image/True/img70.png,157,157,0,z,0.4364888999989489,None,0,157,157,157,479.53810419999354,,,,,,,481.0379123999883,480.5388893999916,480.54258959999424,480.54258959999424,481.032360600002,482.15425399999367,482.15425399999367,z,0.4364888999989489,None,481.0379123999883,481.0379123999883,,,,,,,,,KN_en,001,2025-03-11_23h35.32.166,MainFlow,2024.2.4,143.76801591709165,2025-03-11 23h35.45.627054 +0700,
2,40,1,word/worden0401.png,image/True/img40.png,158,158,0,z,0.33673360000830144,None,0,158,158,158,482.6000803999923,,,,,,,484.0859136999934,483.5906396999926,483.59354099999473,483.59354099999473,484.0800751999923,485.22010690000025,485.22010690000025,z,0.33673360000830144,None,484.0859136999934,484.0859136999934,485.22010690000025,,,,,,,,KN_en,001,2025-03-11_23h35.32.166,MainFlow,2024.2.4,143.76801591709165,2025-03-11 23h35.45.627054 +0700,
2,30,0,word/worden0301.png,image/False/imgf30.png,159,159,0,x,0.5910052999970503,None,0,159,159,159,485.564765099989,,,,,,,487.0576962999912,486.5613308999891,486.56467009999324,486.56467009999324,487.05195979999553,488.16627469999366,488.16627469999366,x,0.5910052999970503,None,487.0576962999912,487.0576962999912,488.16627469999366,,,,,,,,KN_en,001,2025-03-11_23h35.32.166,MainFlow,2024.2.4,143.76801591709165,2025-03-11 23h35.45.627054 +0700,
2,88,1,word/worden0881.png,image/True/img88.png,160,160,0,z,0.5835781000059796,None,0,160,160,160,488.7655548999901,,,,,,,490.25153129998944,489.75815789999615,489.76142759999493,489.76142759999493,490.2455978999933,491.3761782999936,491.3761782999936,z,0.5835781000059796,None,490.25153129998944,490.25153129998944,491.3761782999936,,,,,,,,KN_en,001,2025-03-11_23h35.32.166,MainFlow,2024.2.4,143.76801591709165,2025-03-11 23h35.45.627054 +0700,
2,15,1,word/worden0151.png,image/True/img15.png,161,161,0,z,0.4622166000044672,None,0,161,161,161,491.96620569999504,,,,,,,493.4589666999964,492.96084139999584,492.96422639999946,492.96422639999946,493.4528289000009,494.5901952999993,494.5901952999993,z,0.4622166000044672,None,493.4589666999964,493.4589666999964,494.5901952999993,,,,,,,,KN_en,001,2025-03-11_23h35.32.166,MainFlow,2024.2.4,143.76801591709165,2025-03-11 23h35.45.627054 +0700,
2,54,1,word/worden0541.png,image/True/img54.png,162,162,0,z,0.7165115999960108,None,0,162,162,162,495.0629786999925,,,,,,,496.55582739999227,496.060439199995,496.0633037999942,496.0633037999942,496.55065819999436,497.6970294999919,497.6970294999919,z,0.7165115999960108,None,496.55582739999227,496.55582739999227,497.6970294999919,,,,,,,,KN_en,001,2025-03-11_23h35.32.166,MainFlow,2024.2.4,143.76801591709165,2025-03-11 23h35.45.627054 +0700,
2,11,0,word/worden0111.png,image/False/imgf11.png,163,163,0,x,0.46647490000759717,None,0,163,163,163,498.4234887999919,,,,,,,499.9232453000004,499.4246101999888,499.42842749999545,499.42842749999545,499.9172417999944,501.05566339999496,501.05566339999496,x,0.46647490000759717,None,499.9232453000004,499.9232453000004,,,,,,,,,KN_en,001,2025-03-11_23h35.32.166,MainFlow,2024.2.4,143.76801591709165,2025-03-11 23h35.45.627054 +0700,
2,16,1,word/worden0161.png,image/True/img16.png,164,164,0,z,0.5180590000090888,None,0,164,164,164,501.5339302999928,,,,,,,503.0269987999927,502.53404020000016,502.53745869999693,502.53745869999693,503.02151089999825,504.16083049999725,504.16083049999725,z,0.5180590000090888,None,503.0269987999927,503.0269987999927,504.16083049999725,,,,,,,,KN_en,001,2025-03-11_23h35.32.166,MainFlow,2024.2.4,143.76801591709165,2025-03-11 23h35.45.627054 +0700,
2,1,1,word/worden0011.png,image/True/img01.png,165,165,0,z,0.5492407999990974,None,0,165,165,165,504.68602219999593,,,,,,,506.1857697999949,505.69033499999205,505.69390709999425,505.69390709999425,506.17968960000144,507.3079080999887,507.3079080999887,z,0.5492407999990974,None,506.1857697999949,506.1857697999949,,,,,,,,,KN_en,001,2025-03-11_23h35.32.166,MainFlow,2024.2.4,143.76801591709165,2025-03-11 23h35.45.627054 +0700,
2,22,0,word/worden0221.png,image/False/imgf22.png,166,166,0,x,0.3521228000026895,None,0,166,166,166,507.866199600001,,,,,,,509.3519508999889,508.8589663999883,508.8621807000018,508.8621807000018,509.34582039999077,510.4791783999972,510.4791783999972,x,0.3521228000026895,None,509.3519508999889,509.3519508999889,510.4791783999972,,,,,,,,KN_en,001,2025-03-11_23h35.32.166,MainFlow,2024.2.4,143.76801591709165,2025-03-11 23h35.45.627054 +0700,
2,63,1,word/worden0631.png,image/True/img63.png,167,167,0,z,0.3248569999996107,None,0,167,167,167,510.83772260000114,,,,,,,512.3304540999961,511.8316686999897,511.83535689998826,511.83535689998826,512.3244029999914,513.4427562999917,513.4427562999917,z,0.3248569999996107,None,512.3304540999961,512.3304540999961,513.4427562999917,,,,,,,,KN_en,001,2025-03-11_23h35.32.166,MainFlow,2024.2.4,143.76801591709165,2025-03-11 23h35.45.627054 +0700,
2,87,1,word/worden0871.png,image/True/img87.png,168,168,0,z,0.3747601999930339,None,0,168,168,168,513.7778035999945,,,,,,,515.2815888999903,514.7857991999917,514.7894426999992,514.7894426999992,515.2749279999989,516.3996262000001,516.3996262000001,z,0.3747601999930339,None,,,514.7894426999992,,,,,,,,KN_en,001,2025-03-11_23h35.32.166,MainFlow,2024.2.4,143.76801591709165,2025-03-11 23h35.45.627054 +0700,
2,57,0,word/worden0571.png,image/False/imgf57.png,169,169,0,x,0.38449470000341535,None,0,169,169,169,516.7809895999962,,,,,,,518.2737164999999,517.7761529999989,517.7794375999947,517.7794375999947,518.2683629999956,519.3948958999972,519.3948958999972,x,0.38449470000341535,None,518.2737164999999,518.2737164999999,519.3948958999972,,,,,,,,KN_en,001,2025-03-11_23h35.32.166,MainFlow,2024.2.4,143.76801591709165,2025-03-11 23h35.45.627054 +0700,
2,94,0,word/worden0941.png,image/False/imgf94.png,170,170,0,x,0.3679429999901913,None,0,170,170,170,519.7883606999967,,,,,,,521.2802578999981,520.7825636999914,520.785824999999,520.785824999999,521.2750264999922,522.416281400001,522.416281400001,x,0.3679429999901913,None,521.2802578999981,521.2802578999981,522.416281400001,,,,,,,,KN_en,001,2025-03-11_23h35.32.166,MainFlow,2024.2.4,143.76801591709165,2025-03-11 23h35.45.627054 +0700,
2,93,0,word/worden0931.png,image/False/imgf93.png,171,171,0,x,0.462432300002547,None,0,171,171,171,522.7937452999904,,,,,,,524.2864662999928,523.7902971000003,523.7936298999994,523.7936298999994,524.2814091999899,525.3680962999933,525.3680962999933,x,0.462432300002547,None,524.2864662999928,524.2864662999928,525.3680962999933,,,,,,,,KN_en,001,2025-03-11_23h35.32.166,MainFlow,2024.2.4,143.76801591709165,2025-03-11 23h35.45.627054 +0700,
2,61,1,word/worden0611.png,image/True/img61.png,172,172,0,z,0.26992050000990275,None,0,172,172,172,525.8416558999888,,,,,,,527.3347663999884,526.8366549999919,526.8402242000011,526.8402242000011,527.3294559999922,528.4665330999997,528.4665330999997,z,0.26992050000990275,None,527.3347663999884,527.3347663999884,528.4665330999997,,,,,,,,KN_en,001,2025-03-11_23h35.32.166,MainFlow,2024.2.4,143.76801591709165,2025-03-11 23h35.45.627054 +0700,
2,28,1,word/worden0281.png,image/True/img28.png,173,173,0,z,0.30533590000413824,None,0,173,173,173,528.7457520999887,,,,,,,530.2367745999945,529.7386909999914,529.7422347999964,529.7422347999964,530.231195299988,531.3761298999889,531.3761298999889,z,0.30533590000413824,None,530.2367745999945,530.2367745999945,531.3761298999889,,,,,,,,KN_en,001,2025-03-11_23h35.32.166,MainFlow,2024.2.4,143.76801591709165,2025-03-11 23h35.45.627054 +0700,
2,46,1,word/worden0461.png,image/True/img46.png,174,174,0,z,0.2563232000102289,None,0,174,174,174,531.688167299988,,,,,,,533.1806070999883,532.6855806999956,532.688925800001,532.688925800001,533.1748401999939,534.3194885999983,534.3194885999983,z,0.2563232000102289,None,533.1806070999883,533.1806070999883,534.3194885999983,,,,,,,,KN_en,001,2025-03-11_23h35.32.166,MainFlow,2024.2.4,143.76801591709165,2025-03-11 23h35.45.627054 +0700,
2,22,1,word/worden0221.png,image/True/img22.png,175,175,0,z,0.4838469999958761,None,0,175,175,175,534.5830485999904,,,,,,,536.0757865999913,535.5780660000019,535.5817105999886,535.5817105999886,536.0698100000009,537.219575199997,537.219575199997,z,0.4838469999958761,None,536.0757865999913,536.0757865999913,537.219575199997,,,,,,,,KN_en,001,2025-03-11_23h35.32.166,MainFlow,2024.2.4,143.76801591709165,2025-03-11 23h35.45.627054 +0700,
2,93,1,word/worden0931.png,image/True/img93.png,176,176,0,z,0.3638725000055274,None,0,176,176,176,537.7144237999892,,,,,,,539.2142077999888,538.7166655999899,538.7202479999978,538.7202479999978,539.2084340000001,540.3025073999888,540.3025073999888,z,0.3638725000055274,None,539.2142077999888,539.2142077999888,,,,,,,,,KN_en,001,2025-03-11_23h35.32.166,MainFlow,2024.2.4,143.76801591709165,2025-03-11 23h35.45.627054 +0700,
2,95,1,word/worden0951.png,image/True/img95.png,177,177,0,z,0.40782900000340305,None,0,177,177,177,540.6790316999977,,,,,,,542.1650803999946,541.6708205999894,541.6738906999963,541.6738906999963,542.1598289999965,543.2986989999918,543.2986989999918,z,0.40782900000340305,None,542.1650803999946,542.1650803999946,543.2986989999918,,,,,,,,KN_en,001,2025-03-11_23h35.32.166,MainFlow,2024.2.4,143.76801591709165,2025-03-11 23h35.45.627054 +0700,
2,17,0,word/worden0171.png,image/False/imgf17.png,178,178,0,x,0.40086939999309834,None,0,178,178,178,543.713248,,,,,,,545.2061190999957,544.7096390999941,544.7134153999941,544.7134153999941,545.2008504999976,546.3173678999883,546.3173678999883,x,0.40086939999309834,None,545.2061190999957,545.2061190999957,546.3173678999883,,,,,,,,KN_en,001,2025-03-11_23h35.32.166,MainFlow,2024.2.4,143.76801591709165,2025-03-11 23h35.45.627054 +0700,
2,26,1,word/worden0261.png,image/True/img26.png,179,179,0,z,0.5460797999985516,None,0,179,179,179,546.7265405999933,,,,,,,548.2123895999976,547.7191508999967,547.7225122999953,547.7225122999953,548.2070678000018,549.3446122999885,549.3446122999885,z,0.5460797999985516,None,548.2123895999976,548.2123895999976,549.3446122999885,,,,,,,,KN_en,001,2025-03-11_23h35.32.166,MainFlow,2024.2.4,143.76801591709165,2025-03-11 23h35.45.627054 +0700,
2,27,1,word/worden0271.png,image/True/img27.png,180,180,0,z,0.418267700006254,None,0,180,180,180,549.8994894999923,,,,,,,551.3994291999988,550.9017741999996,550.9054777999991,550.9054777999991,551.3936017999949,552.4875150000007,552.4875150000007,z,0.418267700006254,None,551.3994291999988,551.3994291999988,,,,,,,,,KN_en,001,2025-03-11_23h35.32.166,MainFlow,2024.2.4,143.76801591709165,2025-03-11 23h35.45.627054 +0700,
2,31,1,word/worden0311.png,image/True/img31.png,181,181,0,z,0.4321103999973275,None,0,181,181,181,552.9127607999981,,,,,,,554.3985606999922,553.9058965000004,553.9091025999951,553.9091025999951,554.3925821000012,555.5094628999941,555.5094628999941,z,0.4321103999973275,None,554.3985606999922,554.3985606999922,555.5094628999941,,,,,,,,KN_en,001,2025-03-11_23h35.32.166,MainFlow,2024.2.4,143.76801591709165,2025-03-11 23h35.45.627054 +0700,
2,33,0,word/worden0331.png,image/False/imgf33.png,182,182,0,x,0.3633068000053754,None,0,182,182,182,555.9538723000005,,,,,,,557.4466482999997,556.9528253999888,556.9563300000009,556.9563300000009,557.4407976999937,558.5662154999882,558.5662154999882,x,0.3633068000053754,None,557.4466482999997,557.4466482999997,558.5662154999882,,,,,,,,KN_en,001,2025-03-11_23h35.32.166,MainFlow,2024.2.4,143.76801591709165,2025-03-11 23h35.45.627054 +0700,
2,59,1,word/worden0591.png,image/True/img59.png,183,183,0,z,0.31951760000083596,None,0,183,183,183,558.9394559999928,,,,,,,560.4321829999972,559.9388905999949,559.9422311999951,559.9422311999951,560.4263471000013,561.5192466000008,561.5192466000008,z,0.31951760000083596,None,560.4321829999972,560.4321829999972,561.5192466000008,,,,,,,,KN_en,001,2025-03-11_23h35.32.166,MainFlow,2024.2.4,143.76801591709165,2025-03-11 23h35.45.627054 +0700,
2,8,1,word/worden0081.png,image/True/img08.png,184,184,0,z,0.4237252000020817,None,0,184,184,184,561.8486954999971,,,,,,,563.3344767999952,562.8356380999903,562.8384244999907,562.8384244999907,563.3225929999899,564.4300102999987,564.4300102999987,z,0.4237252000020817,None,563.3276199999964,563.3276199999964,564.4300102999987,,,,,,,,KN_en,001,2025-03-11_23h35.32.166,MainFlow,2024.2.4,143.76801591709165,2025-03-11 23h35.45.627054 +0700,
2,63,0,word/worden0631.png,image/False/imgf63.png,185,185,0,x,0.45385600000736304,None,0,185,185,185,564.8618261999945,,,,,,,566.354657399992,565.8599144999898,565.8632900999946,565.8632900999946,566.3486918999988,567.4866475000017,567.4866475000017,x,0.45385600000736304,None,566.354657399992,566.354657399992,567.4866475000017,,,,,,,,KN_en,001,2025-03-11_23h35.32.166,MainFlow,2024.2.4,143.76801591709165,2025-03-11 23h35.45.627054 +0700,
2,30,0,word/worden0301.png,image/False/imgf30.png,186,186,0,x,0.4167578000051435,None,0,186,186,186,567.9516235999909,,,,,,,569.4443138999923,568.9463961000001,568.9497336999921,568.9497336999921,569.4383700999897,570.5487111999973,570.5487111999973,x,0.4167578000051435,None,569.4443138999923,569.4443138999923,570.5487111999973,,,,,,,,KN_en,001,2025-03-11_23h35.32.166,MainFlow,2024.2.4,143.76801591709165,2025-03-11 23h35.45.627054 +0700,
2,15,0,word/worden0151.png,image/False/imgf15.png,187,187,0,x,0.36545270000351593,None,0,187,187,187,570.9747659999994,,,,,,,572.4715838999982,571.9736747999996,571.9771162999969,571.9771162999969,572.4665067999886,573.5849943999929,573.5849943999929,x,0.36545270000351593,None,572.4715838999982,572.4715838999982,573.5849943999929,,,,,,,,KN_en,001,2025-03-11_23h35.32.166,MainFlow,2024.2.4,143.76801591709165,2025-03-11 23h35.45.627054 +0700,
2,71,0,word/worden0711.png,image/False/imgf71.png,188,188,0,x,0.45292840000183787,None,0,188,188,188,573.957344999988,,,,,,,575.4504187999992,574.9548819999909,574.9582343999937,574.9582343999937,575.4451834999927,576.5814868000016,576.5814868000016,x,0.45292840000183787,None,575.4504187999992,575.4504187999992,576.5814868000016,,,,,,,,KN_en,001,2025-03-11_23h35.32.166,MainFlow,2024.2.4,143.76801591709165,2025-03-11 23h35.45.627054 +0700,
2,10,0,word/worden0101.png,image/False/imgf10.png,189,189,0,x,0.5531392999982927,None,0,189,189,189,577.0400716000004,,,,,,,578.5259541999985,578.0328830999933,578.0362451999972,578.0362451999972,578.5201881999965,579.6236915999907,579.6236915999907,x,0.5531392999982927,None,578.5259541999985,578.5259541999985,579.6236915999907,,,,,,,,KN_en,001,2025-03-11_23h35.32.166,MainFlow,2024.2.4,143.76801591709165,2025-03-11 23h35.45.627054 +0700,
2,54,0,word/worden0541.png,image/False/imgf54.png,190,190,0,x,0.37924670000211336,None,0,190,190,190,580.185631100001,,,,,,,581.6710981999931,581.1784239999979,581.1817243999976,581.1817243999976,581.6652143999963,582.7934122000006,582.7934122000006,x,0.37924670000211336,None,581.6710981999931,581.6710981999931,582.7934122000006,,,,,,,,KN_en,001,2025-03-11_23h35.32.166,MainFlow,2024.2.4,143.76801591709165,2025-03-11 23h35.45.627054 +0700,
2,60,0,word/worden0601.png,image/False/imgf60.png,191,191,0,x,0.4201708999898983,None,0,191,191,191,583.1848382999888,,,,,,,584.6774265999993,584.1846967999882,584.1879808999947,584.1879808999947,584.6715291,585.7884187000018,585.7884187000018,x,0.4201708999898983,None,584.6774265999993,584.6774265999993,585.7884187000018,,,,,,,,KN_en,001,2025-03-11_23h35.32.166,MainFlow,2024.2.4,143.76801591709165,2025-03-11 23h35.45.627054 +0700,
2,16,0,word/worden0161.png,image/False/imgf16.png,192,192,0,x,0.5148653999931412,None,0,192,192,192,586.2188687999878,,,,,,,587.7116429999878,587.2187747999997,587.2225406999933,587.2225406999933,587.7061242999916,588.8354720999923,588.8354720999923,x,0.5148653999931412,None,587.7116429999878,587.7116429999878,588.8354720999923,,,,,,,,KN_en,001,2025-03-11_23h35.32.166,MainFlow,2024.2.4,143.76801591709165,2025-03-11 23h35.45.627054 +0700,
2,50,1,word/worden0501.png,image/True/img50.png,193,193,0,z,0.3133118999976432,None,0,193,193,193,589.3570970000001,,,,,,,590.8501417999942,590.3518658999965,590.3551863999892,590.3551863999892,590.845050399992,591.9651004999905,591.9651004999905,z,0.3133118999976432,None,590.8501417999942,590.8501417999942,591.9651004999905,,,,,,,,KN_en,001,2025-03-11_23h35.32.166,MainFlow,2024.2.4,143.76801591709165,2025-03-11 23h35.45.627054 +0700,
2,63,1,word/worden0631.png,image/True/img63.png,194,194,0,z,0.44909999999799766,None,0,194,194,194,592.2871344000014,,,,,,,593.7731468999991,593.2806408999895,593.2837706999999,593.2837706999999,593.7677932999941,594.898174899994,594.898174899994,z,0.44909999999799766,None,593.7731468999991,593.7731468999991,594.898174899994,,,,,,,,KN_en,001,2025-03-11_23h35.32.166,MainFlow,2024.2.4,143.76801591709165,2025-03-11 23h35.45.627054 +0700,
2,24,0,word/worden0241.png,image/False/imgf24.png,195,195,0,x,0.4010419999976875,None,0,195,195,195,595.3562110999919,,,,,,,596.8558300000004,596.3592728999938,596.3628171999881,596.3628171999881,596.8506124999985,597.9529886999953,597.9529886999953,x,0.4010419999976875,None,596.8558300000004,596.8558300000004,,,,,,,,,KN_en,001,2025-03-11_23h35.32.166,MainFlow,2024.2.4,143.76801591709165,2025-03-11 23h35.45.627054 +0700,
2,89,0,word/worden0891.png,image/False/imgf89.png,196,196,0,z,0.33180079999146983,None,0,196,196,196,598.3625755999965,,,,,,,599.8552379999892,599.3591903999913,599.3628028999956,599.3628028999956,599.8499655999913,600.9565836999973,600.9565836999973,z,0.33180079999146983,None,599.8552379999892,599.8552379999892,600.9565836999973,,,,,,,,KN_en,001,2025-03-11_23h35.32.166,MainFlow,2024.2.4,143.76801591709165,2025-03-11 23h35.45.627054 +0700,
2,6,0,word/worden0061.png,image/False/imgf06.png,197,197,0,x,0.4069305000011809,None,0,197,197,197,601.299434200002,,,,,,,602.7851692999975,602.2912141999986,602.2944567999948,602.2944567999948,602.7796565999888,603.8854349999892,603.8854349999892,x,0.4069305000011809,None,602.7851692999975,602.7851692999975,603.8854349999892,,,,,,,,KN_en,001,2025-03-11_23h35.32.166,MainFlow,2024.2.4,143.76801591709165,2025-03-11 23h35.45.627054 +0700,
2,41,0,word/worden0411.png,image/False/imgf41.png,198,198,0,x,0.33761029999004677,None,0,198,198,198,604.2991515999893,,,,,,,605.7916145999916,605.2926608999987,605.2962633999996,605.2962633999996,605.7855187999958,606.8698798999976,606.8698798999976,x,0.33761029999004677,None,605.7916145999916,605.7916145999916,606.8698798999976,,,,,,,,KN_en,001,2025-03-11_23h35.32.166,MainFlow,2024.2.4,143.76801591709165,2025-03-11 23h35.45.627054 +0700,
2,79,0,word/worden0791.png,image/False/imgf79.png,199,199,0,x,0.48187429999234155,None,0,199,199,199,607.2148610000004,,,,,,,608.7143588999897,608.2174806999974,608.221034999995,608.221034999995,608.7081942999939,609.8392511999991,609.8392511999991,x,0.48187429999234155,None,608.7143588999897,608.7143588999897,,,,,,,,,KN_en,001,2025-03-11_23h35.32.166,MainFlow,2024.2.4,143.76801591709165,2025-03-11 23h35.45.627054 +0700,
2,70,1,word/worden0701.png,image/True/img70.png,200,200,0,z,0.5802246999955969,None,0,200,200,200,610.3323349999991,,,,,,,611.8249805999949,611.3270072000014,611.3305499999988,611.3305499999988,611.8190310999926,612.9273069999908,612.9273069999908,z,0.5802246999955969,None,611.8249805999949,611.8249805999949,612.9273069999908,,,,,,,,KN_en,001,2025-03-11_23h35.32.166,MainFlow,2024.2.4,143.76801591709165,2025-03-11 23h35.45.627054 +0700,
2,31,1,word/worden0311.png,image/True/img31.png,201,201,0,z,0.3236654000065755,None,0,201,201,201,613.5191416999878,,,,,,,615.0050148000009,614.5121546000009,614.5156053999963,614.5156053999963,614.9990836999932,616.1149784000008,616.1149784000008,z,0.3236654000065755,None,615.0050148000009,615.0050148000009,616.1149784000008,,,,,,,,KN_en,001,2025-03-11_23h35.32.166,MainFlow,2024.2.4,143.76801591709165,2025-03-11 23h35.45.627054 +0700,
2,9,1,word/worden0091.png,image/True/img09.png,202,202,0,z,0.33778269999311306,None,0,202,202,202,616.4489749999921,,,,,,,617.9418248000002,617.4448293999885,617.4481566999893,617.4481566999893,617.9358917999925,619.0110883000016,619.0110883000016,z,0.33778269999311306,None,617.9418248000002,617.9418248000002,619.0110883000016,,,,,,,,KN_en,001,2025-03-11_23h35.32.166,MainFlow,2024.2.4,143.76801591709165,2025-03-11 23h35.45.627054 +0700,
2,27,1,word/worden0271.png,image/True/img27.png,203,203,0,z,0.32336579999537207,None,0,203,203,203,619.3583679000003,,,,,,,620.8510997999983,620.3581649999978,620.3609596999886,620.3609596999886,620.8455880999973,621.9529164999985,621.9529164999985,z,0.32336579999537207,None,620.8510997999983,620.8510997999983,621.9529164999985,,,,,,,,KN_en,001,2025-03-11_23h35.32.166,MainFlow,2024.2.4,143.76801591709165,2025-03-11 23h35.45.627054 +0700,
2,75,0,word/worden0751.png,image/False/imgf75.png,204,204,0,x,0.3722445000021253,None,0,204,204,204,622.2881396000012,,,,,,,623.7880491999967,623.2906669999938,623.2942164999986,623.2942164999986,623.7821133999969,624.8869450999919,624.8869450999919,x,0.3722445000021253,None,623.7880491999967,623.7880491999967,624.8869450999919,,,,,,,,KN_en,001,2025-03-11_23h35.32.166,MainFlow,2024.2.4,143.76801591709165,2025-03-11 23h35.45.627054 +0700,
2,87,0,word/worden0871.png,image/False/imgf87.png,205,205,0,z,0.36155310001049656,None,0,205,205,205,625.2668411999912,,,,,,,626.7598203999951,626.261997900001,626.2653396999958,626.2653396999958,626.7545033999922,627.8635972999909,627.8635972999909,z,0.36155310001049656,None,626.7598203999951,626.7598203999951,627.8635972999909,,,,,,,,KN_en,001,2025-03-11_23h35.32.166,MainFlow,2024.2.4,143.76801591709165,2025-03-11 23h35.45.627054 +0700,
2,8,0,word/worden0081.png,image/False/imgf08.png,206,206,0,x,0.34309129999019206,None,0,206,206,206,628.2313969999959,,,,,,,629.7242486999894,629.2313652000012,629.2349083000008,629.2349083000008,629.7186872999882,630.8182969999907,630.8182969999907,x,0.34309129999019206,None,629.7242486999894,629.7242486999894,630.8182969999907,,,,,,,,KN_en,001,2025-03-11_23h35.32.166,MainFlow,2024.2.4,143.76801591709165,2025-03-11 23h35.45.627054 +0700,
2,24,1,word/worden0241.png,image/True/img24.png,207,207,0,x,0.5844322999910219,None,0,207,207,207,631.1685137999884,,,,,,,632.6613175999955,632.1661583999958,632.1694695999904,632.1694695999904,632.6561173999944,633.7265436000016,633.7265436000016,x,0.5844322999910219,None,632.6613175999955,632.6613175999955,633.7265436000016,,,,,,,,KN_en,001,2025-03-11_23h35.32.166,MainFlow,2024.2.4,143.76801591709165,2025-03-11 23h35.45.627054 +0700,
2,14,1,word/worden0141.png,image/True/img14.png,208,208,0,z,0.3830078000028152,None,0,208,208,208,634.3225162000017,,,,,,,635.8203419999918,635.3275805000012,635.3313000999915,635.3313000999915,635.8147448999953,636.9391875000001,636.9391875000001,z,0.3830078000028152,None,635.8203419999918,635.8203419999918,636.9391875000001,,,,,,,,KN_en,001,2025-03-11_23h35.32.166,MainFlow,2024.2.4,143.76801591709165,2025-03-11 23h35.45.627054 +0700,
2,87,1,word/worden0871.png,image/True/img87.png,209,209,0,z,0.3729091999994125,None,0,209,209,209,637.3351806999999,,,,,,,638.8267729999934,638.3344672999956,638.3377060999919,638.3377060999919,638.8213920999988,639.9489993999887,639.9489993999887,z,0.3729091999994125,None,638.8267729999934,638.8267729999934,639.9489993999887,,,,,,,,KN_en,001,2025-03-11_23h35.32.166,MainFlow,2024.2.4,143.76801591709165,2025-03-11 23h35.45.627054 +0700,
2,42,0,word/worden0421.png,image/False/imgf42.png,210,210,0,x,0.5269476999965264,None,0,210,210,210,640.3333130999963,,,,,,,641.8191222999885,641.3233187000005,641.3262659999891,641.3262659999891,641.8137018999987,642.9564775999897,642.9564775999897,x,0.5269476999965264,None,641.8191222999885,641.8191222999885,642.9564775999897,,,,,,,,KN_en,001,2025-03-11_23h35.32.166,MainFlow,2024.2.4,143.76801591709165,2025-03-11 23h35.45.627054 +0700,
2,48,0,word/worden0481.png,image/False/imgf48.png,211,211,0,z,0.4302136999904178,None,0,211,211,211,643.4946014000016,,,,,,,644.9923351999896,644.4935782999964,644.4968287999945,644.4968287999945,644.9863263000007,646.1198944999924,646.1198944999924,z,0.4302136999904178,None,644.9923351999896,644.9923351999896,646.1198944999924,,,,,,,,KN_en,001,2025-03-11_23h35.32.166,MainFlow,2024.2.4,143.76801591709165,2025-03-11 23h35.45.627054 +0700,
2,56,0,word/worden0561.png,image/False/imgf56.png,212,212,0,x,0.3402503999968758,None,0,212,212,212,646.561263399999,,,,,,,648.0541089999897,647.5566474999941,647.5601817999996,647.5601817999996,648.0485390999966,649.1930361999985,649.1930361999985,x,0.3402503999968758,None,648.0541089999897,648.0541089999897,649.1930361999985,,,,,,,,KN_en,001,2025-03-11_23h35.32.166,MainFlow,2024.2.4,143.76801591709165,2025-03-11 23h35.45.627054 +0700,
2,18,0,word/worden0181.png,image/False/imgf18.png,213,213,0,x,0.40867059999436606,None,0,213,213,213,649.5398934999976,,,,,,,651.0328331999917,650.5357304999925,650.5389960999892,650.5389960999892,651.027528599996,652.1474852999963,652.1474852999963,x,0.40867059999436606,None,651.0328331999917,651.0328331999917,652.1474852999963,,,,,,,,KN_en,001,2025-03-11_23h35.32.166,MainFlow,2024.2.4,143.76801591709165,2025-03-11 23h35.45.627054 +0700,
2,18,0,word/worden0181.png,image/False/imgf18.png,214,214,0,x,0.368701700004749,None,0,214,214,214,652.5670554999961,,,,,,,654.0598496999883,653.5615275000018,653.5648139999976,653.5648139999976,654.0542466999905,655.166507499991,655.166507499991,x,0.368701700004749,None,654.0598496999883,654.0598496999883,655.166507499991,,,,,,,,KN_en,001,2025-03-11_23h35.32.166,MainFlow,2024.2.4,143.76801591709165,2025-03-11 23h35.45.627054 +0700,
2,9,0,word/worden0091.png,image/False/imgf09.png,215,215,0,x,0.41408859999501146,None,0,215,215,215,655.546383199995,,,,,,,657.0453731000016,656.5488957999914,656.5532382999954,656.5532382999954,657.0398376999947,658.1259524999914,658.1259524999914,x,0.41408859999501146,None,657.0453731000016,657.0453731000016,658.1259524999914,,,,,,,,KN_en,001,2025-03-11_23h35.32.166,MainFlow,2024.2.4,143.76801591709165,2025-03-11 23h35.45.627054 +0700,
2,55,0,word/worden0551.png,image/False/imgf55.png,216,216,0,x,0.7019370999914827,None,0,216,216,216,658.5520278999902,,,,,,,660.0448940999922,659.5476329999947,659.5510175999952,659.5510175999952,660.0395960999886,661.1572664999985,661.1572664999985,x,0.7019370999914827,None,660.0448940999922,660.0448940999922,661.1572664999985,,,,,,,,KN_en,001,2025-03-11_23h35.32.166,MainFlow,2024.2.4,143.76801591709165,2025-03-11 23h35.45.627054 +0700,
2,17,0,word/worden0171.png,image/False/imgf17.png,217,217,0,z,0.28311820000817534,None,0,217,217,217,661.8708157999936,,,,,,,663.3568253999983,662.8582793999958,662.8610224000004,662.8610224000004,663.3447509999969,664.4823275999952,664.4823275999952,z,0.28311820000817534,None,663.349944799993,663.349944799993,664.4823275999952,,,,,,,,KN_en,001,2025-03-11_23h35.32.166,MainFlow,2024.2.4,143.76801591709165,2025-03-11 23h35.45.627054 +0700,
2,50,1,word/worden0501.png,image/True/img50.png,218,218,0,z,0.31109630000719335,None,0,218,218,218,664.7730184999964,,,,,,,666.2657472999999,665.7691475999891,665.7724032999977,665.7724032999977,666.2598565999942,667.3863980999886,667.3863980999886,z,0.31109630000719335,None,666.2657472999999,666.2657472999999,667.3863980999886,,,,,,,,KN_en,001,2025-03-11_23h35.32.166,MainFlow,2024.2.4,143.76801591709165,2025-03-11 23h35.45.627054 +0700,
2,20,0,word/worden0201.png,image/False/imgf20.png,219,219,0,x,0.42792679999547545,None,0,219,219,219,667.7098070999928,,,,,,,669.2027484999999,668.7071355999942,668.7111939999886,668.7111939999886,669.1968288999924,670.3526330999885,670.3526330999885,x,0.42792679999547545,None,669.2027484999999,669.2027484999999,670.3526330999885,,,,,,,,KN_en,001,2025-03-11_23h35.32.166,MainFlow,2024.2.4,143.76801591709165,2025-03-11 23h35.45.627054 +0700,
2,36,0,word/worden0361.png,image/False/imgf36.png,220,220,0,x,0.5823143000015989,None,0,220,220,220,670.7884470999998,,,,,,,672.2854799999914,671.7876641999901,671.7912209999922,671.7912209999922,672.2798513000016,673.3963893999899,673.3963893999899,x,0.5823143000015989,None,672.2854799999914,672.2854799999914,673.3963893999899,,,,,,,,KN_en,001,2025-03-11_23h35.32.166,MainFlow,2024.2.4,143.76801591709165,2025-03-11 23h35.45.627054 +0700,
2,7,0,word/worden0071.png,image/False/imgf07.png,221,221,0,x,0.43771660000493284,None,0,221,221,221,673.9867034999916,,,,,,,675.4865305999992,674.9882742999907,674.9919994999946,674.9919994999946,675.4811391999974,676.598050799992,676.598050799992,x,0.43771660000493284,None,675.4865305999992,675.4865305999992,,,,,,,,,KN_en,001,2025-03-11_23h35.32.166,MainFlow,2024.2.4,143.76801591709165,2025-03-11 23h35.45.627054 +0700,
2,7,1,word/worden0071.png,image/True/img07.png,222,222,0,z,0.2966811000078451,None,0,222,222,222,677.0484414999955,,,,,,,678.5342142000009,678.0423893999978,678.0451653999917,678.0451653999917,678.5284721999924,679.6392350999959,679.6392350999959,z,0.2966811000078451,None,678.5342142000009,678.5342142000009,679.6392350999959,,,,,,,,KN_en,001,2025-03-11_23h35.32.166,MainFlow,2024.2.4,143.76801591709165,2025-03-11 23h35.45.627054 +0700,
2,70,0,word/worden0701.png,image/False/imgf70.png,223,223,0,x,0.49266490001173224,None,0,223,223,223,679.9447557999956,,,,,,,681.4365759999928,680.9377414999908,680.9411676000018,680.9411676000018,681.4312740999885,682.543817400001,682.543817400001,x,0.49266490001173224,None,681.4365759999928,681.4365759999928,682.543817400001,,,,,,,,KN_en,001,2025-03-11_23h35.32.166,MainFlow,2024.2.4,143.76801591709165,2025-03-11 23h35.45.627054 +0700,
2,68,0,word/worden0681.png,image/False/imgf68.png,224,224,0,x,1.1765735000080895,None,0,224,224,224,683.0472604999959,,,,,,,684.5400081999978,684.0455480999954,684.0488794999983,684.0488794999983,684.5342225999921,685.6269253999926,685.6269253999926,x,1.1765735000080895,None,684.5400081999978,684.5400081999978,685.6269253999926,,,,,,,,KN_en,001,2025-03-11_23h35.32.166,MainFlow,2024.2.4,143.76801591709165,2025-03-11 23h35.45.627054 +0700,
2,23,0,word/worden0231.png,image/False/imgf23.png,225,225,0,x,0.35096950001025107,None,0,225,225,225,686.8104786999902,,,,,,,688.2962603999913,687.7978501999896,687.8005177999876,687.8005177999876,688.2904373999918,689.4494228999974,689.4494228999974,x,0.35096950001025107,None,688.2962603999913,688.2962603999913,689.4494228999974,,,,,,,,KN_en,001,2025-03-11_23h35.32.166,MainFlow,2024.2.4,143.76801591709165,2025-03-11 23h35.45.627054 +0700,
