lang,wordid,truestate,worddir,imgdir,thisN,thisTrialN,thisRepN,key_resp.keys,key_resp.rt,key_resp.duration,trials.thisRepN,trials.thisTrialN,trials.thisN,trials.thisIndex,thisRow.t,notes,tutorial.started,tutorial.stopped,key_instruct.keys,key_instruct.rt,key_instruct.duration,plusblank.started,wordshow.started,image.started,plsuer.started,wordshow.stopped,imageword.started,key_resp.started,trials.key_resp.keys,trials.key_resp.rt,trials.key_resp.duration,image.stopped,plsuer.stopped,plusblank.stopped,ending.started,text_3.started,ending_key.started,ending.stopped,ending_key.keys,ending_key.rt,ending_key.duration,participant,session,date,expName,psychopyVersion,frameRate,expStart,
,,,,,,,,,,,,,,,,,0.003352100000483915,1.2740656999958446,space,1.246599599995534,None,,,,,,,,,,,,,,,,,,,,,KN_th,001,2025-03-11_23h22.42.783,MainFlow,2024.2.4,144.029543330144,2025-03-11 23h22.54.331550 +0700,
1,51,0,word/wordth0511.png,image/False/imgf51.png,0,0,0,x,0.6408464000123786,None,0,0,0,0,1.3216357000055723,,,,,,,2.784650600005989,2.2763680999923963,2.3017185000062454,2.3017185000062454,2.7783077000058256,3.9342802000028314,3.9342802000028314,x,0.6408464000123786,None,,,,,,,,,,,KN_th,001,2025-03-11_23h22.42.783,MainFlow,2024.2.4,144.029543330144,2025-03-11 23h22.54.331550 +0700,
1,66,1,word/wordth0661.png,image/True/img66.png,1,1,0,z,0.39624619999085553,None,0,1,1,1,4.582899000000907,,,,,,,6.0758481999946525,5.582343999994919,5.5858910999959335,5.5858910999959335,6.070972000001348,7.195920700003626,7.195920700003626,z,0.39624619999085553,None,6.0758481999946525,6.0758481999946525,7.195920700003626,,,,,,,,KN_th,001,2025-03-11_23h22.42.783,MainFlow,2024.2.4,144.029543330144,2025-03-11 23h22.54.331550 +0700,
1,60,1,word/wordth0601.png,image/True/img60.png,2,2,0,z,0.41704919999756385,None,0,2,2,2,7.6031471000023885,,,,,,,9.096174499994959,8.60116079999716,8.604523400004837,8.604523400004837,9.091002000001026,10.201904500005185,10.201904500005185,z,0.41704919999756385,None,9.096174499994959,9.096174499994959,10.201904500005185,,,,,,,,KN_th,001,2025-03-11_23h22.42.783,MainFlow,2024.2.4,144.029543330144,2025-03-11 23h22.54.331550 +0700,
1,46,0,word/wordth0461.png,image/False/imgf46.png,3,3,0,x,0.47028140000475105,None,0,3,3,3,10.63030930000241,,,,,,,12.123209500001394,11.626931499995408,11.630484599998454,11.630484599998454,12.118270799997845,13.262293699997826,13.262293699997826,x,0.47028140000475105,None,12.123209500001394,12.123209500001394,13.262293699997826,,,,,,,,KN_th,001,2025-03-11_23h22.42.783,MainFlow,2024.2.4,144.029543330144,2025-03-11 23h22.54.331550 +0700,
1,24,1,word/wordth0241.png,image/True/img24.png,4,4,0,z,0.399762400003965,None,0,4,4,4,13.7407125000027,,,,,,,15.240691600003629,14.743771199995535,14.747305400000187,14.747305400000187,15.23496289999457,16.31599129999813,16.31599129999813,z,0.399762400003965,None,15.240691600003629,15.240691600003629,,,,,,,,,KN_th,001,2025-03-11_23h22.42.783,MainFlow,2024.2.4,144.029543330144,2025-03-11 23h22.54.331550 +0700,
1,68,1,word/wordth0681.png,image/True/img68.png,5,5,0,z,0.40430590001051314,None,0,5,5,5,16.726313699997263,,,,,,,18.219281800003955,17.72062969999388,17.724034400001983,17.724034400001983,18.21394159999909,19.30269359999511,19.30269359999511,z,0.40430590001051314,None,18.219281800003955,18.219281800003955,19.30269359999511,,,,,,,,KN_th,001,2025-03-11_23h22.42.783,MainFlow,2024.2.4,144.029543330144,2025-03-11 23h22.54.331550 +0700,
1,22,0,word/wordth0221.png,image/False/imgf22.png,6,6,0,x,0.47815549999359064,None,0,6,6,6,19.718716400006087,,,,,,,21.218631099996855,20.719936299996334,20.723303599996143,20.723303599996143,21.213170400005765,22.329238199992687,22.329238199992687,x,0.47815549999359064,None,21.218631099996855,21.218631099996855,,,,,,,,,KN_th,001,2025-03-11_23h22.42.783,MainFlow,2024.2.4,144.029543330144,2025-03-11 23h22.54.331550 +0700,
1,36,1,word/wordth0361.png,image/True/img36.png,7,7,0,z,0.42104650000692345,None,0,7,7,7,22.815509799998836,,,,,,,24.308242700004485,23.809547400000156,23.81283369999437,23.81283369999437,24.302486200002022,25.397251000002143,25.397251000002143,z,0.42104650000692345,None,24.308242700004485,24.308242700004485,25.397251000002143,,,,,,,,KN_th,001,2025-03-11_23h22.42.783,MainFlow,2024.2.4,144.029543330144,2025-03-11 23h22.54.331550 +0700,
1,68,0,word/wordth0681.png,image/False/imgf68.png,8,8,0,x,0.38123639998957515,None,0,8,8,8,25.828717600001255,,,,,,,27.328372300005867,26.829743299997062,26.833110999999917,26.833110999999917,27.322232599995914,28.41014279999945,28.41014279999945,x,0.38123639998957515,None,27.328372300005867,27.328372300005867,,,,,,,,,KN_th,001,2025-03-11_23h22.42.783,MainFlow,2024.2.4,144.029543330144,2025-03-11 23h22.54.331550 +0700,
1,16,1,word/wordth0161.png,image/True/img16.png,9,9,0,z,0.8026591000088956,None,0,9,9,9,28.800571200001286,,,,,,,30.300156700002844,29.801029099995503,29.804374500003178,29.804374500003178,30.294310800003586,31.431545200000983,31.431545200000983,z,0.8026591000088956,None,30.300156700002844,30.300156700002844,,,,,,,,,KN_th,001,2025-03-11_23h22.42.783,MainFlow,2024.2.4,144.029543330144,2025-03-11 23h22.54.331550 +0700,
1,94,1,word/wordth0941.png,image/True/img94.png,10,10,0,z,0.3199083000072278,None,0,10,10,10,32.24409019999439,,,,,,,33.73695989999396,33.24194429999625,33.245471400005044,33.245471400005044,33.731087399995886,34.84157439999399,34.84157439999399,z,0.3199083000072278,None,33.73695989999396,33.73695989999396,34.84157439999399,,,,,,,,KN_th,001,2025-03-11_23h22.42.783,MainFlow,2024.2.4,144.029543330144,2025-03-11 23h22.54.331550 +0700,
1,95,0,word/wordth0951.png,image/False/imgf95.png,11,11,0,x,0.4086466000007931,None,0,11,11,11,35.16719989999547,,,,,,,36.66704010000103,36.16930130000401,36.17280149999715,36.17280149999715,36.66120119999687,37.77556860000186,37.77556860000186,x,0.4086466000007931,None,36.66704010000103,36.66704010000103,,,,,,,,,KN_th,001,2025-03-11_23h22.42.783,MainFlow,2024.2.4,144.029543330144,2025-03-11 23h22.54.331550 +0700,
1,30,0,word/wordth0301.png,image/False/imgf30.png,12,12,0,z,0.33987459998752456,None,0,12,12,12,38.194379699998535,,,,,,,39.694255900001735,39.195589299997664,39.198849899999914,39.198849899999914,39.68828220000432,40.796507099992596,40.796507099992596,z,0.33987459998752456,None,39.694255900001735,39.694255900001735,,,,,,,,,KN_th,001,2025-03-11_23h22.42.783,MainFlow,2024.2.4,144.029543330144,2025-03-11 23h22.54.331550 +0700,
1,20,1,word/wordth0201.png,image/True/img20.png,13,13,0,z,0.5855831000080798,None,0,13,13,13,41.1454420999944,,,,,,,42.63801300000341,42.145670900004916,42.14892029999464,42.14892029999464,42.6321639999951,43.776382099997136,43.776382099997136,z,0.5855831000080798,None,42.63801300000341,42.63801300000341,43.776382099997136,,,,,,,,KN_th,001,2025-03-11_23h22.42.783,MainFlow,2024.2.4,144.029543330144,2025-03-11 23h22.54.331550 +0700,
1,42,0,word/wordth0421.png,image/False/imgf42.png,14,14,0,x,0.41944230000081006,None,0,14,14,14,44.373716500005685,,,,,,,45.85970689999522,45.36722369999916,45.370215000002645,45.370215000002645,45.85394450000604,47.00235840000096,47.00235840000096,x,0.41944230000081006,None,45.85970689999522,45.85970689999522,47.00235840000096,,,,,,,,KN_th,001,2025-03-11_23h22.42.783,MainFlow,2024.2.4,144.029543330144,2025-03-11 23h22.54.331550 +0700,
1,31,1,word/wordth0311.png,image/True/img31.png,15,15,0,z,0.33836739999242127,None,0,15,15,15,47.4306712999969,,,,,,,48.92873450000479,48.42992310000409,48.43339219999325,48.43339219999325,48.922761099995114,50.031358799999,50.031358799999,z,0.33836739999242127,None,48.92873450000479,48.92873450000479,,,,,,,,,KN_th,001,2025-03-11_23h22.42.783,MainFlow,2024.2.4,144.029543330144,2025-03-11 23h22.54.331550 +0700,
1,55,1,word/wordth0551.png,image/True/img55.png,16,16,0,z,0.5509080000047106,None,0,16,16,16,50.37941019999562,,,,,,,51.8725953999965,51.37628650000261,51.37963929999387,51.37963929999387,51.86733209999511,53.007280299993,53.007280299993,z,0.5509080000047106,None,51.8725953999965,51.8725953999965,53.007280299993,,,,,,,,KN_th,001,2025-03-11_23h22.42.783,MainFlow,2024.2.4,144.029543330144,2025-03-11 23h22.54.331550 +0700,
1,36,1,word/wordth0361.png,image/True/img36.png,17,17,0,z,0.6614802999974927,None,0,17,17,17,53.568363500002306,,,,,,,55.066187999997055,54.571487699999125,54.575184899993474,54.575184899993474,55.06031909999729,56.163881200001924,56.163881200001924,z,0.6614802999974927,None,55.066187999997055,55.066187999997055,56.163881200001924,,,,,,,,KN_th,001,2025-03-11_23h22.42.783,MainFlow,2024.2.4,144.029543330144,2025-03-11 23h22.54.331550 +0700,
1,9,1,word/wordth0091.png,image/True/img09.png,18,18,0,z,0.33996930001012515,None,0,18,18,18,56.83660169999348,,,,,,,58.33636899999692,57.84021120000398,57.84357779999846,57.84357779999846,58.33053700000164,59.40360510000028,59.40360510000028,z,0.33996930001012515,None,58.33636899999692,58.33636899999692,,,,,,,,,KN_th,001,2025-03-11_23h22.42.783,MainFlow,2024.2.4,144.029543330144,2025-03-11 23h22.54.331550 +0700,
1,64,1,word/wordth0641.png,image/True/img64.png,19,19,0,z,0.3746608999936143,None,0,19,19,19,59.75486329999694,,,,,,,61.24585659999866,60.751097300002584,60.75456649999251,60.75456649999251,61.24077829999442,62.31798979999439,62.31798979999439,z,0.3746608999936143,None,61.24585659999866,61.24585659999866,62.31798979999439,,,,,,,,KN_th,001,2025-03-11_23h22.42.783,MainFlow,2024.2.4,144.029543330144,2025-03-11 23h22.54.331550 +0700,
1,95,1,word/wordth0951.png,image/True/img95.png,20,20,0,z,0.4657477000000654,None,0,20,20,20,62.703488600003766,,,,,,,64.18947539999499,63.693424900004175,63.69650750000437,63.69650750000437,64.18388169999525,65.32257329999993,65.32257329999993,z,0.4657477000000654,None,64.18947539999499,64.18947539999499,65.32257329999993,,,,,,,,KN_th,001,2025-03-11_23h22.42.783,MainFlow,2024.2.4,144.029543330144,2025-03-11 23h22.54.331550 +0700,
1,41,1,word/wordth0411.png,image/True/img41.png,21,21,0,z,0.37387280000257306,None,0,21,21,21,65.80008590000216,,,,,,,67.29308049999236,66.79991250000603,66.80320619999839,66.80320619999839,67.28792679999606,68.40848129999358,68.40848129999358,z,0.37387280000257306,None,67.29308049999236,67.29308049999236,68.40848129999358,,,,,,,,KN_th,001,2025-03-11_23h22.42.783,MainFlow,2024.2.4,144.029543330144,2025-03-11 23h22.54.331550 +0700,
1,8,1,word/wordth0081.png,image/True/img08.png,22,22,0,z,0.46441699999559205,None,0,22,22,22,68.79264919999696,,,,,,,70.28557520000322,69.7885263999924,69.79187299999467,69.79187299999467,70.28041300000041,71.38376280000375,71.38376280000375,z,0.46441699999559205,None,70.28557520000322,70.28557520000322,71.38376280000375,,,,,,,,KN_th,001,2025-03-11_23h22.42.783,MainFlow,2024.2.4,144.029543330144,2025-03-11 23h22.54.331550 +0700,
1,60,1,word/wordth0601.png,image/True/img60.png,23,23,0,z,0.3637521999917226,None,0,23,23,23,71.85484359999828,,,,,,,73.35437489999458,72.85518250000314,72.85862709999492,72.85862709999492,73.34855339999194,74.45155490000616,74.45155490000616,z,0.3637521999917226,None,73.35437489999458,73.35437489999458,,,,,,,,,KN_th,001,2025-03-11_23h22.42.783,MainFlow,2024.2.4,144.029543330144,2025-03-11 23h22.54.331550 +0700,
1,48,0,word/wordth0481.png,image/False/imgf48.png,24,24,0,x,0.42440679999708664,None,0,24,24,24,74.8260420000006,,,,,,,76.31889159999264,75.82588540000143,75.82914359999995,75.82914359999995,76.3128066999925,77.45570459999726,77.45570459999726,x,0.42440679999708664,None,76.31889159999264,76.31889159999264,77.45570459999726,,,,,,,,KN_th,001,2025-03-11_23h22.42.783,MainFlow,2024.2.4,144.029543330144,2025-03-11 23h22.54.331550 +0700,
1,41,0,word/wordth0411.png,image/False/imgf41.png,25,25,0,x,0.3365191000048071,None,0,25,25,25,77.8900117000012,,,,,,,79.38095609999436,78.88262410000607,78.88596660000621,78.88596660000621,79.37524710000434,80.44974009999714,80.44974009999714,x,0.3365191000048071,None,79.38095609999436,79.38095609999436,80.44974009999714,,,,,,,,KN_th,001,2025-03-11_23h22.42.783,MainFlow,2024.2.4,144.029543330144,2025-03-11 23h22.54.331550 +0700,
1,54,0,word/wordth0541.png,image/False/imgf54.png,26,26,0,x,0.3939480000117328,None,0,26,26,26,80.79732220000005,,,,,,,82.28995750000468,81.79275049999706,81.79601900000125,81.79601900000125,82.28390629999922,83.40335320000304,83.40335320000304,x,0.3939480000117328,None,82.28995750000468,82.28995750000468,83.40335320000304,,,,,,,,KN_th,001,2025-03-11_23h22.42.783,MainFlow,2024.2.4,144.029543330144,2025-03-11 23h22.54.331550 +0700,
1,54,1,word/wordth0541.png,image/True/img54.png,27,27,0,z,0.3054644000076223,None,0,27,27,27,83.8036071999959,,,,,,,85.29650110000512,84.79861709999386,84.8019881999935,84.8019881999935,85.29067810000561,86.43783569999505,86.43783569999505,z,0.3054644000076223,None,85.29650110000512,85.29650110000512,86.43783569999505,,,,,,,,KN_th,001,2025-03-11_23h22.42.783,MainFlow,2024.2.4,144.029543330144,2025-03-11 23h22.54.331550 +0700,
1,63,0,word/wordth0631.png,image/False/imgf63.png,28,28,0,x,0.3971770999924047,None,0,28,28,28,86.75446430000011,,,,,,,88.24731979999342,87.74940980000247,87.75270949999685,87.75270949999685,88.24210499999754,89.37901380000403,89.37901380000403,x,0.3971770999924047,None,88.24731979999342,88.24731979999342,89.37901380000403,,,,,,,,KN_th,001,2025-03-11_23h22.42.783,MainFlow,2024.2.4,144.029543330144,2025-03-11 23h22.54.331550 +0700,
1,37,0,word/wordth0371.png,image/False/imgf37.png,29,29,0,x,0.5699856999999611,None,0,29,29,29,89.78842310000618,,,,,,,91.2882757000043,90.79167629999574,90.7952065999998,90.7952065999998,91.28248829999939,92.43457899999339,92.43457899999339,x,0.5699856999999611,None,91.2882757000043,91.2882757000043,,,,,,,,,KN_th,001,2025-03-11_23h22.42.783,MainFlow,2024.2.4,144.029543330144,2025-03-11 23h22.54.331550 +0700,
1,54,0,word/wordth0541.png,image/False/imgf54.png,30,30,0,x,0.33784070001274813,None,0,30,30,30,93.01710470000398,,,,,,,94.51695999999356,94.01856759999646,94.02224419999402,94.02224419999402,94.51096679999318,95.63001660000009,95.63001660000009,x,0.33784070001274813,None,94.51695999999356,94.51695999999356,,,,,,,,,KN_th,001,2025-03-11_23h22.42.783,MainFlow,2024.2.4,144.029543330144,2025-03-11 23h22.54.331550 +0700,
1,48,1,word/wordth0481.png,image/True/img48.png,31,31,0,z,0.32571699999971315,None,0,31,31,31,95.97675030000391,,,,,,,97.46067869999388,96.96784480000497,96.9708043999999,96.9708043999999,97.45487410000351,98.59103510000568,98.59103510000568,z,0.32571699999971315,None,97.46067869999388,97.46067869999388,98.59103510000568,,,,,,,,KN_th,001,2025-03-11_23h22.42.783,MainFlow,2024.2.4,144.029543330144,2025-03-11 23h22.54.331550 +0700,
1,26,0,word/wordth0261.png,image/False/imgf26.png,32,32,0,x,0.7096497000020463,None,0,32,32,32,98.92562759999419,,,,,,,100.41871119999269,99.92274700000416,99.92659879999701,99.92659879999701,100.41359369999554,101.54231069999514,101.54231069999514,x,0.7096497000020463,None,100.41871119999269,100.41871119999269,101.54231069999514,,,,,,,,KN_th,001,2025-03-11_23h22.42.783,MainFlow,2024.2.4,144.029543330144,2025-03-11 23h22.54.331550 +0700,
1,59,0,word/wordth0591.png,image/False/imgf59.png,33,33,0,x,0.3476654999976745,None,0,33,33,33,102.25935379999282,,,,,,,103.75808260000485,103.26107910000428,103.26438069999858,103.26438069999858,103.75215149999713,104.84735660000297,104.84735660000297,x,0.3476654999976745,None,103.75808260000485,103.75808260000485,104.84735660000297,,,,,,,,KN_th,001,2025-03-11_23h22.42.783,MainFlow,2024.2.4,144.029543330144,2025-03-11 23h22.54.331550 +0700,
1,8,1,word/wordth0081.png,image/True/img08.png,34,34,0,x,0.31752810000034515,None,0,34,34,34,105.20228689999203,,,,,,,106.6951482000004,106.20141650000005,106.20476130000316,106.20476130000316,106.6899415999942,107.78357260000485,107.78357260000485,x,0.31752810000034515,None,106.6951482000004,106.6951482000004,107.78357260000485,,,,,,,,KN_th,001,2025-03-11_23h22.42.783,MainFlow,2024.2.4,144.029543330144,2025-03-11 23h22.54.331550 +0700,
1,66,1,word/wordth0661.png,image/True/img66.png,35,35,0,z,0.4243315000057919,None,0,35,35,35,108.11130239999329,,,,,,,109.61112420000427,109.11346419999609,109.117213000005,109.117213000005,109.60487260000082,110.73064929999236,110.73064929999236,z,0.4243315000057919,None,109.61112420000427,109.61112420000427,,,,,,,,,KN_th,001,2025-03-11_23h22.42.783,MainFlow,2024.2.4,144.029543330144,2025-03-11 23h22.54.331550 +0700,
1,24,0,word/wordth0241.png,image/False/imgf24.png,36,36,0,x,0.9585246999922674,None,0,36,36,36,111.16629799999646,,,,,,,112.65918590000365,112.16628970000602,112.1699934000062,112.1699934000062,112.65341040000203,113.76204839999264,113.76204839999264,x,0.9585246999922674,None,112.65918590000365,112.65918590000365,113.76204839999264,,,,,,,,KN_th,001,2025-03-11_23h22.42.783,MainFlow,2024.2.4,144.029543330144,2025-03-11 23h22.54.331550 +0700,
1,14,1,word/wordth0141.png,image/True/img14.png,37,37,0,z,0.4504734000074677,None,0,37,37,37,114.72811320000619,,,,,,,116.21416079999472,115.71992790000513,115.72275689999515,115.72275689999515,116.20897089999926,117.33477370000037,117.33477370000037,z,0.4504734000074677,None,116.21416079999472,116.21416079999472,117.33477370000037,,,,,,,,KN_th,001,2025-03-11_23h22.42.783,MainFlow,2024.2.4,144.029543330144,2025-03-11 23h22.54.331550 +0700,
1,20,0,word/wordth0201.png,image/False/imgf20.png,38,38,0,x,0.45722339999338146,None,0,38,38,38,117.79688090000127,,,,,,,119.29672450000362,118.80175369999779,118.80540630000178,118.80540630000178,119.29087430000072,120.44167800000287,120.44167800000287,x,0.45722339999338146,None,119.29672450000362,119.29672450000362,,,,,,,,,KN_th,001,2025-03-11_23h22.42.783,MainFlow,2024.2.4,144.029543330144,2025-03-11 23h22.54.331550 +0700,
1,89,0,word/wordth0891.png,image/False/imgf89.png,39,39,0,z,0.3828114999923855,None,0,39,39,39,120.90993159999198,,,,,,,122.4003847999993,121.9034382999962,121.90678609999304,121.90678609999304,122.39518629999657,123.5081949000014,123.5081949000014,z,0.3828114999923855,None,122.4003847999993,122.4003847999993,123.5081949000014,,,,,,,,KN_th,001,2025-03-11_23h22.42.783,MainFlow,2024.2.4,144.029543330144,2025-03-11 23h22.54.331550 +0700,
1,64,0,word/wordth0641.png,image/False/imgf64.png,40,40,0,x,0.5159942000027513,None,0,40,40,40,123.90093999999226,,,,,,,125.39297610000358,124.89990740000212,124.9034374000039,124.9034374000039,125.38767640000151,126.47262269999192,126.47262269999192,x,0.5159942000027513,None,125.39297610000358,125.39297610000358,126.47262269999192,,,,,,,,KN_th,001,2025-03-11_23h22.42.783,MainFlow,2024.2.4,144.029543330144,2025-03-11 23h22.54.331550 +0700,
1,56,1,word/wordth0561.png,image/True/img56.png,41,41,0,z,1.4336367000069004,None,0,41,41,41,126.9965222000028,,,,,,,128.4894137999945,127.99225999999908,127.99556939999457,127.99556939999457,128.48344349999388,129.60223449999467,129.60223449999467,z,1.4336367000069004,None,128.4894137999945,128.4894137999945,129.60223449999467,,,,,,,,KN_th,001,2025-03-11_23h22.42.783,MainFlow,2024.2.4,144.029543330144,2025-03-11 23h22.54.331550 +0700,
1,15,1,word/wordth0151.png,image/True/img15.png,42,42,0,z,0.5298563000105787,None,0,42,42,42,131.04441299999598,,,,,,,132.53745580000395,132.0427689000062,132.0461110000033,132.0461110000033,132.53170579999278,133.68059580000408,133.68059580000408,z,0.5298563000105787,None,132.53745580000395,132.53745580000395,133.68059580000408,,,,,,,,KN_th,001,2025-03-11_23h22.42.783,MainFlow,2024.2.4,144.029543330144,2025-03-11 23h22.54.331550 +0700,
1,88,0,word/wordth0881.png,image/False/imgf88.png,43,43,0,x,0.663474100001622,None,0,43,43,43,134.21745890000602,,,,,,,135.71036719999393,135.21644899999956,135.21977339999285,135.21977339999285,135.70503889999236,136.82914069999242,136.82914069999242,x,0.663474100001622,None,135.71036719999393,135.71036719999393,136.82914069999242,,,,,,,,KN_th,001,2025-03-11_23h22.42.783,MainFlow,2024.2.4,144.029543330144,2025-03-11 23h22.54.331550 +0700,
1,94,1,word/wordth0941.png,image/True/img94.png,44,44,0,z,0.3067894999985583,None,0,44,44,44,137.5015729000006,,,,,,,139.00137260000338,138.50408060000336,138.5077903999918,138.5077903999918,138.9960063000035,140.1110589000018,140.1110589000018,z,0.3067894999985583,None,139.00137260000338,139.00137260000338,,,,,,,,,KN_th,001,2025-03-11_23h22.42.783,MainFlow,2024.2.4,144.029543330144,2025-03-11 23h22.54.331550 +0700,
1,40,0,word/wordth0401.png,image/False/imgf40.png,45,45,0,x,0.46456920000491664,None,0,45,45,45,140.42669799999567,,,,,,,141.91733519999252,141.42377130000386,141.42704789999698,141.42704789999698,141.91148680000333,143.02001369999198,143.02001369999198,x,0.46456920000491664,None,141.91733519999252,141.91733519999252,143.02001369999198,,,,,,,,KN_th,001,2025-03-11_23h22.42.783,MainFlow,2024.2.4,144.029543330144,2025-03-11 23h22.54.331550 +0700,
1,41,0,word/wordth0411.png,image/False/imgf41.png,46,46,0,x,0.3277298999892082,None,0,46,46,46,143.4933752999932,,,,,,,144.98633529999643,144.48866449999332,144.4920667999977,144.4920667999977,144.98062849999405,146.07300020000548,146.07300020000548,x,0.3277298999892082,None,144.98633529999643,144.98633529999643,146.07300020000548,,,,,,,,KN_th,001,2025-03-11_23h22.42.783,MainFlow,2024.2.4,144.029543330144,2025-03-11 23h22.54.331550 +0700,
1,7,1,word/wordth0071.png,image/True/img07.png,47,47,0,z,0.4829003000049852,None,0,47,47,47,146.40947640000377,,,,,,,147.90243269999337,147.40448179999657,147.40789360000053,147.40789360000053,147.89744050000445,149.0225092000037,149.0225092000037,z,0.4829003000049852,None,147.90243269999337,147.90243269999337,149.0225092000037,,,,,,,,KN_th,001,2025-03-11_23h22.42.783,MainFlow,2024.2.4,144.029543330144,2025-03-11 23h22.54.331550 +0700,
1,60,0,word/wordth0601.png,image/False/imgf60.png,48,48,0,x,0.4261100999865448,None,0,48,48,48,149.5130793999997,,,,,,,151.0059304000024,150.51127109999652,150.51454679999733,150.51454679999733,151.00065250000625,152.11012309999205,152.11012309999205,x,0.4261100999865448,None,151.0059304000024,151.0059304000024,152.11012309999205,,,,,,,,KN_th,001,2025-03-11_23h22.42.783,MainFlow,2024.2.4,144.029543330144,2025-03-11 23h22.54.331550 +0700,
1,23,0,word/wordth0231.png,image/False/imgf23.png,49,49,0,x,0.37878440000349656,None,0,49,49,49,152.54858629999217,,,,,,,154.0469782,153.54917009999917,153.5527385000023,153.5527385000023,154.04143919999478,155.20726539999305,155.20726539999305,x,0.37878440000349656,None,154.0469782,154.0469782,155.20726539999305,,,,,,,,KN_th,001,2025-03-11_23h22.42.783,MainFlow,2024.2.4,144.029543330144,2025-03-11 23h22.54.331550 +0700,
1,68,0,word/wordth0681.png,image/False/imgf68.png,50,50,0,x,0.32238779999897815,None,0,50,50,50,155.5951825999946,,,,,,,157.08818489999976,156.59118780000426,156.59461499999452,156.59461499999452,157.0826331999997,158.1719585999963,158.1719585999963,x,0.32238779999897815,None,157.08818489999976,157.08818489999976,158.1719585999963,,,,,,,,KN_th,001,2025-03-11_23h22.42.783,MainFlow,2024.2.4,144.029543330144,2025-03-11 23h22.54.331550 +0700,
1,26,1,word/wordth0261.png,image/True/img26.png,51,51,0,z,0.34719469999254216,None,0,51,51,51,158.50633989999187,,,,,,,159.99044579999463,159.498282200002,159.50101480000012,159.50101480000012,159.98525260000315,161.12412239999685,161.12412239999685,z,0.34719469999254216,None,159.99044579999463,159.99044579999463,161.12412239999685,,,,,,,,KN_th,001,2025-03-11_23h22.42.783,MainFlow,2024.2.4,144.029543330144,2025-03-11 23h22.54.331550 +0700,
1,89,0,word/wordth0891.png,image/False/imgf89.png,52,52,0,x,0.47884520000661723,None,0,52,52,52,161.482809299996,,,,,,,162.9827421999944,162.48448719999578,162.48789119999856,162.48789119999856,162.9774722000002,164.08418459999666,164.08418459999666,x,0.47884520000661723,None,162.9827421999944,162.9827421999944,,,,,,,,,KN_th,001,2025-03-11_23h22.42.783,MainFlow,2024.2.4,144.029543330144,2025-03-11 23h22.54.331550 +0700,
1,3,0,word/wordth0031.png,image/False/imgf03.png,53,53,0,x,0.36741170000459533,None,0,53,53,53,164.57264410000062,,,,,,,166.06538859999273,165.57113179999578,165.57442669999728,165.57442669999728,166.05955419999373,167.18063719999918,167.18063719999918,x,0.36741170000459533,None,166.06538859999273,166.06538859999273,167.18063719999918,,,,,,,,KN_th,001,2025-03-11_23h22.42.783,MainFlow,2024.2.4,144.029543330144,2025-03-11 23h22.54.331550 +0700,
1,55,1,word/wordth0551.png,image/True/img55.png,54,54,0,z,0.4766606000048341,None,0,54,54,54,167.55810429999838,,,,,,,169.0580217999959,168.56229370000074,168.56601110000338,168.56601110000338,169.05214179999894,170.1692972000019,170.1692972000019,z,0.4766606000048341,None,169.0580217999959,169.0580217999959,,,,,,,,,KN_th,001,2025-03-11_23h22.42.783,MainFlow,2024.2.4,144.029543330144,2025-03-11 23h22.54.331550 +0700,
1,46,1,word/wordth0461.png,image/True/img46.png,55,55,0,z,0.3045877999975346,None,0,55,55,55,170.65528130000166,,,,,,,172.14778460000525,171.65071590000298,171.65403279999737,171.65403279999737,172.1425273000059,173.28828079999948,173.28828079999948,z,0.3045877999975346,None,172.14778460000525,172.14778460000525,173.28828079999948,,,,,,,,KN_th,001,2025-03-11_23h22.42.783,MainFlow,2024.2.4,144.029543330144,2025-03-11 23h22.54.331550 +0700,
1,1,1,word/wordth0011.png,image/True/img01.png,56,56,0,z,0.41579270000511315,None,0,56,56,56,173.6054437999992,,,,,,,175.09850619999634,174.60560929999338,174.60891690000426,174.60891690000426,175.09329809999326,176.21225640000193,176.21225640000193,z,0.41579270000511315,None,175.09850619999634,175.09850619999634,176.21225640000193,,,,,,,,KN_th,001,2025-03-11_23h22.42.783,MainFlow,2024.2.4,144.029543330144,2025-03-11 23h22.54.331550 +0700,
1,3,1,word/wordth0031.png,image/True/img03.png,57,57,0,z,0.36503349999838974,None,0,57,57,57,176.63967079999566,,,,,,,178.132649399995,177.63676330000453,177.6401021000056,177.6401021000056,178.1276263000036,179.23885009999503,179.23885009999503,z,0.36503349999838974,None,178.132649399995,178.132649399995,179.23885009999503,,,,,,,,KN_th,001,2025-03-11_23h22.42.783,MainFlow,2024.2.4,144.029543330144,2025-03-11 23h22.54.331550 +0700,
1,76,1,word/wordth0761.png,image/True/img76.png,58,58,0,z,0.34339040001214016,None,0,58,58,58,179.61286269999982,,,,,,,181.10442659999535,180.6057385000022,180.60890279999876,180.60890279999876,181.09910799999489,182.2225083999947,182.2225083999947,z,0.34339040001214016,None,181.10442659999535,181.10442659999535,182.2225083999947,,,,,,,,KN_th,001,2025-03-11_23h22.42.783,MainFlow,2024.2.4,144.029543330144,2025-03-11 23h22.54.331550 +0700,
1,52,0,word/wordth0521.png,image/False/imgf52.png,59,59,0,x,0.4972204000077909,None,0,59,59,59,182.5759987999918,,,,,,,184.07583169999998,183.57775270000275,183.58143170000403,183.58143170000403,184.07011649999185,185.16747990000295,185.16747990000295,x,0.4972204000077909,None,184.07583169999998,184.07583169999998,,,,,,,,,KN_th,001,2025-03-11_23h22.42.783,MainFlow,2024.2.4,144.029543330144,2025-03-11 23h22.54.331550 +0700,
1,14,0,word/wordth0141.png,image/False/imgf14.png,60,60,0,x,0.3535995999991428,None,0,60,60,60,185.67276169999968,,,,,,,187.16550780000398,186.6681860999961,186.67147919999843,186.67147919999843,187.15988930000458,188.2789702000009,188.2789702000009,x,0.3535995999991428,None,187.16550780000398,187.16550780000398,188.2789702000009,,,,,,,,KN_th,001,2025-03-11_23h22.42.783,MainFlow,2024.2.4,144.029543330144,2025-03-11 23h22.54.331550 +0700,
1,61,1,word/wordth0611.png,image/True/img61.png,61,61,0,z,0.3656899999914458,None,0,61,61,61,188.64427299999807,,,,,,,190.13716100000602,189.64085159999377,189.6441668000043,189.6441668000043,190.13194560000557,191.2559070999996,191.2559070999996,z,0.3656899999914458,None,190.13716100000602,190.13716100000602,191.2559070999996,,,,,,,,KN_th,001,2025-03-11_23h22.42.783,MainFlow,2024.2.4,144.029543330144,2025-03-11 23h22.54.331550 +0700,
1,93,0,word/wordth0931.png,image/False/imgf93.png,62,62,0,x,0.874583500000881,None,0,62,62,62,191.629732100002,,,,,,,193.1158812999929,192.6234633999993,192.62686170000234,192.62686170000234,193.11026560000028,194.21310930000618,194.21310930000618,x,0.874583500000881,None,193.1158812999929,193.1158812999929,194.21310930000618,,,,,,,,KN_th,001,2025-03-11_23h22.42.783,MainFlow,2024.2.4,144.029543330144,2025-03-11 23h22.54.331550 +0700,
1,37,1,word/wordth0371.png,image/True/img37.png,63,63,0,z,0.3479496000072686,None,0,63,63,63,195.09553409999353,,,,,,,196.58752580000146,196.09464989999833,196.09806059999391,196.09806059999391,196.5815397999977,197.74145339999814,197.74145339999814,z,0.3479496000072686,None,196.58752580000146,196.58752580000146,197.74145339999814,,,,,,,,KN_th,001,2025-03-11_23h22.42.783,MainFlow,2024.2.4,144.029543330144,2025-03-11 23h22.54.331550 +0700,
1,79,0,word/wordth0791.png,image/False/imgf79.png,64,64,0,x,0.3819978999963496,None,0,64,64,64,198.10069069999736,,,,,,,199.59368799999356,199.10079589999805,199.1041327999992,199.1041327999992,199.58824840000307,200.73018660000525,200.73018660000525,x,0.3819978999963496,None,199.59368799999356,199.59368799999356,200.73018660000525,,,,,,,,KN_th,001,2025-03-11_23h22.42.783,MainFlow,2024.2.4,144.029543330144,2025-03-11 23h22.54.331550 +0700,
1,37,0,word/wordth0371.png,image/False/imgf37.png,65,65,0,x,0.3986561000056099,None,0,65,65,65,201.12106069999572,,,,,,,202.61402700000326,202.12027949999901,202.12363940000068,202.12363940000068,202.60863020000397,203.76152020000154,203.76152020000154,x,0.3986561000056099,None,202.61402700000326,202.61402700000326,203.76152020000154,,,,,,,,KN_th,001,2025-03-11_23h22.42.783,MainFlow,2024.2.4,144.029543330144,2025-03-11 23h22.54.331550 +0700,
1,3,1,word/wordth0031.png,image/True/img03.png,66,66,0,z,0.44452459999592975,None,0,66,66,66,204.16909349999332,,,,,,,205.66194299999916,205.16398559999652,205.16749740000523,205.16749740000523,205.65625519999594,206.77738509999472,206.77738509999472,z,0.44452459999592975,None,205.66194299999916,205.66194299999916,206.77738509999472,,,,,,,,KN_th,001,2025-03-11_23h22.42.783,MainFlow,2024.2.4,144.029543330144,2025-03-11 23h22.54.331550 +0700,
1,93,0,word/wordth0931.png,image/False/imgf93.png,67,67,0,x,0.5389855999965221,None,0,67,67,67,207.2309591999947,,,,,,,208.72384639999655,208.23038860000088,208.2337217000022,208.2337217000022,208.7178935999982,209.81457819999196,209.81457819999196,x,0.5389855999965221,None,208.72384639999655,208.72384639999655,209.81457819999196,,,,,,,,KN_th,001,2025-03-11_23h22.42.783,MainFlow,2024.2.4,144.029543330144,2025-03-11 23h22.54.331550 +0700,
1,30,1,word/wordth0301.png,image/True/img30.png,68,68,0,z,0.6369940000004135,None,0,68,68,68,210.36231009999756,,,,,,,211.85521330000483,211.35789769999974,211.36117819999345,211.36117819999345,211.84967619999952,212.95578780000506,212.95578780000506,z,0.6369940000004135,None,211.85521330000483,211.85521330000483,212.95578780000506,,,,,,,,KN_th,001,2025-03-11_23h22.42.783,MainFlow,2024.2.4,144.029543330144,2025-03-11 23h22.54.331550 +0700,
1,46,0,word/wordth0461.png,image/False/imgf46.png,69,69,0,x,0.47304679999069776,None,0,69,69,69,213.60463499999605,,,,,,,215.0976207000058,214.60525860000052,214.608499199996,214.608499199996,215.0923874,216.23170459999528,216.23170459999528,x,0.47304679999069776,None,215.0976207000058,215.0976207000058,216.23170459999528,,,,,,,,KN_th,001,2025-03-11_23h22.42.783,MainFlow,2024.2.4,144.029543330144,2025-03-11 23h22.54.331550 +0700,
1,27,0,word/wordth0271.png,image/False/imgf27.png,70,70,0,x,0.43161959999997634,None,0,70,70,70,216.71522620000178,,,,,,,218.2012376999919,217.70934449999186,217.7119987000042,217.7119987000042,218.196320499992,219.30786570000055,219.30786570000055,x,0.43161959999997634,None,218.2012376999919,218.2012376999919,219.30786570000055,,,,,,,,KN_th,001,2025-03-11_23h22.42.783,MainFlow,2024.2.4,144.029543330144,2025-03-11 23h22.54.331550 +0700,
1,37,1,word/wordth0371.png,image/True/img37.png,71,71,0,z,0.37066450000565965,None,0,71,71,71,219.7495265000034,,,,,,,221.24235549999867,220.74620029999642,220.74964439999894,220.74964439999894,221.2364804999961,222.3827178999927,222.3827178999927,z,0.37066450000565965,None,221.24235549999867,221.24235549999867,222.3827178999927,,,,,,,,KN_th,001,2025-03-11_23h22.42.783,MainFlow,2024.2.4,144.029543330144,2025-03-11 23h22.54.331550 +0700,
1,20,1,word/wordth0201.png,image/True/img20.png,72,72,0,z,0.32040240000060294,None,0,72,72,72,222.76262749999296,,,,,,,224.26262049999787,223.76460829999996,223.76796719999402,223.76796719999402,224.25648840000213,225.38810260000173,225.38810260000173,z,0.32040240000060294,None,224.26262049999787,224.26262049999787,,,,,,,,,KN_th,001,2025-03-11_23h22.42.783,MainFlow,2024.2.4,144.029543330144,2025-03-11 23h22.54.331550 +0700,
1,17,1,word/wordth0171.png,image/True/img17.png,73,73,0,z,0.3798106000031112,None,0,73,73,73,225.72035990000586,,,,,,,227.2132416999957,226.71796910000558,226.72132769999735,226.72132769999735,227.20754069999384,228.32669610000448,228.32669610000448,z,0.3798106000031112,None,227.2132416999957,227.2132416999957,228.32669610000448,,,,,,,,KN_th,001,2025-03-11_23h22.42.783,MainFlow,2024.2.4,144.029543330144,2025-03-11 23h22.54.331550 +0700,
1,10,0,word/wordth0101.png,image/False/imgf10.png,74,74,0,x,0.41710629999579396,None,0,74,74,74,228.71293490000244,,,,,,,230.20556200000283,229.70758319999732,229.71081930000219,229.71081930000219,230.19939280000108,231.33029460000398,231.33029460000398,x,0.41710629999579396,None,230.20556200000283,230.20556200000283,231.33029460000398,,,,,,,,KN_th,001,2025-03-11_23h22.42.783,MainFlow,2024.2.4,144.029543330144,2025-03-11 23h22.54.331550 +0700,
1,68,1,word/wordth0681.png,image/True/img68.png,75,75,0,x,0.3231015000055777,None,0,75,75,75,231.75396990000445,,,,,,,233.2401785999973,232.74599860000308,232.7488435999985,232.7488435999985,233.23473080000258,234.31151470000623,234.31151470000623,x,0.3231015000055777,None,233.2401785999973,233.2401785999973,234.31151470000623,,,,,,,,KN_th,001,2025-03-11_23h22.42.783,MainFlow,2024.2.4,144.029543330144,2025-03-11 23h22.54.331550 +0700,
1,82,0,word/wordth0821.png,image/False/imgf82.png,76,76,0,x,0.3979834999918239,None,0,76,76,76,234.64228469999216,,,,,,,236.13555439999618,235.63702890000422,235.6403055999981,235.6403055999981,236.1300057000044,237.24574749999738,237.24574749999738,x,0.3979834999918239,None,236.13555439999618,236.13555439999618,237.24574749999738,,,,,,,,KN_th,001,2025-03-11_23h22.42.783,MainFlow,2024.2.4,144.029543330144,2025-03-11 23h22.54.331550 +0700,
1,42,1,word/wordth0421.png,image/True/img42.png,77,77,0,z,0.3839846999908332,None,0,77,77,77,237.6555126000021,,,,,,,239.1484860000055,238.65060530000483,238.65327529999195,238.65327529999195,239.1426325999928,240.26458719999937,240.26458719999937,z,0.3839846999908332,None,239.1484860000055,239.1484860000055,240.26458719999937,,,,,,,,KN_th,001,2025-03-11_23h22.42.783,MainFlow,2024.2.4,144.029543330144,2025-03-11 23h22.54.331550 +0700,
1,59,1,word/wordth0591.png,image/True/img59.png,78,78,0,z,0.3080597999942256,None,0,78,78,78,240.6550719999941,,,,,,,242.1478921999951,241.6521916000056,241.65550209999492,241.65550209999492,242.1422370999935,243.22369250000338,243.22369250000338,z,0.3080597999942256,None,242.1478921999951,242.1478921999951,243.22369250000338,,,,,,,,KN_th,001,2025-03-11_23h22.42.783,MainFlow,2024.2.4,144.029543330144,2025-03-11 23h22.54.331550 +0700,
1,18,1,word/wordth0181.png,image/True/img18.png,79,79,0,z,0.33467699999164324,None,0,79,79,79,243.54333830000542,,,,,,,245.0364675000019,244.54148800000257,244.5448805000051,244.5448805000051,245.03115690000413,246.13326119999692,246.13326119999692,z,0.33467699999164324,None,245.0364675000019,245.0364675000019,246.13326119999692,,,,,,,,KN_th,001,2025-03-11_23h22.42.783,MainFlow,2024.2.4,144.029543330144,2025-03-11 23h22.54.331550 +0700,
1,63,1,word/wordth0631.png,image/True/img63.png,80,80,0,z,0.3436970000038855,None,0,80,80,80,246.48025939999206,,,,,,,247.9731155000045,247.48002129999804,247.4833534000063,247.4833534000063,247.96735099999933,249.09444119999534,249.09444119999534,z,0.3436970000038855,None,247.9731155000045,247.9731155000045,249.09444119999534,,,,,,,,KN_th,001,2025-03-11_23h22.42.783,MainFlow,2024.2.4,144.029543330144,2025-03-11 23h22.54.331550 +0700,
1,40,0,word/wordth0401.png,image/False/imgf40.png,81,81,0,x,0.38437850000627805,None,0,81,81,81,249.44497599999886,,,,,,,250.9378083000047,250.439157899993,250.44242219999433,250.44242219999433,250.931949299993,252.06062340000062,252.06062340000062,x,0.38437850000627805,None,250.9378083000047,250.9378083000047,252.06062340000062,,,,,,,,KN_th,001,2025-03-11_23h22.42.783,MainFlow,2024.2.4,144.029543330144,2025-03-11 23h22.54.331550 +0700,
1,55,0,word/wordth0551.png,image/False/imgf55.png,82,82,0,x,0.3261259999999311,None,0,82,82,82,252.4514455000026,,,,,,,253.9510847000056,253.45591229999263,253.45948239999416,253.45948239999416,253.94518229999812,255.06396470000618,255.06396470000618,x,0.3261259999999311,None,253.9510847000056,253.9510847000056,,,,,,,,,KN_th,001,2025-03-11_23h22.42.783,MainFlow,2024.2.4,144.029543330144,2025-03-11 23h22.54.331550 +0700,
1,26,1,word/wordth0261.png,image/True/img26.png,83,83,0,z,0.39743490000546444,None,0,83,83,83,255.40205920000153,,,,,,,256.9021256999986,256.40354669999215,256.4072024000052,256.4072024000052,256.89641590000247,258.03359599999385,258.03359599999385,z,0.39743490000546444,None,256.9021256999986,256.9021256999986,,,,,,,,,KN_th,001,2025-03-11_23h22.42.783,MainFlow,2024.2.4,144.029543330144,2025-03-11 23h22.54.331550 +0700,
1,28,0,word/wordth0281.png,image/False/imgf28.png,84,84,0,x,0.46953709999797866,None,0,84,84,84,258.4432528000034,,,,,,,259.92910100000154,259.430457800001,259.4331338000047,259.4331338000047,259.9163847000018,261.03521600000386,261.03521600000386,x,0.46953709999797866,None,259.9221383999975,259.9221383999975,261.03521600000386,,,,,,,,KN_th,001,2025-03-11_23h22.42.783,MainFlow,2024.2.4,144.029543330144,2025-03-11 23h22.54.331550 +0700,
1,8,0,word/wordth0081.png,image/False/imgf08.png,85,85,0,x,0.37668019998818636,None,0,85,85,85,261.5119837999955,,,,,,,263.0119655000017,262.5142695999966,262.5176713999972,262.5176713999972,263.0068603999971,264.10212680000404,264.10212680000404,x,0.37668019998818636,None,263.0119655000017,263.0119655000017,,,,,,,,,KN_th,001,2025-03-11_23h22.42.783,MainFlow,2024.2.4,144.029543330144,2025-03-11 23h22.54.331550 +0700,
1,9,1,word/wordth0091.png,image/True/img09.png,86,86,0,x,0.3948760999919614,None,0,86,86,86,264.49086669999815,,,,,,,265.9905465000047,265.4915836,265.4951485999918,265.4951485999918,265.9852072999929,267.06104450000566,267.06104450000566,x,0.3948760999919614,None,265.9905465000047,265.9905465000047,267.06104450000566,,,,,,,,KN_th,001,2025-03-11_23h22.42.783,MainFlow,2024.2.4,144.029543330144,2025-03-11 23h22.54.331550 +0700,
1,78,1,word/wordth0781.png,image/True/img78.png,87,87,0,z,0.41810480000276584,None,0,87,87,87,267.4622929000034,,,,,,,268.95525119999365,268.4607585000049,268.46414709999226,268.46414709999226,268.94950919999974,270.0588097,270.0588097,z,0.41810480000276584,None,268.95525119999365,268.95525119999365,270.0588097,,,,,,,,KN_th,001,2025-03-11_23h22.42.783,MainFlow,2024.2.4,144.029543330144,2025-03-11 23h22.54.331550 +0700,
1,1,0,word/wordth0011.png,image/False/imgf01.png,88,88,0,x,0.4302241999976104,None,0,88,88,88,270.4851170000038,,,,,,,271.96834880000097,271.4733986999927,271.47701550000056,271.47701550000056,271.96223720000125,273.06647910000174,273.06647910000174,x,0.4302241999976104,None,271.96834880000097,271.96834880000097,273.06647910000174,,,,,,,,KN_th,001,2025-03-11_23h22.42.783,MainFlow,2024.2.4,144.029543330144,2025-03-11 23h22.54.331550 +0700,
1,71,1,word/wordth0711.png,image/True/img71.png,89,89,0,z,0.34907810000004247,None,0,89,89,89,273.5051658000011,,,,,,,275.0026435000036,274.5059041999921,274.5091678000026,274.5091678000026,274.99736189999385,276.11370230000466,276.11370230000466,z,0.34907810000004247,None,275.0026435000036,275.0026435000036,276.11370230000466,,,,,,,,KN_th,001,2025-03-11_23h22.42.783,MainFlow,2024.2.4,144.029543330144,2025-03-11 23h22.54.331550 +0700,
1,93,1,word/wordth0931.png,image/True/img93.png,90,90,0,z,0.3644703999889316,None,0,90,90,90,276.4744251999946,,,,,,,277.9673391999968,277.47144720000506,277.47476680000545,277.47476680000545,277.96167809999315,279.05526549999195,279.05526549999195,z,0.3644703999889316,None,277.9673391999968,277.9673391999968,279.05526549999195,,,,,,,,KN_th,001,2025-03-11_23h22.42.783,MainFlow,2024.2.4,144.029543330144,2025-03-11 23h22.54.331550 +0700,
1,78,0,word/wordth0781.png,image/False/imgf78.png,91,91,0,x,0.6155719000089448,None,0,91,91,91,279.43216660000326,,,,,,,280.9251205000037,280.4275733999966,280.43102499999804,280.43102499999804,280.91936339999666,282.00660799999605,282.00660799999605,x,0.6155719000089448,None,280.9251205000037,280.9251205000037,282.00660799999605,,,,,,,,KN_th,001,2025-03-11_23h22.42.783,MainFlow,2024.2.4,144.029543330144,2025-03-11 23h22.54.331550 +0700,
1,8,0,word/wordth0081.png,image/False/imgf08.png,92,92,0,x,0.39984630000253674,None,0,92,92,92,282.6329360999953,,,,,,,284.1260012999992,283.6318675999937,283.63516019999224,283.63516019999224,284.12068870000076,285.226393799996,285.226393799996,x,0.39984630000253674,None,284.1260012999992,284.1260012999992,285.226393799996,,,,,,,,KN_th,001,2025-03-11_23h22.42.783,MainFlow,2024.2.4,144.029543330144,2025-03-11 23h22.54.331550 +0700,
1,9,0,word/wordth0091.png,image/False/imgf09.png,93,93,0,x,0.44051820000458974,None,0,93,93,93,285.63434950000374,,,,,,,287.1391186999972,286.64036900000065,286.6436646999937,286.6436646999937,287.13265869999304,288.2196881999989,288.2196881999989,x,0.44051820000458974,None,,,286.6436646999937,,,,,,,,KN_th,001,2025-03-11_23h22.42.783,MainFlow,2024.2.4,144.029543330144,2025-03-11 23h22.54.331550 +0700,
1,75,1,word/wordth0751.png,image/True/img75.png,94,94,0,z,0.3885141999926418,None,0,94,94,94,288.6666144000046,,,,,,,290.15932809999504,289.66269149999425,289.6660250999994,289.6660250999994,290.15348419999646,291.27545820000523,291.27545820000523,z,0.3885141999926418,None,290.15932809999504,290.15932809999504,291.27545820000523,,,,,,,,KN_th,001,2025-03-11_23h22.42.783,MainFlow,2024.2.4,144.029543330144,2025-03-11 23h22.54.331550 +0700,
1,95,0,word/wordth0951.png,image/False/imgf95.png,95,95,0,x,0.37452359999588225,None,0,95,95,95,291.67292339999403,,,,,,,293.1658880000032,292.67116199999873,292.674537999992,292.674537999992,293.1600394999987,294.2954073000001,294.2954073000001,x,0.37452359999588225,None,293.1658880000032,293.1658880000032,294.2954073000001,,,,,,,,KN_th,001,2025-03-11_23h22.42.783,MainFlow,2024.2.4,144.029543330144,2025-03-11 23h22.54.331550 +0700,
1,70,1,word/wordth0701.png,image/True/img70.png,96,96,0,z,0.3732739999977639,None,0,96,96,96,294.67925390000164,,,,,,,296.1651720999944,295.6704940000054,295.6738462999929,295.6738462999929,296.15938549999555,297.28669320000336,297.28669320000336,z,0.3732739999977639,None,296.1651720999944,296.1651720999944,297.28669320000336,,,,,,,,KN_th,001,2025-03-11_23h22.42.783,MainFlow,2024.2.4,144.029543330144,2025-03-11 23h22.54.331550 +0700,
1,94,0,word/wordth0941.png,image/False/imgf94.png,97,97,0,x,0.35552959999768063,None,0,97,97,97,297.6717814000003,,,,,,,299.16451610000513,298.67143940000096,298.67473499999323,298.67473499999323,299.1587196000037,300.30045670000254,300.30045670000254,x,0.35552959999768063,None,299.16451610000513,299.16451610000513,300.30045670000254,,,,,,,,KN_th,001,2025-03-11_23h22.42.783,MainFlow,2024.2.4,144.029543330144,2025-03-11 23h22.54.331550 +0700,
1,9,0,word/wordth0091.png,image/False/imgf09.png,98,98,0,x,0.32820210000500083,None,0,98,98,98,300.66436239999894,,,,,,,302.1639439999999,301.66588220000267,301.6692289999919,301.6692289999919,302.1580279000045,303.2381380000006,303.2381380000006,x,0.32820210000500083,None,302.1639439999999,302.1639439999999,,,,,,,,,KN_th,001,2025-03-11_23h22.42.783,MainFlow,2024.2.4,144.029543330144,2025-03-11 23h22.54.331550 +0700,
1,18,0,word/wordth0181.png,image/False/imgf18.png,99,99,0,x,0.34746639999502804,None,0,99,99,99,303.5734283999918,,,,,,,305.07338990000426,304.57702979999885,304.58074819999456,304.58074819999456,305.06846199999563,306.17876070000057,306.17876070000057,x,0.34746639999502804,None,305.07338990000426,305.07338990000426,,,,,,,,,KN_th,001,2025-03-11_23h22.42.783,MainFlow,2024.2.4,144.029543330144,2025-03-11 23h22.54.331550 +0700,
1,28,1,word/wordth0281.png,image/True/img28.png,100,100,0,z,0.4676030999980867,None,0,100,100,100,306.53974700000254,,,,,,,308.03786120000586,307.5398870000063,307.54324970000016,307.54324970000016,308.0320405999955,309.1652957000042,309.1652957000042,z,0.4676030999980867,None,308.03786120000586,308.03786120000586,,,,,,,,,KN_th,001,2025-03-11_23h22.42.783,MainFlow,2024.2.4,144.029543330144,2025-03-11 23h22.54.331550 +0700,
1,23,1,word/wordth0231.png,image/True/img23.png,101,101,0,z,0.3541472000069916,None,0,101,101,101,309.6416418000008,,,,,,,311.13440470000205,310.64082430000417,310.64416569999594,310.64416569999594,311.12845439999364,312.25281249999534,312.25281249999534,z,0.3541472000069916,None,311.13440470000205,311.13440470000205,312.25281249999534,,,,,,,,KN_th,001,2025-03-11_23h22.42.783,MainFlow,2024.2.4,144.029543330144,2025-03-11 23h22.54.331550 +0700,
1,30,0,word/wordth0301.png,image/False/imgf30.png,102,102,0,x,0.46621840000443626,None,0,102,102,102,312.6134255999932,,,,,,,314.0990937000024,313.6015807999938,313.60428800000227,313.60428800000227,314.09328220000316,315.19856000000436,315.19856000000436,x,0.46621840000443626,None,314.0990937000024,314.0990937000024,315.19856000000436,,,,,,,,KN_th,001,2025-03-11_23h22.42.783,MainFlow,2024.2.4,144.029543330144,2025-03-11 23h22.54.331550 +0700,
1,11,1,word/wordth0111.png,image/True/img11.png,103,103,0,z,0.37765090000175405,None,0,103,103,103,315.67517699999735,,,,,,,317.1680567000003,316.6709766999993,316.6743376999948,316.6743376999948,317.1622370999976,318.3130220000021,318.3130220000021,z,0.37765090000175405,None,317.1680567000003,317.1680567000003,318.3130220000021,,,,,,,,KN_th,001,2025-03-11_23h22.42.783,MainFlow,2024.2.4,144.029543330144,2025-03-11 23h22.54.331550 +0700,
1,75,0,word/wordth0751.png,image/False/imgf75.png,104,104,0,x,0.3708136000059312,None,0,104,104,104,318.7025517000002,,,,,,,320.195284100002,319.6974678999977,319.700860500001,319.700860500001,320.18944240000565,321.3009002000035,321.3009002000035,x,0.3708136000059312,None,320.195284100002,320.195284100002,321.3009002000035,,,,,,,,KN_th,001,2025-03-11_23h22.42.783,MainFlow,2024.2.4,144.029543330144,2025-03-11 23h22.54.331550 +0700,
1,6,0,word/wordth0061.png,image/False/imgf06.png,105,105,0,x,0.7567458999983501,None,0,105,105,105,321.6809867999982,,,,,,,323.17371479999565,322.67975589999696,322.68309389999195,322.68309389999195,323.1676642999955,324.2719322000048,324.2719322000048,x,0.7567458999983501,None,323.17371479999565,323.17371479999565,324.2719322000048,,,,,,,,KN_th,001,2025-03-11_23h22.42.783,MainFlow,2024.2.4,144.029543330144,2025-03-11 23h22.54.331550 +0700,
1,27,1,word/wordth0271.png,image/True/img27.png,106,106,0,z,0.38999450000119396,None,0,106,106,106,325.04159999999683,,,,,,,326.5272343999968,326.02863179999986,326.0312966000056,326.0312966000056,326.51434829999926,327.63472440000623,327.63472440000623,z,0.38999450000119396,None,326.520308399995,326.520308399995,327.63472440000623,,,,,,,,KN_th,001,2025-03-11_23h22.42.783,MainFlow,2024.2.4,144.029543330144,2025-03-11 23h22.54.331550 +0700,
1,1,1,word/wordth0011.png,image/True/img01.png,107,107,0,z,0.38065669999923557,None,0,107,107,107,328.0339021999971,,,,,,,329.5267001000029,329.02917460000026,329.03253470000345,329.03253470000345,329.5208081000019,330.6500473000051,330.6500473000051,z,0.38065669999923557,None,329.5267001000029,329.5267001000029,330.6500473000051,,,,,,,,KN_th,001,2025-03-11_23h22.42.783,MainFlow,2024.2.4,144.029543330144,2025-03-11 23h22.54.331550 +0700,
1,44,0,word/wordth0441.png,image/False/imgf44.png,108,108,0,x,0.3965530999994371,None,0,108,108,108,331.0403699000017,,,,,,,332.53306390000216,332.037038399998,332.04161739999836,332.04161739999836,332.52714969999215,333.6759252000047,333.6759252000047,x,0.3965530999994371,None,332.53306390000216,332.53306390000216,333.6759252000047,,,,,,,,KN_th,001,2025-03-11_23h22.42.783,MainFlow,2024.2.4,144.029543330144,2025-03-11 23h22.54.331550 +0700,
1,48,0,word/wordth0481.png,image/False/imgf48.png,109,109,0,x,0.577054199995473,None,0,109,109,109,334.08339119999437,,,,,,,335.5672873000003,335.06871550000506,335.0714183999953,335.0714183999953,335.55500939999183,336.6980076000036,336.6980076000036,x,0.577054199995473,None,335.5603572999971,335.5603572999971,336.6980076000036,,,,,,,,KN_th,001,2025-03-11_23h22.42.783,MainFlow,2024.2.4,144.029543330144,2025-03-11 23h22.54.331550 +0700,
1,60,0,word/wordth0601.png,image/False/imgf60.png,110,110,0,x,0.42630750000535045,None,0,110,110,110,337.28227300000435,,,,,,,338.7681190000003,338.2692848000006,338.27205149999645,338.27205149999645,338.76198029999796,339.88265830000455,339.88265830000455,x,0.42630750000535045,None,338.7681190000003,338.7681190000003,339.88265830000455,,,,,,,,KN_th,001,2025-03-11_23h22.42.783,MainFlow,2024.2.4,144.029543330144,2025-03-11 23h22.54.331550 +0700,
1,96,1,word/wordth0961.png,image/True/img96.png,111,111,0,z,0.33873220000532456,None,0,111,111,111,340.31625509999867,,,,,,,341.8159655000054,341.3209780000034,341.32456029999594,341.32456029999594,341.8100740999944,342.9352837000042,342.9352837000042,z,0.33873220000532456,None,341.8159655000054,341.8159655000054,,,,,,,,,KN_th,001,2025-03-11_23h22.42.783,MainFlow,2024.2.4,144.029543330144,2025-03-11 23h22.54.331550 +0700,
1,79,0,word/wordth0791.png,image/False/imgf79.png,112,112,0,x,0.45455179999407846,None,0,112,112,112,343.2809042000008,,,,,,,344.77403040000354,344.28055110000423,344.283926899996,344.283926899996,344.7687192000012,345.89615200000117,345.89615200000117,x,0.45455179999407846,None,344.77403040000354,344.77403040000354,345.89615200000117,,,,,,,,KN_th,001,2025-03-11_23h22.42.783,MainFlow,2024.2.4,144.029543330144,2025-03-11 23h22.54.331550 +0700,
1,7,0,word/wordth0071.png,image/False/imgf07.png,113,113,0,x,0.5127515000058338,None,0,113,113,113,346.3567067999975,,,,,,,347.8495380999957,347.3520170999982,347.3554753000062,347.3554753000062,347.84369880000304,348.9506079999992,348.9506079999992,x,0.5127515000058338,None,347.8495380999957,347.8495380999957,348.9506079999992,,,,,,,,KN_th,001,2025-03-11_23h22.42.783,MainFlow,2024.2.4,144.029543330144,2025-03-11 23h22.54.331550 +0700,
1,36,0,word/wordth0361.png,image/False/imgf36.png,114,114,0,x,0.5076456000097096,None,0,114,114,114,349.47418639999523,,,,,,,350.95985539999674,350.4612177999952,350.46391009999206,350.46391009999206,350.9468988000008,352.064667300001,352.064667300001,x,0.5076456000097096,None,350.95288430000073,350.95288430000073,352.064667300001,,,,,,,,KN_th,001,2025-03-11_23h22.42.783,MainFlow,2024.2.4,144.029543330144,2025-03-11 23h22.54.331550 +0700,
1,71,0,word/wordth0711.png,image/False/imgf71.png,115,115,0,x,0.3888121000054525,None,0,115,115,115,352.58484229999885,,,,,,,354.07767679999233,353.58304620000126,353.5864533999993,353.5864533999993,354.07227029999194,355.2182974000025,355.2182974000025,x,0.3888121000054525,None,354.07767679999233,354.07767679999233,355.2182974000025,,,,,,,,KN_th,001,2025-03-11_23h22.42.783,MainFlow,2024.2.4,144.029543330144,2025-03-11 23h22.54.331550 +0700,
1,20,0,word/wordth0201.png,image/False/imgf20.png,116,116,0,x,0.4555006000009598,None,0,116,116,116,355.6189682999975,,,,,,,357.118933699996,356.61988929999643,356.62334170000395,356.62334170000395,357.1127020999993,358.2611981999944,358.2611981999944,x,0.4555006000009598,None,357.118933699996,357.118933699996,,,,,,,,,KN_th,001,2025-03-11_23h22.42.783,MainFlow,2024.2.4,144.029543330144,2025-03-11 23h22.54.331550 +0700,
1,87,1,word/wordth0871.png,image/True/img87.png,117,117,0,z,0.4200758000079077,None,0,117,117,117,358.72931919999246,,,,,,,360.22242079999705,359.7262283000018,359.7297532999946,359.7297532999946,360.21634070000437,361.34839129999455,361.34839129999455,z,0.4200758000079077,None,360.22242079999705,360.22242079999705,361.34839129999455,,,,,,,,KN_th,001,2025-03-11_23h22.42.783,MainFlow,2024.2.4,144.029543330144,2025-03-11 23h22.54.331550 +0700,
1,50,0,word/wordth0501.png,image/False/imgf50.png,118,118,0,x,0.47011349999229424,None,0,118,118,118,361.77750450000167,,,,,,,363.2702086000063,362.77604260000226,362.77944050000224,362.77944050000224,363.2646129999921,364.3801683999918,364.3801683999918,x,0.47011349999229424,None,363.2702086000063,363.2702086000063,364.3801683999918,,,,,,,,KN_th,001,2025-03-11_23h22.42.783,MainFlow,2024.2.4,144.029543330144,2025-03-11 23h22.54.331550 +0700,
1,18,1,word/wordth0181.png,image/True/img18.png,119,119,0,z,0.4119338000018615,None,0,119,119,119,364.86214579999796,,,,,,,366.3599300999922,365.8650869999983,365.86841120000463,365.86841120000463,366.3546328999946,367.4572762000025,367.4572762000025,z,0.4119338000018615,None,366.3599300999922,366.3599300999922,367.4572762000025,,,,,,,,KN_th,001,2025-03-11_23h22.42.783,MainFlow,2024.2.4,144.029543330144,2025-03-11 23h22.54.331550 +0700,
1,71,0,word/wordth0711.png,image/False/imgf71.png,120,120,0,x,0.4041888000065228,None,0,120,120,120,367.8804769999988,,,,,,,369.380262199993,368.8836239999946,368.8872529999935,368.8872529999935,369.3748949000001,370.4988213000033,370.4988213000033,x,0.4041888000065228,None,369.380262199993,369.380262199993,,,,,,,,,KN_th,001,2025-03-11_23h22.42.783,MainFlow,2024.2.4,144.029543330144,2025-03-11 23h22.54.331550 +0700,
1,46,1,word/wordth0461.png,image/True/img46.png,121,121,0,z,0.413222000002861,None,0,121,121,121,370.9144008000003,,,,,,,372.4003042999975,371.9017384000035,371.9044500000018,371.9044500000018,372.38796989999537,373.5396027999959,373.5396027999959,z,0.413222000002861,None,372.39336279999407,372.39336279999407,373.5396027999959,,,,,,,,KN_th,001,2025-03-11_23h22.42.783,MainFlow,2024.2.4,144.029543330144,2025-03-11 23h22.54.331550 +0700,
1,10,1,word/wordth0101.png,image/True/img10.png,122,122,0,x,0.42024469999887515,None,0,122,122,122,373.9624938000052,,,,,,,375.44850399999996,374.95454409999365,374.95729449999635,374.95729449999635,375.4431728000054,376.55850199999986,376.55850199999986,x,0.42024469999887515,None,375.44850399999996,375.44850399999996,376.55850199999986,,,,,,,,KN_th,001,2025-03-11_23h22.42.783,MainFlow,2024.2.4,144.029543330144,2025-03-11 23h22.54.331550 +0700,
1,16,0,word/wordth0161.png,image/False/imgf16.png,123,123,0,x,0.3545964999939315,None,0,123,123,123,376.98980579999625,,,,,,,378.4893955000007,377.9954163999937,377.9990459999972,377.9990459999972,378.4835153000022,379.6062824999972,379.6062824999972,x,0.3545964999939315,None,378.4893955000007,378.4893955000007,,,,,,,,,KN_th,001,2025-03-11_23h22.42.783,MainFlow,2024.2.4,144.029543330144,2025-03-11 23h22.54.331550 +0700,
1,15,0,word/wordth0151.png,image/False/imgf15.png,124,124,0,x,0.35192580000148155,None,0,124,124,124,379.96829619999335,,,,,,,381.46792599999753,380.969471000004,380.97303850000026,380.97303850000026,381.4620389000047,382.57259959999647,382.57259959999647,x,0.35192580000148155,None,381.46792599999753,381.46792599999753,,,,,,,,,KN_th,001,2025-03-11_23h22.42.783,MainFlow,2024.2.4,144.029543330144,2025-03-11 23h22.54.331550 +0700,
1,59,0,word/wordth0591.png,image/False/imgf59.png,125,125,0,x,0.31333140000060666,None,0,125,125,125,382.9329249000002,,,,,,,384.4187496999948,383.92594420000387,383.9290819000016,383.9290819000016,384.41267679999874,385.5044154999923,385.5044154999923,x,0.31333140000060666,None,384.4187496999948,384.4187496999948,385.5044154999923,,,,,,,,KN_th,001,2025-03-11_23h22.42.783,MainFlow,2024.2.4,144.029543330144,2025-03-11 23h22.54.331550 +0700,
1,11,0,word/wordth0111.png,image/False/imgf11.png,126,126,0,x,0.38855070000863634,None,0,126,126,126,385.8282715999958,,,,,,,387.3211184999964,386.8266016999987,386.8298672999954,386.8298672999954,387.3161662999919,388.4590587999992,388.4590587999992,x,0.38855070000863634,None,387.3211184999964,387.3211184999964,388.4590587999992,,,,,,,,KN_th,001,2025-03-11_23h22.42.783,MainFlow,2024.2.4,144.029543330144,2025-03-11 23h22.54.331550 +0700,
1,75,1,word/wordth0751.png,image/True/img75.png,127,127,0,z,0.28655129999970086,None,0,127,127,127,388.85545990000537,,,,,,,390.3482231999951,389.8521015000006,389.85544060000393,389.85544060000393,390.34240419999696,391.45750340000086,391.45750340000086,z,0.28655129999970086,None,390.3482231999951,390.3482231999951,391.45750340000086,,,,,,,,KN_th,001,2025-03-11_23h22.42.783,MainFlow,2024.2.4,144.029543330144,2025-03-11 23h22.54.331550 +0700,
1,33,1,word/wordth0331.png,image/True/img33.png,128,128,0,z,0.33703009999589995,None,0,128,128,128,391.75359449999814,,,,,,,393.24359850000474,392.74591630000214,392.7488338999974,392.7488338999974,393.23826729999564,394.36805049999384,394.36805049999384,z,0.33703009999589995,None,393.24359850000474,393.24359850000474,394.36805049999384,,,,,,,,KN_th,001,2025-03-11_23h22.42.783,MainFlow,2024.2.4,144.029543330144,2025-03-11 23h22.54.331550 +0700,
1,66,0,word/wordth0661.png,image/False/imgf66.png,129,129,0,x,0.48336929999641143,None,0,129,129,129,394.7158217999968,,,,,,,396.20834159999504,395.713786399996,395.7172831999924,395.7172831999924,396.20248740000534,397.3214141000062,397.3214141000062,x,0.48336929999641143,None,396.20834159999504,396.20834159999504,397.3214141000062,,,,,,,,KN_th,001,2025-03-11_23h22.42.783,MainFlow,2024.2.4,144.029543330144,2025-03-11 23h22.54.331550 +0700,
1,38,1,word/wordth0381.png,image/True/img38.png,130,130,0,z,0.5198925000004238,None,0,130,130,130,397.8119618000055,,,,,,,399.29781619999267,398.7997711999924,398.8024663999968,398.8024663999968,399.29188499999873,400.40255230000184,400.40255230000184,z,0.5198925000004238,None,399.29781619999267,399.29781619999267,400.40255230000184,,,,,,,,KN_th,001,2025-03-11_23h22.42.783,MainFlow,2024.2.4,144.029543330144,2025-03-11 23h22.54.331550 +0700,
1,38,1,word/wordth0381.png,image/True/img38.png,131,131,0,z,0.37479610000445973,None,0,131,131,131,400.92956609999237,,,,,,,402.4293195999926,401.93114099999366,401.9347725999978,401.9347725999978,402.4242008000001,403.5196330000035,403.5196330000035,z,0.37479610000445973,None,402.4293195999926,402.4293195999926,,,,,,,,,KN_th,001,2025-03-11_23h22.42.783,MainFlow,2024.2.4,144.029543330144,2025-03-11 23h22.54.331550 +0700,
1,63,1,word/wordth0631.png,image/True/img63.png,132,132,0,z,0.48560440000437666,None,0,132,132,132,403.9011587999994,,,,,,,405.3940533999994,404.8968542999937,404.9003545000014,404.9003545000014,405.3888513999991,406.50647369999206,406.50647369999206,z,0.48560440000437666,None,405.3940533999994,405.3940533999994,406.50647369999206,,,,,,,,KN_th,001,2025-03-11_23h22.42.783,MainFlow,2024.2.4,144.029543330144,2025-03-11 23h22.54.331550 +0700,
1,33,0,word/wordth0331.png,image/False/imgf33.png,133,133,0,x,0.4404618999978993,None,0,133,133,133,407.0046738999954,,,,,,,408.4974521999975,408.004763200006,408.00814819999505,408.00814819999505,408.4926417999959,409.6254726000043,409.6254726000043,x,0.4404618999978993,None,408.4974521999975,408.4974521999975,409.6254726000043,,,,,,,,KN_th,001,2025-03-11_23h22.42.783,MainFlow,2024.2.4,144.029543330144,2025-03-11 23h22.54.331550 +0700,
1,52,1,word/wordth0521.png,image/True/img52.png,134,134,0,x,0.39664200000697747,None,0,134,134,134,410.07354650000343,,,,,,,411.5664531999937,411.07411780000257,411.07754260000365,411.07754260000365,411.5611692999955,412.6980942999944,412.6980942999944,x,0.39664200000697747,None,411.5664531999937,411.5664531999937,412.6980942999944,,,,,,,,KN_th,001,2025-03-11_23h22.42.783,MainFlow,2024.2.4,144.029543330144,2025-03-11 23h22.54.331550 +0700,
1,11,0,word/wordth0111.png,image/False/imgf11.png,135,135,0,x,0.46924409999337513,None,0,135,135,135,413.10077900000033,,,,,,,414.5934297000058,414.0975761000009,414.1012314999971,414.1012314999971,414.587712499997,415.7323269000044,415.7323269000044,x,0.46924409999337513,None,414.5934297000058,414.5934297000058,415.7323269000044,,,,,,,,KN_th,001,2025-03-11_23h22.42.783,MainFlow,2024.2.4,144.029543330144,2025-03-11 23h22.54.331550 +0700,
1,1,0,word/wordth0011.png,image/False/imgf01.png,136,136,0,z,0.6196181999985129,None,0,136,136,136,416.2129513999971,,,,,,,417.7108451999957,417.2159083000006,417.2192292999971,417.2192292999971,417.70467009999265,418.80922850000206,418.80922850000206,z,0.6196181999985129,None,417.7108451999957,417.7108451999957,418.80922850000206,,,,,,,,KN_th,001,2025-03-11_23h22.42.783,MainFlow,2024.2.4,144.029543330144,2025-03-11 23h22.54.331550 +0700,
1,96,0,word/wordth0961.png,image/False/imgf96.png,137,137,0,x,0.4118212000030326,None,0,137,137,137,419.4397738999978,,,,,,,420.93274940000265,420.434239299997,420.43758339999476,420.43758339999476,420.9268013999972,422.0578531999927,422.0578531999927,x,0.4118212000030326,None,420.93274940000265,420.93274940000265,422.0578531999927,,,,,,,,KN_th,001,2025-03-11_23h22.42.783,MainFlow,2024.2.4,144.029543330144,2025-03-11 23h22.54.331550 +0700,
1,57,1,word/wordth0571.png,image/True/img57.png,138,138,0,z,0.5333433000050718,None,0,138,138,138,422.4807981000049,,,,,,,423.9806472000055,423.4828317999927,423.48639409999305,423.48639409999305,423.9747774999996,425.09396189999825,425.09396189999825,z,0.5333433000050718,None,423.9806472000055,423.9806472000055,,,,,,,,,KN_th,001,2025-03-11_23h22.42.783,MainFlow,2024.2.4,144.029543330144,2025-03-11 23h22.54.331550 +0700,
1,30,1,word/wordth0301.png,image/True/img30.png,139,139,0,z,0.5181699999957345,None,0,139,139,139,425.6329771000019,,,,,,,427.12585379999655,426.628730299999,426.6319377000036,426.6319377000036,427.1205603999988,428.2217907000013,428.2217907000013,z,0.5181699999957345,None,427.12585379999655,427.12585379999655,428.2217907000013,,,,,,,,KN_th,001,2025-03-11_23h22.42.783,MainFlow,2024.2.4,144.029543330144,2025-03-11 23h22.54.331550 +0700,
1,41,1,word/wordth0411.png,image/True/img41.png,140,140,0,z,0.3649739000102272,None,0,140,140,140,428.7506524000055,,,,,,,430.2363608000014,429.7434084999986,429.7466871999932,429.7466871999932,430.2305908999988,431.3619987999991,431.3619987999991,z,0.3649739000102272,None,430.2363608000014,430.2363608000014,431.3619987999991,,,,,,,,KN_th,001,2025-03-11_23h22.42.783,MainFlow,2024.2.4,144.029543330144,2025-03-11 23h22.54.331550 +0700,
1,50,1,word/wordth0501.png,image/True/img50.png,141,141,0,z,0.4046267999947304,None,0,141,141,141,431.7361313000001,,,,,,,433.2287240000005,432.73552930000005,432.7389381999965,432.7389381999965,433.2232712999976,434.3432616999926,434.3432616999926,z,0.4046267999947304,None,433.2287240000005,433.2287240000005,434.3432616999926,,,,,,,,KN_th,001,2025-03-11_23h22.42.783,MainFlow,2024.2.4,144.029543330144,2025-03-11 23h22.54.331550 +0700,
1,3,0,word/wordth0031.png,image/False/imgf03.png,142,142,0,x,0.3968412999965949,None,0,142,142,142,434.7562517000042,,,,,,,436.24929360000533,435.754620599997,435.7580924999929,435.7580924999929,436.2441415999929,437.36302720000094,437.36302720000094,x,0.3968412999965949,None,436.24929360000533,436.24929360000533,437.36302720000094,,,,,,,,KN_th,001,2025-03-11_23h22.42.783,MainFlow,2024.2.4,144.029543330144,2025-03-11 23h22.54.331550 +0700,
1,78,1,word/wordth0781.png,image/True/img78.png,143,143,0,z,0.36494100000709295,None,0,143,143,143,437.7695507000026,,,,,,,439.2624266999919,438.7695531000063,438.7729024,438.7729024,439.2572070000024,440.3620520999975,440.3620520999975,z,0.36494100000709295,None,439.2624266999919,439.2624266999919,440.3620520999975,,,,,,,,KN_th,001,2025-03-11_23h22.42.783,MainFlow,2024.2.4,144.029543330144,2025-03-11 23h22.54.331550 +0700,
1,76,0,word/wordth0761.png,image/False/imgf76.png,144,144,0,z,0.34643079999659676,None,0,144,144,144,440.7343203000055,,,,,,,442.2340797999932,441.73748799999885,441.74097990000155,441.74097990000155,442.22888789999706,443.3645192999975,443.3645192999975,z,0.34643079999659676,None,442.2340797999932,442.2340797999932,,,,,,,,,KN_th,001,2025-03-11_23h22.42.783,MainFlow,2024.2.4,144.029543330144,2025-03-11 23h22.54.331550 +0700,
1,6,1,word/wordth0061.png,image/True/img06.png,145,145,0,z,0.4468463000084739,None,0,145,145,145,443.722016899992,,,,,,,445.212509200006,444.7195827999967,444.7229909000016,444.7229909000016,445.2070708999963,446.30882120000024,446.30882120000024,z,0.4468463000084739,None,445.212509200006,445.212509200006,446.30882120000024,,,,,,,,KN_th,001,2025-03-11_23h22.42.783,MainFlow,2024.2.4,144.029543330144,2025-03-11 23h22.54.331550 +0700,
1,31,0,word/wordth0311.png,image/False/imgf31.png,146,146,0,x,0.6794567999895662,None,0,146,146,146,446.7676882999949,,,,,,,448.2675384000031,447.7690320999973,447.77248240000335,447.77248240000335,448.2616702999949,449.3365477000043,449.3365477000043,x,0.6794567999895662,None,448.2675384000031,448.2675384000031,,,,,,,,,KN_th,001,2025-03-11_23h22.42.783,MainFlow,2024.2.4,144.029543330144,2025-03-11 23h22.54.331550 +0700,
1,22,0,word/wordth0221.png,image/False/imgf22.png,147,147,0,x,0.37967419999768026,None,0,147,147,147,450.0241008000012,,,,,,,451.5099479000055,451.0112383999949,451.0139194999938,451.0139194999938,451.4972815999936,452.642322700005,452.642322700005,x,0.37967419999768026,None,451.50297370000044,451.50297370000044,452.642322700005,,,,,,,,KN_th,001,2025-03-11_23h22.42.783,MainFlow,2024.2.4,144.029543330144,2025-03-11 23h22.54.331550 +0700,
1,28,0,word/wordth0281.png,image/False/imgf28.png,148,148,0,x,0.42345069999282714,None,0,148,148,148,453.03060019999975,,,,,,,454.51632840000093,454.0242869999929,454.02737579999666,454.02737579999666,454.5111997000058,455.6334496000054,455.6334496000054,x,0.42345069999282714,None,454.51632840000093,454.51632840000093,455.6334496000054,,,,,,,,KN_th,001,2025-03-11_23h22.42.783,MainFlow,2024.2.4,144.029543330144,2025-03-11 23h22.54.331550 +0700,
1,57,0,word/wordth0571.png,image/False/imgf57.png,149,149,0,x,0.3675055999920005,None,0,149,149,149,456.0646074999968,,,,,,,457.55751719999535,457.0589253999933,457.06215159999556,457.06215159999556,457.5523533999949,458.6774895999988,458.6774895999988,x,0.3675055999920005,None,457.55751719999535,457.55751719999535,458.6774895999988,,,,,,,,KN_th,001,2025-03-11_23h22.42.783,MainFlow,2024.2.4,144.029543330144,2025-03-11 23h22.54.331550 +0700,
1,7,0,word/wordth0071.png,image/False/imgf07.png,150,150,0,x,0.5428971000073943,None,0,150,150,150,459.0570439000003,,,,,,,460.55697629999486,460.06098080000083,460.06466449999425,460.06466449999425,460.55186730000423,461.6744772999955,461.6744772999955,x,0.5428971000073943,None,460.55697629999486,460.55697629999486,,,,,,,,,KN_th,001,2025-03-11_23h22.42.783,MainFlow,2024.2.4,144.029543330144,2025-03-11 23h22.54.331550 +0700,
1,56,1,word/wordth0561.png,image/True/img56.png,151,151,0,z,0.3102290999959223,None,0,151,151,151,462.2299290999945,,,,,,,463.72306679999747,463.2274397000001,463.23090939999383,463.23090939999383,463.7177747999958,464.83419069999945,464.83419069999945,z,0.3102290999959223,None,463.72306679999747,463.72306679999747,464.83419069999945,,,,,,,,KN_th,001,2025-03-11_23h22.42.783,MainFlow,2024.2.4,144.029543330144,2025-03-11 23h22.54.331550 +0700,
1,6,0,word/wordth0061.png,image/False/imgf06.png,152,152,0,x,0.507149400000344,None,0,152,152,152,465.15300609999395,,,,,,,466.64581129999715,466.1526148999983,466.1560320999997,466.1560320999997,466.6401115000044,467.72817529999884,467.72817529999884,x,0.507149400000344,None,466.64581129999715,466.64581129999715,467.72817529999884,,,,,,,,KN_th,001,2025-03-11_23h22.42.783,MainFlow,2024.2.4,144.029543330144,2025-03-11 23h22.54.331550 +0700,
1,36,0,word/wordth0361.png,image/False/imgf36.png,153,153,0,x,0.6352429000107804,None,0,153,153,153,468.2428948000015,,,,,,,469.73559700000624,469.2365467000054,469.24021459999494,469.24021459999494,469.7299168000027,470.8414522999956,470.8414522999956,x,0.6352429000107804,None,469.73559700000624,469.73559700000624,470.8414522999956,,,,,,,,KN_th,001,2025-03-11_23h22.42.783,MainFlow,2024.2.4,144.029543330144,2025-03-11 23h22.54.331550 +0700,
1,79,1,word/wordth0791.png,image/True/img79.png,154,154,0,z,0.43238060000294354,None,0,154,154,154,471.48525319999317,,,,,,,472.9781021999952,472.48052050000115,472.48419259999355,472.48419259999355,472.972228300001,474.0901054999995,474.0901054999995,z,0.43238060000294354,None,472.9781021999952,472.9781021999952,474.0901054999995,,,,,,,,KN_th,001,2025-03-11_23h22.42.783,MainFlow,2024.2.4,144.029543330144,2025-03-11 23h22.54.331550 +0700,
1,52,0,word/wordth0521.png,image/False/imgf52.png,155,155,0,x,0.48151319999305997,None,0,155,155,155,474.5332544999983,,,,,,,476.025876899992,475.5331448999932,475.5366028999997,475.5366028999997,476.0197337999998,477.12972310000623,477.12972310000623,x,0.48151319999305997,None,476.025876899992,476.025876899992,477.12972310000623,,,,,,,,KN_th,001,2025-03-11_23h22.42.783,MainFlow,2024.2.4,144.029543330144,2025-03-11 23h22.54.331550 +0700,
1,18,0,word/wordth0181.png,image/False/imgf18.png,156,156,0,x,0.33711890000267886,None,0,156,156,156,477.6228633999999,,,,,,,479.1156525999977,478.6197381999955,478.6230876000045,478.6230876000045,479.10974179999903,480.21033739999984,480.21033739999984,x,0.33711890000267886,None,479.1156525999977,479.1156525999977,480.21033739999984,,,,,,,,KN_th,001,2025-03-11_23h22.42.783,MainFlow,2024.2.4,144.029543330144,2025-03-11 23h22.54.331550 +0700,
1,23,1,word/wordth0231.png,image/True/img23.png,157,157,0,z,0.35426649999863,None,0,157,157,157,480.55986429999757,,,,,,,482.0525450999994,481.5562341000041,481.5598436,481.5598436,482.0471072999935,483.1622151000047,483.1622151000047,z,0.35426649999863,None,482.0525450999994,482.0525450999994,483.1622151000047,,,,,,,,KN_th,001,2025-03-11_23h22.42.783,MainFlow,2024.2.4,144.029543330144,2025-03-11 23h22.54.331550 +0700,
1,61,1,word/wordth0611.png,image/True/img61.png,158,158,0,z,0.4122098000079859,None,0,158,158,158,483.5265631999937,,,,,,,485.0245073999977,484.5305006999988,484.53391230000125,484.53391230000125,485.01938040000095,486.13211380000575,486.13211380000575,z,0.4122098000079859,None,485.0245073999977,485.0245073999977,486.13211380000575,,,,,,,,KN_th,001,2025-03-11_23h22.42.783,MainFlow,2024.2.4,144.029543330144,2025-03-11 23h22.54.331550 +0700,
1,44,1,word/wordth0441.png,image/True/img44.png,159,159,0,z,0.35960169999452773,None,0,159,159,159,486.55164039999363,,,,,,,488.0445044999942,487.5475885000051,487.551218099994,487.551218099994,488.03883679999853,489.1478472000017,489.1478472000017,z,0.35960169999452773,None,488.0445044999942,488.0445044999942,489.1478472000017,,,,,,,,KN_th,001,2025-03-11_23h22.42.783,MainFlow,2024.2.4,144.029543330144,2025-03-11 23h22.54.331550 +0700,
1,10,1,word/wordth0101.png,image/True/img10.png,160,160,0,z,0.3648838999943109,None,0,160,160,160,489.51918289999594,,,,,,,491.0093448999978,490.5116638000036,490.51497910000035,490.51497910000035,491.00416609999957,492.1134921000048,492.1134921000048,z,0.3648838999943109,None,491.0093448999978,491.0093448999978,492.1134921000048,,,,,,,,KN_th,001,2025-03-11_23h22.42.783,MainFlow,2024.2.4,144.029543330144,2025-03-11 23h22.54.331550 +0700,
1,31,1,word/wordth0311.png,image/True/img31.png,161,161,0,z,0.27719470000010915,None,0,161,161,161,492.48814299999503,,,,,,,493.9809954999946,493.4887050999969,493.4919440999947,493.4919440999947,493.9756970000017,495.0894866000017,495.0894866000017,z,0.27719470000010915,None,493.9809954999946,493.9809954999946,495.0894866000017,,,,,,,,KN_th,001,2025-03-11_23h22.42.783,MainFlow,2024.2.4,144.029543330144,2025-03-11 23h22.54.331550 +0700,
1,14,0,word/wordth0141.png,image/False/imgf14.png,162,162,0,x,0.43968779999704566,None,0,162,162,162,495.3764175999968,,,,,,,496.8691351000016,496.37200800000574,496.37537840000005,496.37537840000005,496.86296509999374,497.9779545999918,497.9779545999918,x,0.43968779999704566,None,496.8691351000016,496.8691351000016,497.9779545999918,,,,,,,,KN_th,001,2025-03-11_23h22.42.783,MainFlow,2024.2.4,144.029543330144,2025-03-11 23h22.54.331550 +0700,
1,15,0,word/wordth0151.png,image/False/imgf15.png,163,163,0,x,0.37162970000645146,None,0,163,163,163,498.424362699996,,,,,,,499.9171386999951,499.4185423000017,499.42169750000176,499.42169750000176,499.9112448999949,501.0319229000015,501.0319229000015,x,0.37162970000645146,None,499.9171386999951,499.9171386999951,501.0319229000015,,,,,,,,KN_th,001,2025-03-11_23h22.42.783,MainFlow,2024.2.4,144.029543330144,2025-03-11 23h22.54.331550 +0700,
1,51,1,word/wordth0511.png,image/True/img51.png,164,164,0,z,0.4377604000037536,None,0,164,164,164,501.40992639999604,,,,,,,502.9027519999945,502.40903409999737,502.4123719000054,502.4123719000054,502.89711170000373,504.02954400000453,504.02954400000453,z,0.4377604000037536,None,502.9027519999945,502.9027519999945,504.02954400000453,,,,,,,,KN_th,001,2025-03-11_23h22.42.783,MainFlow,2024.2.4,144.029543330144,2025-03-11 23h22.54.331550 +0700,
1,82,1,word/wordth0821.png,image/True/img82.png,165,165,0,z,0.3383829000085825,None,0,165,165,165,504.47892870000214,,,,,,,505.97151190000295,505.47433509999246,505.47770459999447,505.47770459999447,505.9657460000017,507.04016799999226,507.04016799999226,z,0.3383829000085825,None,505.97151190000295,505.97151190000295,507.04016799999226,,,,,,,,KN_th,001,2025-03-11_23h22.42.783,MainFlow,2024.2.4,144.029543330144,2025-03-11 23h22.54.331550 +0700,
1,27,0,word/wordth0271.png,image/False/imgf27.png,166,166,0,x,0.42585220000182744,None,0,166,166,166,507.3878748999996,,,,,,,508.87386379999225,508.3797001000057,508.3825982999988,508.3825982999988,508.868081099994,509.98060189999524,509.98060189999524,x,0.42585220000182744,None,508.87386379999225,508.87386379999225,509.98060189999524,,,,,,,,KN_th,001,2025-03-11_23h22.42.783,MainFlow,2024.2.4,144.029543330144,2025-03-11 23h22.54.331550 +0700,
1,78,0,word/wordth0781.png,image/False/imgf78.png,167,167,0,x,0.3445442000083858,None,0,167,167,167,510.41512469999725,,,,,,,511.9079674999957,511.4142414999951,511.41753209999297,511.41753209999297,511.9021337000013,512.9951721999969,512.9951721999969,x,0.3445442000083858,None,511.9079674999957,511.9079674999957,512.9951721999969,,,,,,,,KN_th,001,2025-03-11_23h22.42.783,MainFlow,2024.2.4,144.029543330144,2025-03-11 23h22.54.331550 +0700,
1,89,1,word/wordth0891.png,image/True/img89.png,168,168,0,z,0.4041480000014417,None,0,168,168,168,513.3520301999961,,,,,,,514.8447713999922,514.3479459999944,514.3511071999965,514.3511071999965,514.8389334999956,515.9313771000016,515.9313771000016,z,0.4041480000014417,None,514.8447713999922,514.8447713999922,515.9313771000016,,,,,,,,KN_th,001,2025-03-11_23h22.42.783,MainFlow,2024.2.4,144.029543330144,2025-03-11 23h22.54.331550 +0700,
1,76,1,word/wordth0761.png,image/True/img76.png,169,169,0,z,0.3724532999913208,None,0,169,169,169,516.3445257999992,,,,,,,517.8373754000058,517.3404235000053,517.3437517999992,517.3437517999992,517.8315418999991,518.9402351000026,518.9402351000026,z,0.3724532999913208,None,517.8373754000058,517.8373754000058,518.9402351000026,,,,,,,,KN_th,001,2025-03-11_23h22.42.783,MainFlow,2024.2.4,144.029543330144,2025-03-11 23h22.54.331550 +0700,
1,17,0,word/wordth0171.png,image/False/imgf17.png,170,170,0,x,0.7327320000040345,None,0,170,170,170,519.3231909000024,,,,,,,520.8229504000046,520.3289904999983,520.3326832000021,520.3326832000021,520.8171848999918,521.9339239999972,521.9339239999972,x,0.7327320000040345,None,520.8229504000046,520.8229504000046,521.9339239999972,,,,,,,,KN_th,001,2025-03-11_23h22.42.783,MainFlow,2024.2.4,144.029543330144,2025-03-11 23h22.54.331550 +0700,
1,95,1,word/wordth0951.png,image/True/img95.png,171,171,0,z,0.4634408000129042,None,0,171,171,171,522.6766394000006,,,,,,,524.1764371000027,523.6783624999953,523.6817447999929,523.6817447999929,524.1706875999953,525.3030900000012,525.3030900000012,z,0.4634408000129042,None,524.1764371000027,524.1764371000027,,,,,,,,,KN_th,001,2025-03-11_23h22.42.783,MainFlow,2024.2.4,144.029543330144,2025-03-11 23h22.54.331550 +0700,
1,61,0,word/wordth0611.png,image/False/imgf61.png,172,172,0,x,0.4447184000018751,None,0,172,172,172,525.7732741999935,,,,,,,527.2661628999922,526.7686252999993,526.7717125000054,526.7717125000054,527.2602109,528.3894870999939,528.3894870999939,x,0.4447184000018751,None,527.2661628999922,527.2661628999922,528.3894870999939,,,,,,,,KN_th,001,2025-03-11_23h22.42.783,MainFlow,2024.2.4,144.029543330144,2025-03-11 23h22.54.331550 +0700,
1,82,1,word/wordth0821.png,image/True/img82.png,173,173,0,z,0.6595952999923611,None,0,173,173,173,528.8422239999927,,,,,,,530.327949700004,529.8328263000003,529.8355726000009,529.8355726000009,530.322284599999,531.3948898999952,531.3948898999952,z,0.6595952999923611,None,530.327949700004,530.327949700004,531.3948898999952,,,,,,,,KN_th,001,2025-03-11_23h22.42.783,MainFlow,2024.2.4,144.029543330144,2025-03-11 23h22.54.331550 +0700,
1,14,1,word/wordth0141.png,image/True/img14.png,174,174,0,z,0.37591239999164827,None,0,174,174,174,532.0637385000009,,,,,,,533.5634327000007,533.0693023000058,533.0731672999973,533.0731672999973,533.5574481999938,534.6746822999994,534.6746822999994,z,0.37591239999164827,None,533.5634327000007,533.5634327000007,,,,,,,,,KN_th,001,2025-03-11_23h22.42.783,MainFlow,2024.2.4,144.029543330144,2025-03-11 23h22.54.331550 +0700,
1,38,0,word/wordth0381.png,image/False/imgf38.png,175,175,0,x,0.4564047000021674,None,0,175,175,175,535.0630803999957,,,,,,,536.5490470999939,536.0565328999946,536.0598656999937,536.0598656999937,536.5431217000005,537.7076569000055,537.7076569000055,x,0.4564047000021674,None,536.5490470999939,536.5490470999939,537.7076569000055,,,,,,,,KN_th,001,2025-03-11_23h22.42.783,MainFlow,2024.2.4,144.029543330144,2025-03-11 23h22.54.331550 +0700,
1,17,0,word/wordth0171.png,image/False/imgf17.png,176,176,0,x,0.5195055000076536,None,0,176,176,176,538.1735823000054,,,,,,,539.6663736000046,539.1678762999945,539.171078600004,539.171078600004,539.6605528999935,540.7912772999989,540.7912772999989,x,0.5195055000076536,None,539.6663736000046,539.6663736000046,540.7912772999989,,,,,,,,KN_th,001,2025-03-11_23h22.42.783,MainFlow,2024.2.4,144.029543330144,2025-03-11 23h22.54.331550 +0700,
1,42,0,word/wordth0421.png,image/False/imgf42.png,177,177,0,x,1.6440440000005765,None,0,177,177,177,541.3189100000018,,,,,,,542.8046509999986,542.3061899000022,542.3090509000031,542.3090509000031,542.798816399998,543.9453216999973,543.9453216999973,x,1.6440440000005765,None,542.8046509999986,542.8046509999986,543.9453216999973,,,,,,,,KN_th,001,2025-03-11_23h22.42.783,MainFlow,2024.2.4,144.029543330144,2025-03-11 23h22.54.331550 +0700,
1,24,1,word/wordth0241.png,image/True/img24.png,178,178,0,z,0.6081762000103481,None,0,178,178,178,545.5957860000053,,,,,,,547.0886145999975,546.5943792000035,546.597735000003,546.597735000003,547.0830333000049,548.1728031999955,548.1728031999955,z,0.6081762000103481,None,547.0886145999975,547.0886145999975,548.1728031999955,,,,,,,,KN_th,001,2025-03-11_23h22.42.783,MainFlow,2024.2.4,144.029543330144,2025-03-11 23h22.54.331550 +0700,
1,51,1,word/wordth0511.png,image/True/img51.png,179,179,0,z,0.40202100000169594,None,0,179,179,179,548.7914405000047,,,,,,,550.282406600003,549.7892620999919,549.792526499994,549.792526499994,550.2766097999993,551.3987693999952,551.3987693999952,z,0.40202100000169594,None,550.282406600003,550.282406600003,551.3987693999952,,,,,,,,KN_th,001,2025-03-11_23h22.42.783,MainFlow,2024.2.4,144.029543330144,2025-03-11 23h22.54.331550 +0700,
1,24,0,word/wordth0241.png,image/False/imgf24.png,180,180,0,x,0.39897899999050424,None,0,180,180,180,551.8106098999997,,,,,,,553.3095885999937,552.8118137999991,552.8155632999988,552.8155632999988,553.3037155000056,554.3946918000001,554.3946918000001,x,0.39897899999050424,None,553.3095885999937,553.3095885999937,,,,,,,,,KN_th,001,2025-03-11_23h22.42.783,MainFlow,2024.2.4,144.029543330144,2025-03-11 23h22.54.331550 +0700,
1,23,0,word/wordth0231.png,image/False/imgf23.png,181,181,0,x,0.3512849999970058,None,0,181,181,181,554.802269199994,,,,,,,556.2953303999966,555.7977951999928,555.801033900003,555.801033900003,556.2900610999932,557.4295736000058,557.4295736000058,x,0.3512849999970058,None,556.2953303999966,556.2953303999966,557.4295736000058,,,,,,,,KN_th,001,2025-03-11_23h22.42.783,MainFlow,2024.2.4,144.029543330144,2025-03-11 23h22.54.331550 +0700,
1,6,1,word/wordth0061.png,image/True/img06.png,182,182,0,z,0.30554480000864714,None,0,182,182,182,557.787868600004,,,,,,,559.2804983999958,558.7876598000003,558.791103800002,558.791103800002,559.2743141999963,560.3733681000012,560.3733681000012,z,0.30554480000864714,None,559.2804983999958,559.2804983999958,560.3733681000012,,,,,,,,KN_th,001,2025-03-11_23h22.42.783,MainFlow,2024.2.4,144.029543330144,2025-03-11 23h22.54.331550 +0700,
1,93,1,word/wordth0931.png,image/True/img93.png,183,183,0,z,0.3763604999985546,None,0,183,183,183,560.6923253999994,,,,,,,562.1899484000023,561.6951728999993,561.6987724999926,561.6987724999926,562.1838970999961,563.2895594000001,563.2895594000001,z,0.3763604999985546,None,562.1899484000023,562.1899484000023,563.2895594000001,,,,,,,,KN_th,001,2025-03-11_23h22.42.783,MainFlow,2024.2.4,144.029543330144,2025-03-11 23h22.54.331550 +0700,
1,38,0,word/wordth0381.png,image/False/imgf38.png,184,184,0,z,0.3590154999983497,None,0,184,184,184,563.6755957999994,,,,,,,565.1687003999978,564.6749425000016,564.6784107999993,564.6784107999993,565.1631220999989,566.3188595999964,566.3188595999964,z,0.3590154999983497,None,565.1687003999978,565.1687003999978,566.3188595999964,,,,,,,,KN_th,001,2025-03-11_23h22.42.783,MainFlow,2024.2.4,144.029543330144,2025-03-11 23h22.54.331550 +0700,
1,57,1,word/wordth0571.png,image/True/img57.png,185,185,0,z,0.2754350999894086,None,0,185,185,185,566.6889723000058,,,,,,,568.1749853999936,567.6760135999939,567.6788930000039,567.6788930000039,568.1626984000031,569.2900088000024,569.2900088000024,z,0.2754350999894086,None,568.1680398000026,568.1680398000026,569.2900088000024,,,,,,,,KN_th,001,2025-03-11_23h22.42.783,MainFlow,2024.2.4,144.029543330144,2025-03-11 23h22.54.331550 +0700,
1,40,1,word/wordth0401.png,image/True/img40.png,186,186,0,z,0.5515564999950584,None,0,186,186,186,569.577875899995,,,,,,,571.0769102000049,570.5800829999935,570.5834250000044,570.5834250000044,571.0709492000024,572.2240173000027,572.2240173000027,z,0.5515564999950584,None,571.0769102000049,571.0769102000049,572.2240173000027,,,,,,,,KN_th,001,2025-03-11_23h22.42.783,MainFlow,2024.2.4,144.029543330144,2025-03-11 23h22.54.331550 +0700,
1,50,0,word/wordth0501.png,image/False/imgf50.png,187,187,0,x,0.5839510999940103,None,0,187,187,187,572.7850310999929,,,,,,,574.2777053000027,573.780556800004,573.7839559999993,573.7839559999993,574.2719909000007,575.3839717999945,575.3839717999945,x,0.5839510999940103,None,574.2777053000027,574.2777053000027,575.3839717999945,,,,,,,,KN_th,001,2025-03-11_23h22.42.783,MainFlow,2024.2.4,144.029543330144,2025-03-11 23h22.54.331550 +0700,
1,66,0,word/wordth0661.png,image/False/imgf66.png,188,188,0,x,0.6947635999968043,None,0,188,188,188,575.9787157999963,,,,,,,577.4716342000029,576.9752092999988,576.9787663000025,576.9787663000025,577.4659723999939,578.5864742999984,578.5864742999984,x,0.6947635999968043,None,577.4716342000029,577.4716342000029,578.5864742999984,,,,,,,,KN_th,001,2025-03-11_23h22.42.783,MainFlow,2024.2.4,144.029543330144,2025-03-11 23h22.54.331550 +0700,
1,44,0,word/wordth0441.png,image/False/imgf44.png,189,189,0,x,0.5059837000007974,None,0,189,189,189,579.2923446999921,,,,,,,580.7837090999965,580.286334999997,580.2897120999987,580.2897120999987,580.7784205000062,581.900785299993,581.900785299993,x,0.5059837000007974,None,580.7837090999965,580.7837090999965,581.900785299993,,,,,,,,KN_th,001,2025-03-11_23h22.42.783,MainFlow,2024.2.4,144.029543330144,2025-03-11 23h22.54.331550 +0700,
1,75,0,word/wordth0751.png,image/False/imgf75.png,190,190,0,x,0.38125920000311453,None,0,190,190,190,582.4149777999992,,,,,,,583.9080315000028,583.4133331000048,583.4167522999924,583.4167522999924,583.902840099996,585.0106410000008,585.0106410000008,x,0.38125920000311453,None,583.9080315000028,583.9080315000028,585.0106410000008,,,,,,,,KN_th,001,2025-03-11_23h22.42.783,MainFlow,2024.2.4,144.029543330144,2025-03-11 23h22.54.331550 +0700,
1,31,0,word/wordth0311.png,image/False/imgf31.png,191,191,0,x,0.5859290000080364,None,0,191,191,191,585.4018890000007,,,,,,,586.8934611000004,586.3994191999955,586.4027592999919,586.4027592999919,586.8883451000002,587.9814788999938,587.9814788999938,x,0.5859290000080364,None,586.8934611000004,586.8934611000004,587.9814788999938,,,,,,,,KN_th,001,2025-03-11_23h22.42.783,MainFlow,2024.2.4,144.029543330144,2025-03-11 23h22.54.331550 +0700,
1,87,1,word/wordth0871.png,image/True/img87.png,192,192,0,z,0.4602032999973744,None,0,192,192,192,588.5735508999933,,,,,,,590.0663804999931,589.5716668999958,589.5745795999974,589.5745795999974,590.0604213000042,591.1908440999978,591.1908440999978,z,0.4602032999973744,None,590.0663804999931,590.0663804999931,591.1908440999978,,,,,,,,KN_th,001,2025-03-11_23h22.42.783,MainFlow,2024.2.4,144.029543330144,2025-03-11 23h22.54.331550 +0700,
1,33,1,word/wordth0331.png,image/True/img33.png,193,193,0,x,0.32578720001038164,None,0,193,193,193,591.663226699995,,,,,,,593.1491546000034,592.6505423000053,592.6533846999955,592.6533846999955,593.1368143,594.2643783999956,594.2643783999956,x,0.32578720001038164,None,593.142221999995,593.142221999995,594.2643783999956,,,,,,,,KN_th,001,2025-03-11_23h22.42.783,MainFlow,2024.2.4,144.029543330144,2025-03-11 23h22.54.331550 +0700,
1,70,0,word/wordth0701.png,image/False/imgf70.png,194,194,0,x,0.3721058999944944,None,0,194,194,194,594.6001472000062,,,,,,,596.0861531999981,595.5939901999955,595.5970721000049,595.5970721000049,596.080552200001,597.1891692000063,597.1891692000063,x,0.3721058999944944,None,596.0861531999981,596.0861531999981,597.1891692000063,,,,,,,,KN_th,001,2025-03-11_23h22.42.783,MainFlow,2024.2.4,144.029543330144,2025-03-11 23h22.54.331550 +0700,
1,27,1,word/wordth0271.png,image/True/img27.png,195,195,0,z,0.3329238999867812,None,0,195,195,195,597.5719750999997,,,,,,,599.071494799995,598.5730594000051,598.5764235999959,598.5764235999959,599.0656332999934,600.1704654999921,600.1704654999921,z,0.3329238999867812,None,599.071494799995,599.071494799995,,,,,,,,,KN_th,001,2025-03-11_23h22.42.783,MainFlow,2024.2.4,144.029543330144,2025-03-11 23h22.54.331550 +0700,
1,88,1,word/wordth0881.png,image/True/img88.png,196,196,0,z,0.3397038000111934,None,0,196,196,196,600.5157895000011,,,,,,,602.0153595000011,601.5178655000054,601.5211780999962,601.5211780999962,602.009401400006,603.1377861999936,603.1377861999936,z,0.3397038000111934,None,602.0153595000011,602.0153595000011,,,,,,,,,KN_th,001,2025-03-11_23h22.42.783,MainFlow,2024.2.4,144.029543330144,2025-03-11 23h22.54.331550 +0700,
1,87,0,word/wordth0871.png,image/False/imgf87.png,197,197,0,x,0.6573855999886291,None,0,197,197,197,603.4873582,,,,,,,604.9801861000014,604.4878237999947,604.4912889999978,604.4912889999978,604.9744203000009,606.0813017000037,606.0813017000037,x,0.6573855999886291,None,604.9801861000014,604.9801861000014,606.0813017000037,,,,,,,,KN_th,001,2025-03-11_23h22.42.783,MainFlow,2024.2.4,144.029543330144,2025-03-11 23h22.54.331550 +0700,
1,11,1,word/wordth0111.png,image/True/img11.png,198,198,0,x,0.4254417000047397,None,0,198,198,198,606.7506889999931,,,,,,,608.2364231999964,607.7426376999938,607.7457274000044,607.7457274000044,608.2306877999945,609.3650904999959,609.3650904999959,x,0.4254417000047397,None,608.2364231999964,608.2364231999964,609.3650904999959,,,,,,,,KN_th,001,2025-03-11_23h22.42.783,MainFlow,2024.2.4,144.029543330144,2025-03-11 23h22.54.331550 +0700,
1,61,0,word/wordth0611.png,image/False/imgf61.png,199,199,0,z,1.3779355000006035,None,0,199,199,199,609.7985998999939,,,,,,,611.2915418000048,610.7992579999991,610.8025762000034,610.8025762000034,611.2863190000062,612.4063307000033,612.4063307000033,z,1.3779355000006035,None,611.2915418000048,611.2915418000048,612.4063307000033,,,,,,,,KN_th,001,2025-03-11_23h22.42.783,MainFlow,2024.2.4,144.029543330144,2025-03-11 23h22.54.331550 +0700,
1,15,1,word/wordth0151.png,image/True/img15.png,200,200,0,z,0.5415745000063907,None,0,200,200,200,613.7909081999969,,,,,,,615.2837878999999,614.7891372000013,614.7923787000036,614.7923787000036,615.2780688999919,616.4127599000058,616.4127599000058,z,0.5415745000063907,None,615.2837878999999,615.2837878999999,616.4127599000058,,,,,,,,KN_th,001,2025-03-11_23h22.42.783,MainFlow,2024.2.4,144.029543330144,2025-03-11 23h22.54.331550 +0700,
1,16,0,word/wordth0161.png,image/False/imgf16.png,201,201,0,x,0.4141996999969706,None,0,201,201,201,616.964120100005,,,,,,,618.4566932000016,617.9637596999964,617.967057300004,617.967057300004,618.4511000999919,619.5830293000035,619.5830293000035,x,0.4141996999969706,None,618.4566932000016,618.4566932000016,619.5830293000035,,,,,,,,KN_th,001,2025-03-11_23h22.42.783,MainFlow,2024.2.4,144.029543330144,2025-03-11 23h22.54.331550 +0700,
1,63,0,word/wordth0631.png,image/False/imgf63.png,202,202,0,x,0.7271669000037946,None,0,202,202,202,620.0049690000014,,,,,,,621.4976951999997,621.0009113999986,621.0044774999988,621.0044774999988,621.4918933000008,622.6230878999922,622.6230878999922,x,0.7271669000037946,None,621.4976951999997,621.4976951999997,622.6230878999922,,,,,,,,KN_th,001,2025-03-11_23h22.42.783,MainFlow,2024.2.4,144.029543330144,2025-03-11 23h22.54.331550 +0700,
1,28,1,word/wordth0281.png,image/True/img28.png,203,203,0,z,0.3724567000026582,None,0,203,203,203,623.3584398999956,,,,,,,624.8513392000023,624.3589664000028,624.3623817000043,624.3623817000043,624.8455153999967,625.970810999992,625.970810999992,z,0.3724567000026582,None,624.8513392000023,624.8513392000023,625.970810999992,,,,,,,,KN_th,001,2025-03-11_23h22.42.783,MainFlow,2024.2.4,144.029543330144,2025-03-11 23h22.54.331550 +0700,
1,89,1,word/wordth0891.png,image/True/img89.png,204,204,0,z,0.32274810000672005,None,0,204,204,204,626.351021399998,,,,,,,627.843721600002,627.3475443000061,627.3507657000009,627.3507657000009,627.8380293999944,628.9286904000037,628.9286904000037,z,0.32274810000672005,None,627.843721600002,627.843721600002,628.9286904000037,,,,,,,,KN_th,001,2025-03-11_23h22.42.783,MainFlow,2024.2.4,144.029543330144,2025-03-11 23h22.54.331550 +0700,
1,76,0,word/wordth0761.png,image/False/imgf76.png,205,205,0,x,0.5228812999994261,None,0,205,205,205,629.2600407999998,,,,,,,630.752979900004,630.2597327999974,630.2630000000063,630.2630000000063,630.7476920000045,631.896233499996,631.896233499996,x,0.5228812999994261,None,630.752979900004,630.752979900004,631.896233499996,,,,,,,,KN_th,001,2025-03-11_23h22.42.783,MainFlow,2024.2.4,144.029543330144,2025-03-11 23h22.54.331550 +0700,
1,51,0,word/wordth0511.png,image/False/imgf51.png,206,206,0,x,0.35366090000024997,None,0,206,206,206,632.4263853000011,,,,,,,633.9259989999991,633.4303584000008,633.4340107000025,633.4340107000025,633.9207690000039,635.0235919999977,635.0235919999977,x,0.35366090000024997,None,633.9259989999991,633.9259989999991,,,,,,,,,KN_th,001,2025-03-11_23h22.42.783,MainFlow,2024.2.4,144.029543330144,2025-03-11 23h22.54.331550 +0700,
1,26,0,word/wordth0261.png,image/False/imgf26.png,207,207,0,x,0.44826460001058877,None,0,207,207,207,635.3844813000032,,,,,,,636.8768463000015,636.3778753999941,636.381157900003,636.381157900003,636.8713084000046,638.0036056999961,638.0036056999961,x,0.44826460001058877,None,636.8768463000015,636.8768463000015,638.0036056999961,,,,,,,,KN_th,001,2025-03-11_23h22.42.783,MainFlow,2024.2.4,144.029543330144,2025-03-11 23h22.54.331550 +0700,
1,16,1,word/wordth0161.png,image/True/img16.png,208,208,0,z,0.43096169999626,None,0,208,208,208,638.4595786999998,,,,,,,639.9456136999943,639.4473952999979,639.4501956000022,639.4501956000022,639.9404986000009,641.0796871000057,641.0796871000057,z,0.43096169999626,None,639.9456136999943,639.9456136999943,641.0796871000057,,,,,,,,KN_th,001,2025-03-11_23h22.42.783,MainFlow,2024.2.4,144.029543330144,2025-03-11 23h22.54.331550 +0700,
1,64,1,word/wordth0641.png,image/True/img64.png,209,209,0,z,0.36062069999752566,None,0,209,209,209,641.5215089999983,,,,,,,643.0144331000047,642.5198624000041,642.5234334999986,642.5234334999986,643.0090133000049,644.1012633999926,644.1012633999926,z,0.36062069999752566,None,643.0144331000047,643.0144331000047,644.1012633999926,,,,,,,,KN_th,001,2025-03-11_23h22.42.783,MainFlow,2024.2.4,144.029543330144,2025-03-11 23h22.54.331550 +0700,
1,7,1,word/wordth0071.png,image/True/img07.png,210,210,0,z,0.3747575000015786,None,0,210,210,210,644.4725468999968,,,,,,,645.9721312000038,645.475091500004,645.4786980999925,645.4786980999925,645.9664044999954,647.0741079,647.0741079,z,0.3747575000015786,None,645.9721312000038,645.9721312000038,,,,,,,,,KN_th,001,2025-03-11_23h22.42.783,MainFlow,2024.2.4,144.029543330144,2025-03-11 23h22.54.331550 +0700,
1,10,0,word/wordth0101.png,image/False/imgf10.png,211,211,0,x,0.4100377999857301,None,0,211,211,211,647.4606903999957,,,,,,,648.9578490999993,648.4611253000039,648.4648708000022,648.4648708000022,648.9524181000015,650.0757643999968,650.0757643999968,x,0.4100377999857301,None,648.9578490999993,648.9578490999993,650.0757643999968,,,,,,,,KN_th,001,2025-03-11_23h22.42.783,MainFlow,2024.2.4,144.029543330144,2025-03-11 23h22.54.331550 +0700,
1,22,1,word/wordth0221.png,image/True/img22.png,212,212,0,x,0.4695054000039818,None,0,212,212,212,650.4937798000028,,,,,,,651.9988690000027,651.5043301999976,651.5079262999934,651.5079262999934,651.9924137000053,653.1337879000057,653.1337879000057,x,0.4695054000039818,None,,,651.5079262999934,,,,,,,,KN_th,001,2025-03-11_23h22.42.783,MainFlow,2024.2.4,144.029543330144,2025-03-11 23h22.54.331550 +0700,
1,40,1,word/wordth0401.png,image/True/img40.png,213,213,0,z,0.3687703000032343,None,0,213,213,213,653.6094579000055,,,,,,,655.1021725000028,654.608573199992,654.6118353999918,654.6118353999918,655.0959769000037,656.2475981000025,656.2475981000025,z,0.3687703000032343,None,655.1021725000028,655.1021725000028,656.2475981000025,,,,,,,,KN_th,001,2025-03-11_23h22.42.783,MainFlow,2024.2.4,144.029543330144,2025-03-11 23h22.54.331550 +0700,
1,57,0,word/wordth0571.png,image/False/imgf57.png,214,214,0,x,0.31415939998987596,None,0,214,214,214,656.6228986999922,,,,,,,658.1155742999981,657.6174389999942,657.620653799997,657.620653799997,658.1098428999976,659.2432595999999,659.2432595999999,x,0.31415939998987596,None,658.1155742999981,658.1155742999981,659.2432595999999,,,,,,,,KN_th,001,2025-03-11_23h22.42.783,MainFlow,2024.2.4,144.029543330144,2025-03-11 23h22.54.331550 +0700,
1,50,1,word/wordth0501.png,image/True/img50.png,215,215,0,z,0.31551719999697525,None,0,215,215,215,659.5667329999997,,,,,,,661.066372500005,660.5685432000028,660.5719615999988,660.5719615999988,661.0604351999937,662.180059899998,662.180059899998,z,0.31551719999697525,None,661.066372500005,661.066372500005,,,,,,,,,KN_th,001,2025-03-11_23h22.42.783,MainFlow,2024.2.4,144.029543330144,2025-03-11 23h22.54.331550 +0700,
1,64,0,word/wordth0641.png,image/False/imgf64.png,216,216,0,x,0.4097548999998253,None,0,216,216,216,662.5038452000008,,,,,,,663.989671599993,663.4909110000008,663.4937256999983,663.4937256999983,663.9774283000006,665.0757813999953,665.0757813999953,x,0.4097548999998253,None,663.9827402999945,663.9827402999945,665.0757813999953,,,,,,,,KN_th,001,2025-03-11_23h22.42.783,MainFlow,2024.2.4,144.029543330144,2025-03-11 23h22.54.331550 +0700,
1,42,1,word/wordth0421.png,image/True/img42.png,217,217,0,z,0.43849929999851156,None,0,217,217,217,665.4960931999958,,,,,,,666.9889126000053,666.4899665999983,666.4930912999989,666.4930912999989,666.9831317999924,668.1078625999944,668.1078625999944,z,0.43849929999851156,None,666.9889126000053,666.9889126000053,668.1078625999944,,,,,,,,KN_th,001,2025-03-11_23h22.42.783,MainFlow,2024.2.4,144.029543330144,2025-03-11 23h22.54.331550 +0700,
1,56,0,word/wordth0561.png,image/False/imgf56.png,218,218,0,x,0.3683854999981122,None,0,218,218,218,668.5581568000052,,,,,,,670.0507998999965,669.5527403000015,669.5559050000011,669.5559050000011,670.0453479999996,671.2018310999993,671.2018310999993,x,0.3683854999981122,None,670.0507998999965,670.0507998999965,671.2018310999993,,,,,,,,KN_th,001,2025-03-11_23h22.42.783,MainFlow,2024.2.4,144.029543330144,2025-03-11 23h22.54.331550 +0700,
1,22,1,word/wordth0221.png,image/True/img22.png,219,219,0,z,0.4735776000015903,None,0,219,219,219,671.5782672000059,,,,,,,673.0710010000039,672.5751636000059,672.5787536999997,672.5787536999997,673.0650274999934,674.2063438000041,674.2063438000041,z,0.4735776000015903,None,673.0710010000039,673.0710010000039,674.2063438000041,,,,,,,,KN_th,001,2025-03-11_23h22.42.783,MainFlow,2024.2.4,144.029543330144,2025-03-11 23h22.54.331550 +0700,
1,82,0,word/wordth0821.png,image/False/imgf82.png,220,220,0,x,0.341438699993887,None,0,220,220,220,674.6887673000019,,,,,,,676.1816147999925,675.6876097000059,675.6910360000038,675.6910360000038,676.1758313000028,677.2946340000053,677.2946340000053,x,0.341438699993887,None,676.1816147999925,676.1816147999925,677.2946340000053,,,,,,,,KN_th,001,2025-03-11_23h22.42.783,MainFlow,2024.2.4,144.029543330144,2025-03-11 23h22.54.331550 +0700,
1,54,1,word/wordth0541.png,image/True/img54.png,221,221,0,z,0.3462104000063846,None,0,221,221,221,677.6469417000044,,,,,,,679.1394044000044,678.6410631000035,678.6447575999919,678.6447575999919,679.1341245999938,680.2588534999959,680.2588534999959,z,0.3462104000063846,None,679.1394044000044,679.1394044000044,680.2588534999959,,,,,,,,KN_th,001,2025-03-11_23h22.42.783,MainFlow,2024.2.4,144.029543330144,2025-03-11 23h22.54.331550 +0700,
1,55,0,word/wordth0551.png,image/False/imgf55.png,222,222,0,z,0.388553899989347,None,0,222,222,222,680.6115034999966,,,,,,,682.1039937000023,681.6094988999976,681.6127913999953,681.6127913999953,682.0981329999922,683.2194924999931,683.2194924999931,z,0.388553899989347,None,682.1039937000023,682.1039937000023,683.2194924999931,,,,,,,,KN_th,001,2025-03-11_23h22.42.783,MainFlow,2024.2.4,144.029543330144,2025-03-11 23h22.54.331550 +0700,
1,48,1,word/wordth0481.png,image/True/img48.png,223,223,0,z,0.5084167999884812,None,0,223,223,223,683.617513499994,,,,,,,685.1103013999964,684.6121912999952,684.615609600005,684.615609600005,685.1044078999985,686.2392338999925,686.2392338999925,z,0.5084167999884812,None,685.1103013999964,685.1103013999964,686.2392338999925,,,,,,,,KN_th,001,2025-03-11_23h22.42.783,MainFlow,2024.2.4,144.029543330144,2025-03-11 23h22.54.331550 +0700,
1,44,1,word/wordth0441.png,image/True/img44.png,224,224,0,z,0.43192309999722056,None,0,224,224,224,686.755803299995,,,,,,,688.2487146000058,687.7539287999971,687.7572930000024,687.7572930000024,688.2429164999921,689.3556887000013,689.3556887000013,z,0.43192309999722056,None,688.2487146000058,688.2487146000058,689.3556887000013,,,,,,,,KN_th,001,2025-03-11_23h22.42.783,MainFlow,2024.2.4,144.029543330144,2025-03-11 23h22.54.331550 +0700,
1,87,0,word/wordth0871.png,image/False/imgf87.png,225,225,0,x,0.496515000006184,None,0,225,225,225,689.7969732000056,,,,,,,691.2898218000046,690.7939053000009,690.7971491999924,690.7971491999924,691.2845452000038,692.3844511000061,692.3844511000061,x,0.496515000006184,None,691.2898218000046,691.2898218000046,692.3844511000061,,,,,,,,KN_th,001,2025-03-11_23h22.42.783,MainFlow,2024.2.4,144.029543330144,2025-03-11 23h22.54.331550 +0700,
1,70,1,word/wordth0701.png,image/True/img70.png,226,226,0,z,0.29677109999465756,None,0,226,226,226,692.8868008999998,,,,,,,694.3864497000031,693.8878399999958,693.8914500999963,693.8914500999963,694.3815928999975,695.4893080000038,695.4893080000038,z,0.29677109999465756,None,694.3864497000031,694.3864497000031,,,,,,,,,KN_th,001,2025-03-11_23h22.42.783,MainFlow,2024.2.4,144.029543330144,2025-03-11 23h22.54.331550 +0700,
