lang,wordid,truestate,worddir,imgdir,thisN,thisTrialN,thisRepN,key_resp.keys,key_resp.rt,key_resp.duration,trials.thisRepN,trials.thisTrialN,trials.thisN,trials.thisIndex,thisRow.t,notes,tutorial.started,tutorial.stopped,key_instruct.keys,key_instruct.rt,key_instruct.duration,plusblank.started,wordshow.started,image.started,plsuer.started,wordshow.stopped,imageword.started,key_resp.started,trials.key_resp.keys,trials.key_resp.rt,trials.key_resp.duration,plusblank.stopped,image.stopped,plsuer.stopped,ending.started,text_3.started,ending_key.started,ending.stopped,ending_key.keys,ending_key.rt,ending_key.duration,participant,session,date,expName,psychopyVersion,frameRate,expStart,
,,,,,,,,,,,,,,,,,0.0029961000000184868,14.770444699999643,space,14.739166100000148,None,,,,,,,,,,,,,,,,,,,,,KR_en,001,2025-03-10_21h10.52.502,MainFlow,2024.2.4,143.95821757222737,2025-03-10 21h11.02.490311 +0700,
2,87,0,word/worden0871.png,image/False/imgf87.png,0,0,0,x,0.5488887999999861,None,0,0,0,0,14.82710280000174,,,,,,,16.281897500000923,15.778688599999441,15.80238670000108,15.80238670000108,16.27546870000151,17.387515900001745,17.387515900001745,x,0.5488887999999861,None,,,,,,,,,,,KR_en,001,2025-03-10_21h10.52.502,MainFlow,2024.2.4,143.95821757222737,2025-03-10 21h11.02.490311 +0700,
2,93,0,word/worden0931.png,image/False/imgf93.png,1,1,0,x,0.622911499998736,None,0,1,1,1,17.948269399999845,,,,,,,19.455146299998887,18.96555359999911,18.968636900001002,18.968636900001002,19.448844599999575,20.543974100000923,20.543974100000923,x,0.622911499998736,None,,,,,,,,,,,KR_en,001,2025-03-10_21h10.52.502,MainFlow,2024.2.4,143.95821757222737,2025-03-10 21h11.02.490311 +0700,
2,23,0,word/worden0231.png,image/False/imgf23.png,2,2,0,x,0.42693100000178674,None,0,2,2,2,21.1769647000001,,,,,,,22.683520200000203,22.185186300001078,22.18803250000201,22.18803250000201,22.6771164999991,23.812943600001745,23.812943600001745,x,0.42693100000178674,None,22.18803250000201,,,,,,,,,,KR_en,001,2025-03-10_21h10.52.502,MainFlow,2024.2.4,143.95821757222737,2025-03-10 21h11.02.490311 +0700,
2,10,1,word/worden0101.png,image/True/img10.png,3,3,0,z,0.6018437999991875,None,0,3,3,3,24.24749510000038,,,,,,,25.75242309999885,25.263568700000178,25.266659400000208,25.266659400000208,25.74590470000112,26.86109950000173,26.86109950000173,z,0.6018437999991875,None,,,,,,,,,,,KR_en,001,2025-03-10_21h10.52.502,MainFlow,2024.2.4,143.95821757222737,2025-03-10 21h11.02.490311 +0700,
2,50,0,word/worden0501.png,image/False/imgf50.png,4,4,0,x,0.7740392999985488,None,0,4,4,4,27.474208399999043,,,,,,,28.97400860000198,28.47609620000003,28.47877040000094,28.47877040000094,28.968281400000706,30.07681489999959,30.07681489999959,x,0.7740392999985488,None,,28.97400860000198,28.97400860000198,,,,,,,,KR_en,001,2025-03-10_21h10.52.502,MainFlow,2024.2.4,143.95821757222737,2025-03-10 21h11.02.490311 +0700,
2,33,1,word/worden0331.png,image/True/img33.png,5,5,0,z,0.3383299999986775,None,0,5,5,5,30.86231140000018,,,,,,,32.368926300001476,31.876888300001156,31.880355100001907,31.880355100001907,32.362448899999436,33.47966649999944,33.47966649999944,z,0.3383299999986775,None,,,,,,,,,,,KR_en,001,2025-03-10_21h10.52.502,MainFlow,2024.2.4,143.95821757222737,2025-03-10 21h11.02.490311 +0700,
2,95,0,word/worden0951.png,image/False/imgf95.png,6,6,0,x,0.42865879999953904,None,0,6,6,6,33.82707930000106,,,,,,,35.33382350000102,34.84725090000211,34.850310300000274,34.850310300000274,35.32739399999991,36.446317900001304,36.446317900001304,x,0.42865879999953904,None,,,,,,,,,,,KR_en,001,2025-03-10_21h10.52.502,MainFlow,2024.2.4,143.95821757222737,2025-03-10 21h11.02.490311 +0700,
2,7,0,word/worden0071.png,image/False/imgf07.png,7,7,0,x,0.45062139999936335,None,0,7,7,7,36.88199259999965,,,,,,,38.38194049999947,37.88687479999862,37.8896648000009,37.8896648000009,38.3760755000003,39.48991820000083,39.48991820000083,x,0.45062139999936335,None,,38.38194049999947,38.38194049999947,,,,,,,,KR_en,001,2025-03-10_21h10.52.502,MainFlow,2024.2.4,143.95821757222737,2025-03-10 21h11.02.490311 +0700,
2,28,1,word/worden0281.png,image/True/img28.png,8,8,0,z,0.475502500001312,None,0,8,8,8,39.953665199998795,,,,,,,41.457570400001714,40.966119900000194,40.969401800000924,40.969401800000924,41.451287500000035,42.58868309999889,42.58868309999889,z,0.475502500001312,None,,,,,,,,,,,KR_en,001,2025-03-10_21h10.52.502,MainFlow,2024.2.4,143.95821757222737,2025-03-10 21h11.02.490311 +0700,
2,38,1,word/worden0381.png,image/True/img38.png,9,9,0,z,0.3580961000006937,None,0,9,9,9,43.07528150000144,,,,,,,44.581976000001305,44.098915300000954,44.10235789999933,44.10235789999933,44.575544600000285,45.676148999998986,45.676148999998986,z,0.3580961000006937,None,,,,,,,,,,,KR_en,001,2025-03-10_21h10.52.502,MainFlow,2024.2.4,143.95821757222737,2025-03-10 21h11.02.490311 +0700,
2,33,0,word/worden0331.png,image/False/imgf33.png,10,10,0,x,0.6059592999990855,None,0,10,10,10,46.04683510000177,,,,,,,47.54669940000167,47.04816579999897,47.05174199999965,47.05174199999965,47.540901700001996,48.665672899998754,48.665672899998754,x,0.6059592999990855,None,,47.54669940000167,47.54669940000167,,,,,,,,KR_en,001,2025-03-10_21h10.52.502,MainFlow,2024.2.4,143.95821757222737,2025-03-10 21h11.02.490311 +0700,
2,76,1,word/worden0761.png,image/True/img76.png,11,11,0,z,0.4758309000026202,None,0,11,11,11,49.284513499998866,,,,,,,50.78922650000095,50.306362600000284,50.30979279999883,50.30979279999883,50.78292290000172,51.906387999999424,51.906387999999424,z,0.4758309000026202,None,,,,,,,,,,,KR_en,001,2025-03-10_21h10.52.502,MainFlow,2024.2.4,143.95821757222737,2025-03-10 21h11.02.490311 +0700,
2,75,0,word/worden0751.png,image/False/imgf75.png,12,12,0,x,0.38906190000125207,None,0,12,12,12,52.39286530000027,,,,,,,53.899728700002015,53.404569000002084,53.4076621000022,53.4076621000022,53.89348710000195,54.99217420000059,54.99217420000059,x,0.38906190000125207,None,,,,,,,,,,,KR_en,001,2025-03-10_21h10.52.502,MainFlow,2024.2.4,143.95821757222737,2025-03-10 21h11.02.490311 +0700,
2,7,1,word/worden0071.png,image/True/img07.png,13,13,0,z,0.32757199999832665,None,0,13,13,13,55.39236879999953,,,,,,,56.89206190000186,56.39293660000112,56.39662320000207,56.39662320000207,56.88603000000148,58.006783100001485,58.006783100001485,z,0.32757199999832665,None,,56.89206190000186,56.89206190000186,,,,,,,,KR_en,001,2025-03-10_21h10.52.502,MainFlow,2024.2.4,143.95821757222737,2025-03-10 21h11.02.490311 +0700,
2,51,1,word/worden0511.png,image/True/img51.png,14,14,0,z,0.5472230999985186,None,0,14,14,14,58.34314660000018,,,,,,,59.850007000000915,59.36104509999859,59.36476770000081,59.36476770000081,59.843641200001,60.9496106000006,60.9496106000006,z,0.5472230999985186,None,,,,,,,,,,,KR_en,001,2025-03-10_21h10.52.502,MainFlow,2024.2.4,143.95821757222737,2025-03-10 21h11.02.490311 +0700,
2,59,0,word/worden0591.png,image/False/imgf59.png,15,15,0,x,0.3875517000014952,None,0,15,15,15,61.509093600001506,,,,,,,63.00907390000066,62.5104852000004,62.513245500002085,62.513245500002085,63.00370109999858,64.09043400000155,64.09043400000155,x,0.3875517000014952,None,,63.00907390000066,63.00907390000066,,,,,,,,KR_en,001,2025-03-10_21h10.52.502,MainFlow,2024.2.4,143.95821757222737,2025-03-10 21h11.02.490311 +0700,
2,54,0,word/worden0541.png,image/False/imgf54.png,16,16,0,x,0.6255846999993082,None,0,16,16,16,64.4886245000016,,,,,,,65.98075439999957,65.48559070000192,65.48835350000081,65.48835350000081,65.97541160000037,67.08479839999927,67.08479839999927,x,0.6255846999993082,None,67.08479839999927,65.98075439999957,65.98075439999957,,,,,,,,KR_en,001,2025-03-10_21h10.52.502,MainFlow,2024.2.4,143.95821757222737,2025-03-10 21h11.02.490311 +0700,
2,6,1,word/worden0061.png,image/True/img06.png,17,17,0,z,0.3501627000005101,None,0,17,17,17,67.71651930000007,,,,,,,69.22301789999983,68.7343804000011,68.73763780000081,68.73763780000081,69.21672960000069,70.30423340000198,70.30423340000198,z,0.3501627000005101,None,,,,,,,,,,,KR_en,001,2025-03-10_21h10.52.502,MainFlow,2024.2.4,143.95821757222737,2025-03-10 21h11.02.490311 +0700,
2,41,1,word/worden0411.png,image/True/img41.png,18,18,0,z,0.4858561999972153,None,0,18,18,18,70.66700820000187,,,,,,,72.17398700000194,71.67621789999976,71.67959970000084,71.67959970000084,72.16751830000067,73.28321050000159,73.28321050000159,z,0.4858561999972153,None,,,,,,,,,,,KR_en,001,2025-03-10_21h10.52.502,MainFlow,2024.2.4,143.95821757222737,2025-03-10 21h11.02.490311 +0700,
2,42,0,word/worden0421.png,image/False/imgf42.png,19,19,0,x,0.4016522999991139,None,0,19,19,19,73.77761119999923,,,,,,,75.28481219999958,74.79821129999982,74.80150850000064,74.80150850000064,75.27792599999884,76.39675999999963,76.39675999999963,x,0.4016522999991139,None,,,,,,,,,,,KR_en,001,2025-03-10_21h10.52.502,MainFlow,2024.2.4,143.95821757222737,2025-03-10 21h11.02.490311 +0700,
2,64,0,word/worden0641.png,image/False/imgf64.png,20,20,0,x,0.5755553000017244,None,0,20,20,20,76.80678790000093,,,,,,,78.31144940000013,77.8178063000014,77.82132920000004,77.82132920000004,78.30497540000215,79.37099379999927,79.37099379999927,x,0.5755553000017244,None,,,,,,,,,,,KR_en,001,2025-03-10_21h10.52.502,MainFlow,2024.2.4,143.95821757222737,2025-03-10 21h11.02.490311 +0700,
2,96,1,word/worden0961.png,image/True/img96.png,21,21,0,z,0.6501534000017273,None,0,21,21,21,79.95696540000063,,,,,,,81.46369509999931,80.97802450000017,80.98121019999962,80.98121019999962,81.45738509999865,82.55762849999883,82.55762849999883,z,0.6501534000017273,None,,,,,,,,,,,KR_en,001,2025-03-10_21h10.52.502,MainFlow,2024.2.4,143.95821757222737,2025-03-10 21h11.02.490311 +0700,
2,76,0,word/worden0761.png,image/False/imgf76.png,22,22,0,x,0.5492075000001932,None,0,22,22,22,83.22016879999865,,,,,,,84.71317009999984,84.22014190000118,84.22387199999866,84.22387199999866,84.7074074000011,85.84530409999934,85.84530409999934,x,0.5492075000001932,None,85.84530409999934,84.71317009999984,84.71317009999984,,,,,,,,KR_en,001,2025-03-10_21h10.52.502,MainFlow,2024.2.4,143.95821757222737,2025-03-10 21h11.02.490311 +0700,
2,17,1,word/worden0171.png,image/True/img17.png,23,23,0,z,0.8581269000023894,None,0,23,23,23,86.40710880000188,,,,,,,87.91402229999949,87.41672280000057,87.42041740000059,87.42041740000059,87.9076000999994,89.0149659000017,89.0149659000017,z,0.8581269000023894,None,,,,,,,,,,,KR_en,001,2025-03-10_21h10.52.502,MainFlow,2024.2.4,143.95821757222737,2025-03-10 21h11.02.490311 +0700,
2,6,1,word/worden0061.png,image/True/img06.png,24,24,0,z,0.4703867000025639,None,0,24,24,24,89.8804698999993,,,,,,,91.3715469000017,90.87328450000132,90.87650460000077,90.87650460000077,91.36626090000209,92.47438920000059,92.47438920000059,z,0.4703867000025639,None,92.47438920000059,91.3715469000017,91.3715469000017,,,,,,,,KR_en,001,2025-03-10_21h10.52.502,MainFlow,2024.2.4,143.95821757222737,2025-03-10 21h11.02.490311 +0700,
2,88,1,word/worden0881.png,image/True/img88.png,25,25,0,z,0.717624100001558,None,0,25,25,25,92.95474209999884,,,,,,,94.45439569999871,93.95986990000165,93.96261049999885,93.96261049999885,94.44906059999994,95.57915710000088,95.57915710000088,z,0.717624100001558,None,,94.45439569999871,94.45439569999871,,,,,,,,KR_en,001,2025-03-10_21h10.52.502,MainFlow,2024.2.4,143.95821757222737,2025-03-10 21h11.02.490311 +0700,
2,44,1,word/worden0441.png,image/True/img44.png,26,26,0,z,0.4981393999987631,None,0,26,26,26,96.30793830000039,,,,,,,97.80781299999944,97.30936460000157,97.31228760000158,97.31228760000158,97.80247679999957,98.9065264000019,98.9065264000019,z,0.4981393999987631,None,,97.80781299999944,97.80781299999944,,,,,,,,KR_en,001,2025-03-10_21h10.52.502,MainFlow,2024.2.4,143.95821757222737,2025-03-10 21h11.02.490311 +0700,
2,27,0,word/worden0271.png,image/False/imgf27.png,27,27,0,x,0.555351500002871,None,0,27,27,27,99.41152140000122,,,,,,,100.91831209999873,100.43208090000189,100.43552970000019,100.43552970000019,100.91198119999899,102.01569169999857,102.01569169999857,x,0.555351500002871,None,,,,,,,,,,,KR_en,001,2025-03-10_21h10.52.502,MainFlow,2024.2.4,143.95821757222737,2025-03-10 21h11.02.490311 +0700,
2,14,0,word/worden0141.png,image/False/imgf14.png,28,28,0,x,0.47752050000053714,None,0,28,28,28,102.57760300000155,,,,,,,104.08431199999904,103.59808780000094,103.60129140000208,103.60129140000208,104.07792650000192,105.18627019999985,105.18627019999985,x,0.47752050000053714,None,,,,,,,,,,,KR_en,001,2025-03-10_21h10.52.502,MainFlow,2024.2.4,143.95821757222737,2025-03-10 21h11.02.490311 +0700,
2,40,0,word/worden0401.png,image/False/imgf40.png,29,29,0,x,0.6799810999982583,None,0,29,29,29,105.67415970000002,,,,,,,107.17399619999924,106.67592169999989,106.67863430000216,106.67863430000216,107.16866260000097,108.28990360000171,108.28990360000171,x,0.6799810999982583,None,,107.17399619999924,107.17399619999924,,,,,,,,KR_en,001,2025-03-10_21h10.52.502,MainFlow,2024.2.4,143.95821757222737,2025-03-10 21h11.02.490311 +0700,
2,1,0,word/worden0011.png,image/False/imgf01.png,30,30,0,x,0.7508285000003525,None,0,30,30,30,108.97924219999913,,,,,,,110.47193150000021,109.98024780000196,109.9830288000012,109.9830288000012,110.46674310000162,111.56901310000103,111.56901310000103,x,0.7508285000003525,None,111.56901310000103,110.47193150000021,110.47193150000021,,,,,,,,KR_en,001,2025-03-10_21h10.52.502,MainFlow,2024.2.4,143.95821757222737,2025-03-10 21h11.02.490311 +0700,
2,3,0,word/worden0031.png,image/False/imgf03.png,31,31,0,x,0.5024689000019862,None,0,31,31,31,112.33279480000056,,,,,,,113.8324747000006,113.33803700000135,113.34148479999931,113.34148479999931,113.82715040000039,114.9242230000018,114.9242230000018,x,0.5024689000019862,None,,113.8324747000006,113.8324747000006,,,,,,,,KR_en,001,2025-03-10_21h10.52.502,MainFlow,2024.2.4,143.95821757222737,2025-03-10 21h11.02.490311 +0700,
2,57,1,word/worden0571.png,image/True/img57.png,32,32,0,z,0.6359367000004568,None,0,32,32,32,115.43624210000053,,,,,,,116.93628290000197,116.4378839000019,116.44072710000182,116.44072710000182,116.93089650000184,118.04001000000062,118.04001000000062,z,0.6359367000004568,None,,116.93628290000197,116.93628290000197,,,,,,,,KR_en,001,2025-03-10_21h10.52.502,MainFlow,2024.2.4,143.95821757222737,2025-03-10 21h11.02.490311 +0700,
2,88,0,word/worden0881.png,image/False/imgf88.png,33,33,0,x,1.1268024999990303,None,0,33,33,33,118.68552099999943,,,,,,,120.1716594999998,119.67893470000126,119.68203749999884,119.68203749999884,120.16625690000001,121.28807360000064,121.28807360000064,x,1.1268024999990303,None,121.28807360000064,120.1716594999998,120.1716594999998,,,,,,,,KR_en,001,2025-03-10_21h10.52.502,MainFlow,2024.2.4,143.95821757222737,2025-03-10 21h11.02.490311 +0700,
2,52,0,word/worden0521.png,image/False/imgf52.png,34,34,0,x,0.588301899999351,None,0,34,34,34,122.42122949999975,,,,,,,123.92827070000203,123.44039930000145,123.44430890000149,123.44430890000149,123.9220791000007,125.01115479999862,125.01115479999862,x,0.588301899999351,None,,,,,,,,,,,KR_en,001,2025-03-10_21h10.52.502,MainFlow,2024.2.4,143.95821757222737,2025-03-10 21h11.02.490311 +0700,
2,50,0,word/worden0501.png,image/False/imgf50.png,35,35,0,x,0.5703267000026244,None,0,35,35,35,125.60999309999897,,,,,,,127.10077300000194,126.60499020000134,126.60831650000182,126.60831650000182,127.09467120000045,128.21555300000182,128.21555300000182,x,0.5703267000026244,None,128.21555300000182,127.10077300000194,127.10077300000194,,,,,,,,KR_en,001,2025-03-10_21h10.52.502,MainFlow,2024.2.4,143.95821757222737,2025-03-10 21h11.02.490311 +0700,
2,78,1,word/worden0781.png,image/True/img78.png,36,36,0,z,0.4475053000023763,None,0,36,36,36,128.79484370000137,,,,,,,130.30189940000128,129.8139837000017,129.81734960000176,129.81734960000176,130.29565759999969,131.39525340000182,131.39525340000182,z,0.4475053000023763,None,,,,,,,,,,,KR_en,001,2025-03-10_21h10.52.502,MainFlow,2024.2.4,143.95821757222737,2025-03-10 21h11.02.490311 +0700,
2,61,0,word/worden0611.png,image/False/imgf61.png,37,37,0,x,0.5002946999993583,None,0,37,37,37,131.85044259999995,,,,,,,133.34350579999955,132.84793329999957,132.85189470000114,132.85189470000114,133.3381064999994,134.46502410000176,134.46502410000176,x,0.5002946999993583,None,134.46502410000176,133.34350579999955,133.34350579999955,,,,,,,,KR_en,001,2025-03-10_21h10.52.502,MainFlow,2024.2.4,143.95821757222737,2025-03-10 21h11.02.490311 +0700,
2,36,0,word/worden0361.png,image/False/imgf36.png,38,38,0,x,0.46123050000096555,None,0,38,38,38,134.97404939999979,,,,,,,136.47405509999953,135.97672760000205,135.97943870000017,135.97943870000017,136.46900050000113,137.58685369999876,137.58685369999876,x,0.46123050000096555,None,,136.47405509999953,136.47405509999953,,,,,,,,KR_en,001,2025-03-10_21h10.52.502,MainFlow,2024.2.4,143.95821757222737,2025-03-10 21h11.02.490311 +0700,
2,10,1,word/worden0101.png,image/True/img10.png,39,39,0,z,0.42507710000063526,None,0,39,39,39,138.05687260000195,,,,,,,139.54979509999976,139.05473659999916,139.0579503000008,139.0579503000008,139.54447319999963,140.65687610000168,140.65687610000168,z,0.42507710000063526,None,140.65687610000168,139.54979509999976,139.54979509999976,,,,,,,,KR_en,001,2025-03-10_21h10.52.502,MainFlow,2024.2.4,143.95821757222737,2025-03-10 21h11.02.490311 +0700,
2,75,1,word/worden0751.png,image/True/img75.png,40,40,0,z,0.6605488999994122,None,0,40,40,40,141.09116300000096,,,,,,,142.576789499999,142.08405739999944,142.08716300000015,142.08716300000015,142.57097720000093,143.68467579999924,143.68467579999924,z,0.6605488999994122,None,143.68467579999924,142.576789499999,142.576789499999,,,,,,,,KR_en,001,2025-03-10_21h10.52.502,MainFlow,2024.2.4,143.95821757222737,2025-03-10 21h11.02.490311 +0700,
2,1,1,word/worden0011.png,image/True/img01.png,41,41,0,z,0.37649249999958556,None,0,41,41,41,144.35433059999923,,,,,,,145.84720329999982,145.351297600002,145.3541589000015,145.3541589000015,145.84168470000077,146.97076880000168,146.97076880000168,z,0.37649249999958556,None,146.97076880000168,145.84720329999982,145.84720329999982,,,,,,,,KR_en,001,2025-03-10_21h10.52.502,MainFlow,2024.2.4,143.95821757222737,2025-03-10 21h11.02.490311 +0700,
2,37,1,word/worden0371.png,image/True/img37.png,42,42,0,x,0.4615126999997301,None,0,42,42,42,147.35362180000084,,,,,,,148.8605146000009,148.3696041000003,148.37270680000074,148.37270680000074,148.85406480000165,149.99339060000057,149.99339060000057,x,0.4615126999997301,None,,,,,,,,,,,KR_en,001,2025-03-10_21h10.52.502,MainFlow,2024.2.4,143.95821757222737,2025-03-10 21h11.02.490311 +0700,
2,66,0,word/worden0661.png,image/False/imgf66.png,43,43,0,x,0.47803749999729916,None,0,43,43,43,150.4640928000008,,,,,,,151.97094809999908,151.47564540000167,151.47875719999865,151.47875719999865,151.96457889999874,153.07156830000167,153.07156830000167,x,0.47803749999729916,None,,,,,,,,,,,KR_en,001,2025-03-10_21h10.52.502,MainFlow,2024.2.4,143.95821757222737,2025-03-10 21h11.02.490311 +0700,
2,55,1,word/worden0551.png,image/True/img55.png,44,44,0,z,0.4328725999985181,None,0,44,44,44,153.56269249999968,,,,,,,155.0676311999996,154.57432049999989,154.57761070000197,154.57761070000197,155.06100030000016,156.17753319999974,156.17753319999974,z,0.4328725999985181,None,,,,,,,,,,,KR_en,001,2025-03-10_21h10.52.502,MainFlow,2024.2.4,143.95821757222737,2025-03-10 21h11.02.490311 +0700,
2,70,0,word/worden0701.png,image/False/imgf70.png,45,45,0,x,0.5203270000019984,None,0,45,45,45,156.6225560999992,,,,,,,158.122688200001,157.62557050000032,157.62849490000008,157.62849490000008,158.11678120000215,159.2147139000008,159.2147139000008,x,0.5203270000019984,None,,158.122688200001,158.122688200001,,,,,,,,KR_en,001,2025-03-10_21h10.52.502,MainFlow,2024.2.4,143.95821757222737,2025-03-10 21h11.02.490311 +0700,
2,68,0,word/worden0681.png,image/False/imgf68.png,46,46,0,x,0.5112068999987969,None,0,46,46,46,159.74692100000175,,,,,,,161.2537799999991,160.76842100000067,160.77161329999944,160.77161329999944,161.24736420000045,162.32565339999928,162.32565339999928,x,0.5112068999987969,None,,,,,,,,,,,KR_en,001,2025-03-10_21h10.52.502,MainFlow,2024.2.4,143.95821757222737,2025-03-10 21h11.02.490311 +0700,
2,75,1,word/worden0751.png,image/True/img75.png,47,47,0,z,0.33822289999807253,None,0,47,47,47,162.84366489999957,,,,,,,164.3365171000005,163.837391699999,163.84069689999887,163.84069689999887,164.33120350000172,165.44865760000175,165.44865760000175,z,0.33822289999807253,None,165.44865760000175,164.3365171000005,164.3365171000005,,,,,,,,KR_en,001,2025-03-10_21h10.52.502,MainFlow,2024.2.4,143.95821757222737,2025-03-10 21h11.02.490311 +0700,
2,38,1,word/worden0381.png,image/True/img38.png,48,48,0,z,1.8353616999993392,None,0,48,48,48,165.79450310000175,,,,,,,167.28031120000014,166.78156060000038,166.78433180000138,166.78433180000138,167.2675698000021,168.38967169999887,168.38967169999887,z,1.8353616999993392,None,168.38967169999887,167.27334680000058,167.27334680000058,,,,,,,,KR_en,001,2025-03-10_21h10.52.502,MainFlow,2024.2.4,143.95821757222737,2025-03-10 21h11.02.490311 +0700,
2,42,1,word/worden0421.png,image/True/img42.png,49,49,0,z,0.8676393000023381,None,0,49,49,49,170.2310526000001,,,,,,,171.7308492000011,171.2351830000007,171.23870800000077,171.23870800000077,171.72484740000073,172.841129299999,172.841129299999,z,0.8676393000023381,None,,171.7308492000011,171.7308492000011,,,,,,,,KR_en,001,2025-03-10_21h10.52.502,MainFlow,2024.2.4,143.95821757222737,2025-03-10 21h11.02.490311 +0700,
2,11,0,word/worden0111.png,image/False/imgf11.png,50,50,0,x,0.44564859999809414,None,0,50,50,50,173.7188771000001,,,,,,,175.22338030000174,174.7313279000009,174.7346882999991,174.7346882999991,175.21724720000202,176.35178879999876,176.35178879999876,x,0.44564859999809414,None,,,,,,,,,,,KR_en,001,2025-03-10_21h10.52.502,MainFlow,2024.2.4,143.95821757222737,2025-03-10 21h11.02.490311 +0700,
2,41,0,word/worden0411.png,image/False/imgf41.png,51,51,0,x,0.6030178000000888,None,0,51,51,51,176.8062667000013,,,,,,,178.29891059999864,177.80423390000215,177.8077416999986,177.8077416999986,178.29275079999934,179.37488550000126,179.37488550000126,x,0.6030178000000888,None,179.37488550000126,178.29891059999864,178.29891059999864,,,,,,,,KR_en,001,2025-03-10_21h10.52.502,MainFlow,2024.2.4,143.95821757222737,2025-03-10 21h11.02.490311 +0700,
2,82,1,word/worden0821.png,image/True/img82.png,52,52,0,z,0.38361060000170255,None,0,52,52,52,179.98611040000105,,,,,,,181.49294849999933,181.00439130000086,181.00741919999928,181.00741919999928,181.4865267999994,182.54337360000136,182.54337360000136,z,0.38361060000170255,None,,,,,,,,,,,KR_en,001,2025-03-10_21h10.52.502,MainFlow,2024.2.4,143.95821757222737,2025-03-10 21h11.02.490311 +0700,
2,88,0,word/worden0881.png,image/False/imgf88.png,53,53,0,x,0.42858410000189906,None,0,53,53,53,182.93695429999934,,,,,,,184.4297258000006,183.9347345999995,183.93793509999887,183.93793509999887,184.42378699999972,185.54527479999888,185.54527479999888,x,0.42858410000189906,None,185.54527479999888,184.4297258000006,184.4297258000006,,,,,,,,KR_en,001,2025-03-10_21h10.52.502,MainFlow,2024.2.4,143.95821757222737,2025-03-10 21h11.02.490311 +0700,
2,8,1,word/worden0081.png,image/True/img08.png,54,54,0,z,0.49928450000152225,None,0,54,54,54,185.98509320000085,,,,,,,187.49242270000104,187.00299369999993,187.00659050000104,187.00659050000104,187.48547569999937,188.5674300999999,188.5674300999999,z,0.49928450000152225,None,,,,,,,,,,,KR_en,001,2025-03-10_21h10.52.502,MainFlow,2024.2.4,143.95821757222737,2025-03-10 21h11.02.490311 +0700,
2,16,0,word/worden0161.png,image/False/imgf16.png,55,55,0,x,0.438915899998392,None,0,55,55,55,189.07668320000084,,,,,,,190.5744956999988,190.07620730000053,190.07904680000138,190.07904680000138,190.56928519999929,191.6894371999988,191.6894371999988,x,0.438915899998392,None,,190.5744956999988,190.5744956999988,,,,,,,,KR_en,001,2025-03-10_21h10.52.502,MainFlow,2024.2.4,143.95821757222737,2025-03-10 21h11.02.490311 +0700,
2,10,0,word/worden0101.png,image/False/imgf10.png,56,56,0,x,0.43693370000255527,None,0,56,56,56,192.13652939999884,,,,,,,193.63653129999875,193.1403352999987,193.1440580999988,193.1440580999988,193.6309622000008,194.742395199999,194.742395199999,x,0.43693370000255527,None,,193.63653129999875,193.63653129999875,,,,,,,,KR_en,001,2025-03-10_21h10.52.502,MainFlow,2024.2.4,143.95821757222737,2025-03-10 21h11.02.490311 +0700,
2,76,0,word/worden0761.png,image/False/imgf76.png,57,57,0,x,0.5300376999985019,None,0,57,57,57,195.19154189999972,,,,,,,196.6914536000004,196.1956457999986,196.19921410000097,196.19921410000097,196.68579899999895,197.8279763999999,197.8279763999999,x,0.5300376999985019,None,,196.6914536000004,196.6914536000004,,,,,,,,KR_en,001,2025-03-10_21h10.52.502,MainFlow,2024.2.4,143.95821757222737,2025-03-10 21h11.02.490311 +0700,
2,42,1,word/worden0421.png,image/True/img42.png,58,58,0,z,0.40715999999883934,None,0,58,58,58,198.3671495000017,,,,,,,199.86442230000102,199.36961990000054,199.37288529999933,199.37288529999933,199.85923510000066,200.97952530000111,200.97952530000111,z,0.40715999999883934,None,200.97952530000111,199.86442230000102,199.86442230000102,,,,,,,,KR_en,001,2025-03-10_21h10.52.502,MainFlow,2024.2.4,143.95821757222737,2025-03-10 21h11.02.490311 +0700,
2,26,0,word/worden0261.png,image/False/imgf26.png,59,59,0,x,0.558272099999158,None,0,59,59,59,201.39862699999867,,,,,,,202.9054971000005,202.41907939999874,202.4225805999995,202.4225805999995,202.89897380000184,204.0268806000022,204.0268806000022,x,0.558272099999158,None,,,,,,,,,,,KR_en,001,2025-03-10_21h10.52.502,MainFlow,2024.2.4,143.95821757222737,2025-03-10 21h11.02.490311 +0700,
2,26,1,word/worden0261.png,image/True/img26.png,60,60,0,z,0.9784141999989515,None,0,60,60,60,204.59243699999934,,,,,,,206.09919889999946,205.60057280000183,205.6041148000004,205.6041148000004,206.0927870000014,207.22408340000038,207.22408340000038,z,0.9784141999989515,None,,,,,,,,,,,KR_en,001,2025-03-10_21h10.52.502,MainFlow,2024.2.4,143.95821757222737,2025-03-10 21h11.02.490311 +0700,
2,48,1,word/worden0481.png,image/True/img48.png,61,61,0,z,0.6644517000022461,None,0,61,61,61,208.20996790000208,,,,,,,209.70973500000036,209.2119120999996,209.21496770000158,209.21496770000158,209.70447739999872,210.83240410000144,210.83240410000144,z,0.6644517000022461,None,,209.70973500000036,209.70973500000036,,,,,,,,KR_en,001,2025-03-10_21h10.52.502,MainFlow,2024.2.4,143.95821757222737,2025-03-10 21h11.02.490311 +0700,
2,71,0,word/worden0711.png,image/False/imgf71.png,62,62,0,x,0.5872215000017604,None,0,62,62,62,211.50947710000037,,,,,,,213.0147543000021,212.5160141999986,212.5189395999987,212.5189395999987,213.00841149999906,214.1546156000004,214.1546156000004,x,0.5872215000017604,None,212.5189395999987,,,,,,,,,,KR_en,001,2025-03-10_21h10.52.502,MainFlow,2024.2.4,143.95821757222737,2025-03-10 21h11.02.490311 +0700,
2,93,1,word/worden0931.png,image/True/img93.png,63,63,0,z,0.5617201999993995,None,0,63,63,63,214.75020710000172,,,,,,,216.25013500000205,215.75184549999904,215.7554616999987,215.7554616999987,216.2442871000021,217.3501643999989,217.3501643999989,z,0.5617201999993995,None,,216.25013500000205,216.25013500000205,,,,,,,,KR_en,001,2025-03-10_21h10.52.502,MainFlow,2024.2.4,143.95821757222737,2025-03-10 21h11.02.490311 +0700,
2,51,1,word/worden0511.png,image/True/img51.png,64,64,0,z,0.7097713000002841,None,0,64,64,64,217.92328980000093,,,,,,,219.41596090000166,218.9233916000012,218.92704579999918,218.92704579999918,219.41018270000131,220.5327639999996,220.5327639999996,z,0.7097713000002841,None,220.5327639999996,219.41596090000166,219.41596090000166,,,,,,,,KR_en,001,2025-03-10_21h10.52.502,MainFlow,2024.2.4,143.95821757222737,2025-03-10 21h11.02.490311 +0700,
2,78,0,word/worden0781.png,image/False/imgf78.png,65,65,0,x,0.6033962000001338,None,0,65,65,65,221.24911860000066,,,,,,,222.74879069999952,222.25009990000035,222.25368199999866,222.25368199999866,222.74317940000037,223.82857449999938,223.82857449999938,x,0.6033962000001338,None,,222.74879069999952,222.74879069999952,,,,,,,,KR_en,001,2025-03-10_21h10.52.502,MainFlow,2024.2.4,143.95821757222737,2025-03-10 21h11.02.490311 +0700,
2,64,0,word/worden0641.png,image/False/imgf64.png,66,66,0,x,0.5255056999994849,None,0,66,66,66,224.442887600002,,,,,,,225.94255749999866,225.4431454000005,225.4469992000013,225.4469992000013,225.93674850000025,227.0082822000004,227.0082822000004,x,0.5255056999994849,None,,225.94255749999866,225.94255749999866,,,,,,,,KR_en,001,2025-03-10_21h10.52.502,MainFlow,2024.2.4,143.95821757222737,2025-03-10 21h11.02.490311 +0700,
2,68,1,word/worden0681.png,image/True/img68.png,67,67,0,z,0.6291504000000714,None,0,67,67,67,227.54165339999963,,,,,,,229.03947289999996,228.5411903000022,228.54458100000193,228.54458100000193,229.03475049999906,230.11591709999993,230.11591709999993,z,0.6291504000000714,None,230.11591709999993,229.03947289999996,229.03947289999996,,,,,,,,KR_en,001,2025-03-10_21h10.52.502,MainFlow,2024.2.4,143.95821757222737,2025-03-10 21h11.02.490311 +0700,
2,57,0,word/worden0571.png,image/False/imgf57.png,68,68,0,x,1.1928727000013168,None,0,68,68,68,230.75410639999973,,,,,,,232.24689339999895,231.75426499999958,231.75753299999997,231.75753299999997,232.24113059999945,233.36709930000143,233.36709930000143,x,1.1928727000013168,None,233.36709930000143,232.24689339999895,232.24689339999895,,,,,,,,KR_en,001,2025-03-10_21h10.52.502,MainFlow,2024.2.4,143.95821757222737,2025-03-10 21h11.02.490311 +0700,
2,31,0,word/worden0311.png,image/False/imgf31.png,69,69,0,x,0.5784471999977541,None,0,69,69,69,234.5726543000019,,,,,,,236.07949999999983,235.59202509999886,235.59532649999892,235.59532649999892,236.07299749999947,237.13826870000048,237.13826870000048,x,0.5784471999977541,None,,,,,,,,,,,KR_en,001,2025-03-10_21h10.52.502,MainFlow,2024.2.4,143.95821757222737,2025-03-10 21h11.02.490311 +0700,
2,31,0,word/worden0311.png,image/False/imgf31.png,70,70,0,x,0.3984081000016886,None,0,70,70,70,237.7249202999992,,,,,,,239.2177343000003,238.72081629999957,238.72411600000123,238.72411600000123,239.2121995000016,240.29217960000096,240.29217960000096,x,0.3984081000016886,None,240.29217960000096,239.2177343000003,239.2177343000003,,,,,,,,KR_en,001,2025-03-10_21h10.52.502,MainFlow,2024.2.4,143.95821757222737,2025-03-10 21h11.02.490311 +0700,
2,55,1,word/worden0551.png,image/True/img55.png,71,71,0,z,0.48304429999916465,None,0,71,71,71,240.6966648000016,,,,,,,242.19051260000197,241.69119130000036,241.69448750000083,241.69448750000083,242.18381969999973,243.3181853999995,243.3181853999995,z,0.48304429999916465,None,243.3181853999995,242.19051260000197,242.19051260000197,,,,,,,,KR_en,001,2025-03-10_21h10.52.502,MainFlow,2024.2.4,143.95821757222737,2025-03-10 21h11.02.490311 +0700,
2,36,1,word/worden0361.png,image/True/img36.png,72,72,0,z,0.3792996000011044,None,0,72,72,72,243.8071024000019,,,,,,,245.30013220000183,244.805086700002,244.80847970000104,244.80847970000104,245.29443710000123,246.40104060000158,246.40104060000158,z,0.3792996000011044,None,246.40104060000158,245.30013220000183,245.30013220000183,,,,,,,,KR_en,001,2025-03-10_21h10.52.502,MainFlow,2024.2.4,143.95821757222737,2025-03-10 21h11.02.490311 +0700,
2,8,0,word/worden0081.png,image/False/imgf08.png,73,73,0,x,0.5231338000012329,None,0,73,73,73,246.79259399999864,,,,,,,248.28568209999867,247.79296969999996,247.79650480000055,247.79650480000055,248.27968959999998,249.36762250000174,249.36762250000174,x,0.5231338000012329,None,249.36762250000174,248.28568209999867,248.28568209999867,,,,,,,,KR_en,001,2025-03-10_21h10.52.502,MainFlow,2024.2.4,143.95821757222737,2025-03-10 21h11.02.490311 +0700,
2,82,0,word/worden0821.png,image/False/imgf82.png,74,74,0,x,0.535766799999692,None,0,74,74,74,249.9030481000009,,,,,,,251.40289409999968,250.90885170000183,250.91241960000116,250.91241960000116,251.39708339999925,252.51462040000115,252.51462040000115,x,0.535766799999692,None,,251.40289409999968,251.40289409999968,,,,,,,,KR_en,001,2025-03-10_21h10.52.502,MainFlow,2024.2.4,143.95821757222737,2025-03-10 21h11.02.490311 +0700,
2,14,0,word/worden0141.png,image/False/imgf14.png,75,75,0,x,0.4593996000003244,None,0,75,75,75,253.06238170000142,,,,,,,254.55519529999947,254.05996890000097,254.06324320000203,254.06324320000203,254.55016579999938,255.66686630000186,255.66686630000186,x,0.4593996000003244,None,255.66686630000186,254.55519529999947,254.55519529999947,,,,,,,,KR_en,001,2025-03-10_21h10.52.502,MainFlow,2024.2.4,143.95821757222737,2025-03-10 21h11.02.490311 +0700,
2,71,1,word/worden0711.png,image/True/img71.png,76,76,0,z,0.6260349999975006,None,0,76,76,76,256.13795989999926,,,,,,,257.63090609999927,257.13224249999985,257.1356796,257.1356796,257.624576000002,258.7574186999991,258.7574186999991,z,0.6260349999975006,None,258.7574186999991,257.63090609999927,257.63090609999927,,,,,,,,KR_en,001,2025-03-10_21h10.52.502,MainFlow,2024.2.4,143.95821757222737,2025-03-10 21h11.02.490311 +0700,
2,22,0,word/worden0221.png,image/False/imgf22.png,77,77,0,x,0.547284899999795,None,0,77,77,77,259.3943337000019,,,,,,,260.9012647999989,260.41355939999994,260.4167301000016,260.4167301000016,260.8947518999994,262.00485630000185,262.00485630000185,x,0.547284899999795,None,,,,,,,,,,,KR_en,001,2025-03-10_21h10.52.502,MainFlow,2024.2.4,143.95821757222737,2025-03-10 21h11.02.490311 +0700,
2,78,1,word/worden0781.png,image/True/img78.png,78,78,0,z,0.5525129999987257,None,0,78,78,78,262.5624306999998,,,,,,,264.060025499999,263.56203520000054,263.5656780999998,263.5656780999998,264.05383119999897,265.1611144999988,265.1611144999988,z,0.5525129999987257,None,,264.060025499999,264.060025499999,,,,,,,,KR_en,001,2025-03-10_21h10.52.502,MainFlow,2024.2.4,143.95821757222737,2025-03-10 21h11.02.490311 +0700,
2,51,0,word/worden0511.png,image/False/imgf51.png,79,79,0,x,0.41004249999969034,None,0,79,79,79,265.71951230000195,,,,,,,267.2123390000015,266.7160275999995,266.71939570000177,266.71939570000177,267.2067188000001,268.29862100000173,268.29862100000173,x,0.41004249999969034,None,268.29862100000173,267.2123390000015,267.2123390000015,,,,,,,,KR_en,001,2025-03-10_21h10.52.502,MainFlow,2024.2.4,143.95821757222737,2025-03-10 21h11.02.490311 +0700,
2,56,1,word/worden0561.png,image/True/img56.png,80,80,0,z,1.7975016999989748,None,0,80,80,80,268.7188797000017,,,,,,,270.22573399999965,269.7363039000011,269.73987599999964,269.73987599999964,270.2199131000016,271.316376499999,271.316376499999,z,1.7975016999989748,None,,,,,,,,,,,KR_en,001,2025-03-10_21h10.52.502,MainFlow,2024.2.4,143.95821757222737,2025-03-10 21h11.02.490311 +0700,
2,60,1,word/worden0601.png,image/True/img60.png,81,81,0,z,0.4005512000003364,None,0,81,81,81,273.1209526999992,,,,,,,274.6275639000014,274.13466400000107,274.13767740000185,274.13767740000185,274.62107540000216,275.718190399999,275.718190399999,z,0.4005512000003364,None,,,,,,,,,,,KR_en,001,2025-03-10_21h10.52.502,MainFlow,2024.2.4,143.95821757222737,2025-03-10 21h11.02.490311 +0700,
2,96,0,word/worden0961.png,image/False/imgf96.png,82,82,0,x,0.40533630000209087,None,0,82,82,82,276.1272014999995,,,,,,,277.6268304000005,277.12805149999986,277.1315582999996,277.1315582999996,277.6206920000004,278.7442837000017,278.7442837000017,x,0.40533630000209087,None,,277.6268304000005,277.6268304000005,,,,,,,,KR_en,001,2025-03-10_21h10.52.502,MainFlow,2024.2.4,143.95821757222737,2025-03-10 21h11.02.490311 +0700,
2,3,0,word/worden0031.png,image/False/imgf03.png,83,83,0,x,0.42953620000116643,None,0,83,83,83,279.16128630000094,,,,,,,280.65422749999925,280.15653530000054,280.1598703999989,280.1598703999989,280.64864450000096,281.7661302999986,281.7661302999986,x,0.42953620000116643,None,281.7661302999986,280.65422749999925,280.65422749999925,,,,,,,,KR_en,001,2025-03-10_21h10.52.502,MainFlow,2024.2.4,143.95821757222737,2025-03-10 21h11.02.490311 +0700,
2,55,0,word/worden0551.png,image/False/imgf55.png,84,84,0,x,2.5029562000017904,None,0,84,84,84,282.2026076000002,,,,,,,283.69537449999916,283.19648679999955,283.19990659999894,283.19990659999894,283.6901426000004,284.80781339999885,284.80781339999885,x,2.5029562000017904,None,284.80781339999885,283.69537449999916,283.69537449999916,,,,,,,,KR_en,001,2025-03-10_21h10.52.502,MainFlow,2024.2.4,143.95821757222737,2025-03-10 21h11.02.490311 +0700,
2,71,1,word/worden0711.png,image/True/img71.png,85,85,0,z,0.39922350000051665,None,0,85,85,85,287.3193831999997,,,,,,,288.8052190999988,288.30733039999905,288.31006419999903,288.31006419999903,288.7991600999994,289.94539330000043,289.94539330000043,z,0.39922350000051665,None,289.94539330000043,288.8052190999988,288.8052190999988,,,,,,,,KR_en,001,2025-03-10_21h10.52.502,MainFlow,2024.2.4,143.95821757222737,2025-03-10 21h11.02.490311 +0700,
2,3,1,word/worden0031.png,image/True/img03.png,86,86,0,z,0.9029072000012093,None,0,86,86,86,290.35354949999964,,,,,,,291.8464195999986,291.3486035999995,291.35187679999945,291.35187679999945,291.8405348000015,292.96443740000177,292.96443740000177,z,0.9029072000012093,None,292.96443740000177,291.8464195999986,291.8464195999986,,,,,,,,KR_en,001,2025-03-10_21h10.52.502,MainFlow,2024.2.4,143.95821757222737,2025-03-10 21h11.02.490311 +0700,
2,52,1,word/worden0521.png,image/True/img52.png,87,87,0,z,0.35776430000260007,None,0,87,87,87,293.87372740000137,,,,,,,295.3666946000012,294.8695159000017,294.872833100002,294.872833100002,295.36145749999923,296.4935508999988,296.4935508999988,z,0.35776430000260007,None,296.4935508999988,295.3666946000012,295.3666946000012,,,,,,,,KR_en,001,2025-03-10_21h10.52.502,MainFlow,2024.2.4,143.95821757222737,2025-03-10 21h11.02.490311 +0700,
2,95,0,word/worden0951.png,image/False/imgf95.png,88,88,0,x,0.9314426999990246,None,0,88,88,88,296.8593123999999,,,,,,,298.35221810000075,297.8544984,297.85779550000007,297.85779550000007,298.346893599999,299.4754567000018,299.4754567000018,x,0.9314426999990246,None,299.4754567000018,298.35221810000075,298.35221810000075,,,,,,,,KR_en,001,2025-03-10_21h10.52.502,MainFlow,2024.2.4,143.95821757222737,2025-03-10 21h11.02.490311 +0700,
2,6,0,word/worden0061.png,image/False/imgf06.png,89,89,0,x,0.6056258999997226,None,0,89,89,89,300.4141116999999,,,,,,,301.9069015999994,301.4133359000007,301.4167011999998,301.4167011999998,301.9009656999988,303.00662609999927,303.00662609999927,x,0.6056258999997226,None,303.00662609999927,301.9069015999994,301.9069015999994,,,,,,,,KR_en,001,2025-03-10_21h10.52.502,MainFlow,2024.2.4,143.95821757222737,2025-03-10 21h11.02.490311 +0700,
2,79,1,word/worden0791.png,image/True/img79.png,90,90,0,z,0.34895030000188854,None,0,90,90,90,303.62194100000124,,,,,,,305.1287020999989,304.6316044000014,304.6352286000001,304.6352286000001,305.12239079999927,306.2413235000022,306.2413235000022,z,0.34895030000188854,None,,,,,,,,,,,KR_en,001,2025-03-10_21h10.52.502,MainFlow,2024.2.4,143.95821757222737,2025-03-10 21h11.02.490311 +0700,
2,61,0,word/worden0611.png,image/False/imgf61.png,91,91,0,x,0.5170693000000028,None,0,91,91,91,306.60037139999986,,,,,,,308.1005507000009,307.6049511000019,307.6086944000017,307.6086944000017,308.09463490000053,309.224806000002,309.224806000002,x,0.5170693000000028,None,,308.1005507000009,308.1005507000009,,,,,,,,KR_en,001,2025-03-10_21h10.52.502,MainFlow,2024.2.4,143.95821757222737,2025-03-10 21h11.02.490311 +0700,
2,46,0,word/worden0461.png,image/False/imgf46.png,92,92,0,z,0.3596125999974902,None,0,92,92,92,309.75257780000175,,,,,,,311.25940139999875,310.772619899999,310.77601420000065,310.77601420000065,311.2530592000003,312.3881475999988,312.3881475999988,z,0.3596125999974902,None,,,,,,,,,,,KR_en,001,2025-03-10_21h10.52.502,MainFlow,2024.2.4,143.95821757222737,2025-03-10 21h11.02.490311 +0700,
2,89,1,word/worden0891.png,image/True/img89.png,93,93,0,z,0.4404332999984035,None,0,93,93,93,312.7589135999988,,,,,,,314.2656121,313.77839609999864,313.7815171000002,313.7815171000002,314.25910990000193,315.34223230000134,315.34223230000134,z,0.4404332999984035,None,,,,,,,,,,,KR_en,001,2025-03-10_21h10.52.502,MainFlow,2024.2.4,143.95821757222737,2025-03-10 21h11.02.490311 +0700,
2,26,0,word/worden0261.png,image/False/imgf26.png,94,94,0,x,0.5715457999976934,None,0,94,94,94,315.79318989999956,,,,,,,317.28585060000114,316.78953900000124,316.79282610000155,316.79282610000155,317.27991680000196,318.4075594999995,318.4075594999995,x,0.5715457999976934,None,318.4075594999995,317.28585060000114,317.28585060000114,,,,,,,,KR_en,001,2025-03-10_21h10.52.502,MainFlow,2024.2.4,143.95821757222737,2025-03-10 21h11.02.490311 +0700,
2,44,0,word/worden0441.png,image/False/imgf44.png,95,95,0,x,0.6134997000008298,None,0,95,95,95,318.98697449999963,,,,,,,320.4866776000017,319.9880864000006,319.99167020000095,319.99167020000095,320.48113770000055,321.61024100000213,321.61024100000213,x,0.6134997000008298,None,,320.4866776000017,320.4866776000017,,,,,,,,KR_en,001,2025-03-10_21h10.52.502,MainFlow,2024.2.4,143.95821757222737,2025-03-10 21h11.02.490311 +0700,
2,82,1,word/worden0821.png,image/True/img82.png,96,96,0,z,0.5819976999991923,None,0,96,96,96,322.2302645000018,,,,,,,323.71557960000064,323.22308780000094,323.2263955000017,323.2263955000017,323.7102930000001,324.7812720000002,324.7812720000002,z,0.5819976999991923,None,324.7812720000002,323.71557960000064,323.71557960000064,,,,,,,,KR_en,001,2025-03-10_21h10.52.502,MainFlow,2024.2.4,143.95821757222737,2025-03-10 21h11.02.490311 +0700,
2,16,1,word/worden0161.png,image/True/img16.png,97,97,0,z,0.5615355000009004,None,0,97,97,97,325.3746328999987,,,,,,,326.8745544000012,326.37915820000126,326.38275520000025,326.38275520000025,326.8692431999989,328.0089942000013,328.0089942000013,z,0.5615355000009004,None,,326.8745544000012,326.8745544000012,,,,,,,,KR_en,001,2025-03-10_21h10.52.502,MainFlow,2024.2.4,143.95821757222737,2025-03-10 21h11.02.490311 +0700,
2,20,1,word/worden0201.png,image/True/img20.png,98,98,0,z,0.49903790000098525,None,0,98,98,98,328.58458600000085,,,,,,,330.08898770000087,329.5909066999993,329.59359219999897,329.59359219999897,330.08264690000215,331.2050672000005,331.2050672000005,z,0.49903790000098525,None,329.59359219999897,,,,,,,,,,KR_en,001,2025-03-10_21h10.52.502,MainFlow,2024.2.4,143.95821757222737,2025-03-10 21h11.02.490311 +0700,
2,20,1,word/worden0201.png,image/True/img20.png,99,99,0,z,0.4112189999978,None,0,99,99,99,331.7138168999991,,,,,,,333.2064243999994,332.7135425999986,332.7169122000014,332.7169122000014,333.20094489999974,334.3229962000005,334.3229962000005,z,0.4112189999978,None,334.3229962000005,333.2064243999994,333.2064243999994,,,,,,,,KR_en,001,2025-03-10_21h10.52.502,MainFlow,2024.2.4,143.95821757222737,2025-03-10 21h11.02.490311 +0700,
2,96,1,word/worden0961.png,image/True/img96.png,100,100,0,z,0.4560523000000103,None,0,100,100,100,334.74228239999866,,,,,,,336.24776890000066,335.74822680000216,335.75176759999886,335.75176759999886,336.24134029999914,337.3687217000006,337.3687217000006,z,0.4560523000000103,None,335.75176759999886,,,,,,,,,,KR_en,001,2025-03-10_21h10.52.502,MainFlow,2024.2.4,143.95821757222737,2025-03-10 21h11.02.490311 +0700,
2,64,1,word/worden0641.png,image/True/img64.png,101,101,0,z,0.49003970000194386,None,0,101,101,101,337.8374178000013,,,,,,,339.3302990000011,338.8376657000008,338.8412462000015,338.8412462000015,339.32453689999966,340.4105086999989,340.4105086999989,z,0.49003970000194386,None,340.4105086999989,339.3302990000011,339.3302990000011,,,,,,,,KR_en,001,2025-03-10_21h10.52.502,MainFlow,2024.2.4,143.95821757222737,2025-03-10 21h11.02.490311 +0700,
2,78,0,word/worden0781.png,image/False/imgf78.png,102,102,0,x,0.49390739999944344,None,0,102,102,102,340.90807549999954,,,,,,,342.40616059999957,341.9086164,341.91194259999975,341.91194259999975,342.4008032999991,343.4843695000018,343.4843695000018,x,0.49390739999944344,None,343.4843695000018,342.40616059999957,342.40616059999957,,,,,,,,KR_en,001,2025-03-10_21h10.52.502,MainFlow,2024.2.4,143.95821757222737,2025-03-10 21h11.02.490311 +0700,
2,20,0,word/worden0201.png,image/False/imgf20.png,103,103,0,x,0.6557888000024832,None,0,103,103,103,343.989270500002,,,,,,,345.48192570000174,344.98904760000005,344.9917362999986,344.9917362999986,345.47661399999924,346.62654490000205,346.62654490000205,x,0.6557888000024832,None,346.62654490000205,345.48192570000174,345.48192570000174,,,,,,,,KR_en,001,2025-03-10_21h10.52.502,MainFlow,2024.2.4,143.95821757222737,2025-03-10 21h11.02.490311 +0700,
2,89,1,word/worden0891.png,image/True/img89.png,104,104,0,z,0.736450700002024,None,0,104,104,104,347.29411679999976,,,,,,,348.77989309999975,348.2867781999994,348.28996370000095,348.28996370000095,348.77464060000057,349.8711141999993,349.8711141999993,z,0.736450700002024,None,349.8711141999993,348.77989309999975,348.77989309999975,,,,,,,,KR_en,001,2025-03-10_21h10.52.502,MainFlow,2024.2.4,143.95821757222737,2025-03-10 21h11.02.490311 +0700,
2,59,0,word/worden0591.png,image/False/imgf59.png,105,105,0,x,0.7789195999976073,None,0,105,105,105,350.6197366999986,,,,,,,352.10583899999983,351.6065845000012,351.60964779999995,351.60964779999995,352.0929458999999,353.18659200000184,353.18659200000184,x,0.7789195999976073,None,353.18659200000184,352.0987165000006,352.0987165000006,,,,,,,,KR_en,001,2025-03-10_21h10.52.502,MainFlow,2024.2.4,143.95821757222737,2025-03-10 21h11.02.490311 +0700,
2,24,0,word/worden0241.png,image/False/imgf24.png,106,106,0,x,0.8159720999974525,None,0,106,106,106,353.97318860000087,,,,,,,355.4801492000006,354.98383490000197,354.9869758999994,354.9869758999994,355.4751092000006,356.5737474000016,356.5737474000016,x,0.8159720999974525,None,,,,,,,,,,,KR_en,001,2025-03-10_21h10.52.502,MainFlow,2024.2.4,143.95821757222737,2025-03-10 21h11.02.490311 +0700,
2,28,0,word/worden0281.png,image/False/imgf28.png,107,107,0,x,0.5380267000000458,None,0,107,107,107,357.3961186000015,,,,,,,358.8891603000011,358.3941072000016,358.3974276000008,358.3974276000008,358.8838570000007,359.9843218999995,359.9843218999995,x,0.5380267000000458,None,359.9843218999995,358.8891603000011,358.8891603000011,,,,,,,,KR_en,001,2025-03-10_21h10.52.502,MainFlow,2024.2.4,143.95821757222737,2025-03-10 21h11.02.490311 +0700,
2,15,0,word/worden0151.png,image/False/imgf15.png,108,108,0,x,0.5350053000001935,None,0,108,108,108,360.53451510000014,,,,,,,362.034167400001,361.53952220000065,361.54224189999877,361.54224189999877,362.028388499999,363.14549199999965,363.14549199999965,x,0.5350053000001935,None,,362.034167400001,362.034167400001,,,,,,,,KR_en,001,2025-03-10_21h10.52.502,MainFlow,2024.2.4,143.95821757222737,2025-03-10 21h11.02.490311 +0700,
2,30,1,word/worden0301.png,image/True/img30.png,109,109,0,z,0.5649348000006285,None,0,109,109,109,363.686731400001,,,,,,,365.1933241000006,364.71003310000015,364.71315369999866,364.71315369999866,365.18689359999917,366.2830357999992,366.2830357999992,z,0.5649348000006285,None,,,,,,,,,,,KR_en,001,2025-03-10_21h10.52.502,MainFlow,2024.2.4,143.95821757222737,2025-03-10 21h11.02.490311 +0700,
2,64,1,word/worden0641.png,image/True/img64.png,110,110,0,z,0.32372830000167596,None,0,110,110,110,366.85965190000206,,,,,,,368.35223939999923,367.8591849000004,367.86266740000065,367.86266740000065,368.3461443999986,369.44467599999916,369.44467599999916,z,0.32372830000167596,None,369.44467599999916,368.35223939999923,368.35223939999923,,,,,,,,KR_en,001,2025-03-10_21h10.52.502,MainFlow,2024.2.4,143.95821757222737,2025-03-10 21h11.02.490311 +0700,
2,52,0,word/worden0521.png,image/False/imgf52.png,111,111,0,x,0.40314910000233795,None,0,111,111,111,369.77568520000204,,,,,,,371.2687298000019,370.7739886999989,370.7773969000009,370.7773969000009,371.2633597000022,372.37004380000144,372.37004380000144,x,0.40314910000233795,None,372.37004380000144,371.2687298000019,371.2687298000019,,,,,,,,KR_en,001,2025-03-10_21h10.52.502,MainFlow,2024.2.4,143.95821757222737,2025-03-10 21h11.02.490311 +0700,
2,33,1,word/worden0331.png,image/True/img33.png,112,112,0,z,0.33144410000022617,None,0,112,112,112,372.78203470000153,,,,,,,374.2750390000001,373.77746280000065,373.7808225000008,373.7808225000008,374.2696431000004,375.3939042999991,375.3939042999991,z,0.33144410000022617,None,375.3939042999991,374.2750390000001,374.2750390000001,,,,,,,,KR_en,001,2025-03-10_21h10.52.502,MainFlow,2024.2.4,143.95821757222737,2025-03-10 21h11.02.490311 +0700,
2,23,1,word/worden0231.png,image/True/img23.png,113,113,0,z,0.3908922000009625,None,0,113,113,113,375.7330762999991,,,,,,,377.2188161000013,376.71975980000207,376.72249329999977,376.72249329999977,377.20657420000134,378.33449649999966,378.33449649999966,z,0.3908922000009625,None,378.33449649999966,377.21183910000036,377.21183910000036,,,,,,,,KR_en,001,2025-03-10_21h10.52.502,MainFlow,2024.2.4,143.95821757222737,2025-03-10 21h11.02.490311 +0700,
2,11,1,word/worden0111.png,image/True/img11.png,114,114,0,z,0.342455300000438,None,0,114,114,114,378.7332463999992,,,,,,,380.22518390000187,379.7291750000004,379.73272559999896,379.73272559999896,380.21913829999903,381.3628013999987,381.3628013999987,z,0.342455300000438,None,381.3628013999987,380.22518390000187,380.22518390000187,,,,,,,,KR_en,001,2025-03-10_21h10.52.502,MainFlow,2024.2.4,143.95821757222737,2025-03-10 21h11.02.490311 +0700,
2,22,1,word/worden0221.png,image/True/img22.png,115,115,0,z,0.6447251999998116,None,0,115,115,115,381.7178386000014,,,,,,,383.2107266000021,382.71269290000055,382.7162126000003,382.7162126000003,383.20556059999944,384.3486937999987,384.3486937999987,z,0.6447251999998116,None,384.3486937999987,383.2107266000021,383.2107266000021,,,,,,,,KR_en,001,2025-03-10_21h10.52.502,MainFlow,2024.2.4,143.95821757222737,2025-03-10 21h11.02.490311 +0700,
2,37,0,word/worden0371.png,image/False/imgf37.png,116,116,0,x,0.5769689999979164,None,0,116,116,116,385.0017055999997,,,,,,,386.4875835999992,385.9889839999996,385.99166759999935,385.99166759999935,386.4745273000008,387.6509174999992,387.6509174999992,x,0.5769689999979164,None,387.6509174999992,386.48060030000124,386.48060030000124,,,,,,,,KR_en,001,2025-03-10_21h10.52.502,MainFlow,2024.2.4,143.95821757222737,2025-03-10 21h11.02.490311 +0700,
2,79,0,word/worden0791.png,image/False/imgf79.png,117,117,0,x,0.72040609999749,None,0,117,117,117,388.2401792000019,,,,,,,389.7372361000016,389.24249599999894,389.2453463999991,389.2453463999991,389.73152019999907,390.87354609999966,390.87354609999966,x,0.72040609999749,None,390.87354609999966,389.7372361000016,389.7372361000016,,,,,,,,KR_en,001,2025-03-10_21h10.52.502,MainFlow,2024.2.4,143.95821757222737,2025-03-10 21h11.02.490311 +0700,
2,56,1,word/worden0561.png,image/True/img56.png,118,118,0,z,0.5423960000007355,None,0,118,118,118,391.6061722000013,,,,,,,393.10449340000196,392.6065645000017,392.60996530000193,392.60996530000193,393.0987114999989,394.21604540000044,394.21604540000044,z,0.5423960000007355,None,394.21604540000044,393.10449340000196,393.10449340000196,,,,,,,,KR_en,001,2025-03-10_21h10.52.502,MainFlow,2024.2.4,143.95821757222737,2025-03-10 21h11.02.490311 +0700,
2,68,1,word/worden0681.png,image/True/img68.png,119,119,0,z,0.4576273000020592,None,0,119,119,119,394.7708488999997,,,,,,,396.2636843,395.766696900002,395.7702059000003,395.7702059000003,396.25855140000203,397.3465380999987,397.3465380999987,z,0.4576273000020592,None,397.3465380999987,396.2636843,396.2636843,,,,,,,,KR_en,001,2025-03-10_21h10.52.502,MainFlow,2024.2.4,143.95821757222737,2025-03-10 21h11.02.490311 +0700,
2,27,0,word/worden0271.png,image/False/imgf27.png,120,120,0,x,0.6241967999994813,None,0,120,120,120,397.8118949000018,,,,,,,399.3049408000006,398.8060929000021,398.80939450000005,398.80939450000005,399.2995649000004,400.4133617000007,400.4133617000007,x,0.6241967999994813,None,400.4133617000007,399.3049408000006,399.3049408000006,,,,,,,,KR_en,001,2025-03-10_21h10.52.502,MainFlow,2024.2.4,143.95821757222737,2025-03-10 21h11.02.490311 +0700,
2,3,1,word/worden0031.png,image/True/img03.png,121,121,0,z,0.6527969000017038,None,0,121,121,121,401.0475425000004,,,,,,,402.54018740000174,402.0419765000006,402.04525139999896,402.04525139999896,402.5343123999992,403.6551392000001,403.6551392000001,z,0.6527969000017038,None,403.6551392000001,402.54018740000174,402.54018740000174,,,,,,,,KR_en,001,2025-03-10_21h10.52.502,MainFlow,2024.2.4,143.95821757222737,2025-03-10 21h11.02.490311 +0700,
2,38,0,word/worden0381.png,image/False/imgf38.png,122,122,0,x,0.629320000000007,None,0,122,122,122,404.31759189999866,,,,,,,405.8102117999988,405.31229729999905,405.3155470999991,405.3155470999991,405.8040628999988,406.9606970999994,406.9606970999994,x,0.629320000000007,None,406.9606970999994,405.8102117999988,405.8102117999988,,,,,,,,KR_en,001,2025-03-10_21h10.52.502,MainFlow,2024.2.4,143.95821757222737,2025-03-10 21h11.02.490311 +0700,
2,59,1,word/worden0591.png,image/True/img59.png,123,123,0,z,0.3033761000006052,None,0,123,123,123,407.60179459999927,,,,,,,409.0945275000013,408.6021361999992,408.60564950000116,408.60564950000116,409.08920800000124,410.16695560000153,410.16695560000153,z,0.3033761000006052,None,410.16695560000153,409.0945275000013,409.0945275000013,,,,,,,,KR_en,001,2025-03-10_21h10.52.502,MainFlow,2024.2.4,143.95821757222737,2025-03-10 21h11.02.490311 +0700,
2,18,1,word/worden0181.png,image/True/img18.png,124,124,0,z,0.6301314999982424,None,0,124,124,124,410.4761556000012,,,,,,,411.9829712999999,411.4886664000005,411.4921022000017,411.4921022000017,411.97672149999926,413.0606970000008,413.0606970000008,z,0.6301314999982424,None,,,,,,,,,,,KR_en,001,2025-03-10_21h10.52.502,MainFlow,2024.2.4,143.95821757222737,2025-03-10 21h11.02.490311 +0700,
2,60,1,word/worden0601.png,image/True/img60.png,125,125,0,z,0.23938970000017434,None,0,125,125,125,413.697701699999,,,,,,,415.1905551999989,414.69227709999905,414.6957098000021,414.6957098000021,415.1846194999998,416.2927855000016,416.2927855000016,z,0.23938970000017434,None,416.2927855000016,415.1905551999989,415.1905551999989,,,,,,,,KR_en,001,2025-03-10_21h10.52.502,MainFlow,2024.2.4,143.95821757222737,2025-03-10 21h11.02.490311 +0700,
2,9,1,word/worden0091.png,image/True/img09.png,126,126,0,z,0.3022151000004669,None,0,126,126,126,416.5444029999999,,,,,,,418.0371607999987,417.54403399999865,417.54706069999884,417.54706069999884,418.03149420000045,419.1062168999997,419.1062168999997,z,0.3022151000004669,None,419.1062168999997,418.0371607999987,418.0371607999987,,,,,,,,KR_en,001,2025-03-10_21h10.52.502,MainFlow,2024.2.4,143.95821757222737,2025-03-10 21h11.02.490311 +0700,
2,9,0,word/worden0091.png,image/False/imgf09.png,127,127,0,x,0.29762140000093495,None,0,127,127,127,419.4189449000005,,,,,,,420.9186730000001,420.42068669999935,420.42425840000215,420.42425840000215,420.91327250000177,421.9931238999998,421.9931238999998,x,0.29762140000093495,None,,420.9186730000001,420.9186730000001,,,,,,,,KR_en,001,2025-03-10_21h10.52.502,MainFlow,2024.2.4,143.95821757222737,2025-03-10 21h11.02.490311 +0700,
2,94,0,word/worden0941.png,image/False/imgf94.png,128,128,0,x,0.37681079999674694,None,0,128,128,128,422.30048530000204,,,,,,,423.8070609999995,423.3172596000004,423.32070509999903,423.32070509999903,423.80081979999886,424.93687670000145,424.93687670000145,x,0.37681079999674694,None,,,,,,,,,,,KR_en,001,2025-03-10_21h10.52.502,MainFlow,2024.2.4,143.95821757222737,2025-03-10 21h11.02.490311 +0700,
2,66,1,word/worden0661.png,image/True/img66.png,129,129,0,z,0.27739280000241706,None,0,129,129,129,425.32035579999865,,,,,,,426.8063567999998,426.3139153000011,426.3170099000017,426.3170099000017,426.8005360999996,427.91761380000025,427.91761380000025,z,0.27739280000241706,None,427.91761380000025,426.8063567999998,426.8063567999998,,,,,,,,KR_en,001,2025-03-10_21h10.52.502,MainFlow,2024.2.4,143.95821757222737,2025-03-10 21h11.02.490311 +0700,
2,1,0,word/worden0011.png,image/False/imgf01.png,130,130,0,x,0.4273143999998865,None,0,130,130,130,428.20188450000205,,,,,,,429.701553400002,429.20240280000144,429.2058437000014,429.2058437000014,429.6963581000018,430.77850079999916,430.77850079999916,x,0.4273143999998865,None,,429.701553400002,429.701553400002,,,,,,,,KR_en,001,2025-03-10_21h10.52.502,MainFlow,2024.2.4,143.95821757222737,2025-03-10 21h11.02.490311 +0700,
2,89,0,word/worden0891.png,image/False/imgf89.png,131,131,0,x,0.7298583000010694,None,0,131,131,131,431.21751570000197,,,,,,,432.7009833000011,432.2076808999991,432.2103825000013,432.2103825000013,432.6956405000019,433.8121843000008,433.8121843000008,x,0.7298583000010694,None,433.8121843000008,432.7009833000011,432.7009833000011,,,,,,,,KR_en,001,2025-03-10_21h10.52.502,MainFlow,2024.2.4,143.95821757222737,2025-03-10 21h11.02.490311 +0700,
2,48,1,word/worden0481.png,image/True/img48.png,132,132,0,z,0.5894488999983878,None,0,132,132,132,434.5486720000008,,,,,,,436.0409251000019,435.545406600002,435.54887299999973,435.54887299999973,436.0348914999995,437.168164900002,437.168164900002,z,0.5894488999983878,None,437.168164900002,436.0409251000019,436.0409251000019,,,,,,,,KR_en,001,2025-03-10_21h10.52.502,MainFlow,2024.2.4,143.95821757222737,2025-03-10 21h11.02.490311 +0700,
2,63,0,word/worden0631.png,image/False/imgf63.png,133,133,0,x,0.5233463000004122,None,0,133,133,133,437.76951890000055,,,,,,,439.276194500002,438.7859099999987,438.789005300001,438.789005300001,439.26976469999863,440.3975844000015,440.3975844000015,x,0.5233463000004122,None,,,,,,,,,,,KR_en,001,2025-03-10_21h10.52.502,MainFlow,2024.2.4,143.95821757222737,2025-03-10 21h11.02.490311 +0700,
2,23,1,word/worden0231.png,image/True/img23.png,134,134,0,z,0.3158202999984496,None,0,134,134,134,440.9303553999998,,,,,,,442.4215002000019,441.922553700002,441.92578460000004,441.92578460000004,442.41618780000135,443.5352301999992,443.5352301999992,z,0.3158202999984496,None,443.5352301999992,442.4215002000019,442.4215002000019,,,,,,,,KR_en,001,2025-03-10_21h10.52.502,MainFlow,2024.2.4,143.95821757222737,2025-03-10 21h11.02.490311 +0700,
2,40,0,word/worden0401.png,image/False/imgf40.png,135,135,0,x,0.47085320000041975,None,0,135,135,135,443.8586718000006,,,,,,,445.3581450999991,444.86114570000063,444.86461079999935,444.86461079999935,445.35230729999967,446.47000200000184,446.47000200000184,x,0.47085320000041975,None,,445.3581450999991,445.3581450999991,,,,,,,,KR_en,001,2025-03-10_21h10.52.502,MainFlow,2024.2.4,143.95821757222737,2025-03-10 21h11.02.490311 +0700,
2,52,1,word/worden0521.png,image/True/img52.png,136,136,0,z,0.4121908999986772,None,0,136,136,136,446.94883929999924,,,,,,,448.4409086000014,447.9454091000007,447.9489312000005,447.9489312000005,448.43548790000204,449.5683960999995,449.5683960999995,z,0.4121908999986772,None,449.5683960999995,448.4409086000014,448.4409086000014,,,,,,,,KR_en,001,2025-03-10_21h10.52.502,MainFlow,2024.2.4,143.95821757222737,2025-03-10 21h11.02.490311 +0700,
2,30,1,word/worden0301.png,image/True/img30.png,137,137,0,z,0.5771409000008134,None,0,137,137,137,449.9892660000005,,,,,,,451.48205470000175,450.98856100000194,450.9919594999992,450.9919594999992,451.47593640000196,452.58511179999914,452.58511179999914,z,0.5771409000008134,None,452.58511179999914,451.48205470000175,451.48205470000175,,,,,,,,KR_en,001,2025-03-10_21h10.52.502,MainFlow,2024.2.4,143.95821757222737,2025-03-10 21h11.02.490311 +0700,
2,15,1,word/worden0151.png,image/True/img15.png,138,138,0,z,0.5506200999989233,None,0,138,138,138,453.17114420000144,,,,,,,454.6550771000002,454.1617143000003,454.16502050000054,454.16502050000054,454.6490715,455.7841150999993,455.7841150999993,z,0.5506200999989233,None,455.7841150999993,454.6550771000002,454.6550771000002,,,,,,,,KR_en,001,2025-03-10_21h10.52.502,MainFlow,2024.2.4,143.95821757222737,2025-03-10 21h11.02.490311 +0700,
2,46,1,word/worden0461.png,image/True/img46.png,139,139,0,z,0.4999113000012585,None,0,139,139,139,456.3422133999993,,,,,,,457.8282035000011,457.3289454000005,457.33169759999873,457.33169759999873,457.8158714000019,458.97726700000203,458.97726700000203,z,0.4999113000012585,None,458.97726700000203,457.8211709999996,457.8211709999996,,,,,,,,KR_en,001,2025-03-10_21h10.52.502,MainFlow,2024.2.4,143.95821757222737,2025-03-10 21h11.02.490311 +0700,
2,14,1,word/worden0141.png,image/True/img14.png,140,140,0,x,0.4049499000029755,None,0,140,140,140,459.4874982000001,,,,,,,460.98034090000147,460.4846555000004,460.48788440000135,460.48788440000135,460.9742788000003,462.10330969999995,462.10330969999995,x,0.4049499000029755,None,462.10330969999995,460.98034090000147,460.98034090000147,,,,,,,,KR_en,001,2025-03-10_21h10.52.502,MainFlow,2024.2.4,143.95821757222737,2025-03-10 21h11.02.490311 +0700,
2,66,0,word/worden0661.png,image/False/imgf66.png,141,141,0,x,0.4177693999990879,None,0,141,141,141,462.51516619999893,,,,,,,464.00722419999875,463.5099921000001,463.51350939999975,463.51350939999975,464.00107109999954,465.118298100002,465.118298100002,x,0.4177693999990879,None,465.118298100002,464.00722419999875,464.00722419999875,,,,,,,,KR_en,001,2025-03-10_21h10.52.502,MainFlow,2024.2.4,143.95821757222737,2025-03-10 21h11.02.490311 +0700,
2,46,0,word/worden0461.png,image/False/imgf46.png,142,142,0,x,0.3654086999995343,None,0,142,142,142,465.54173530000116,,,,,,,467.03465580000193,466.5372300000017,466.54011420000097,466.54011420000097,467.02870769999936,468.1665987999986,468.1665987999986,x,0.3654086999995343,None,468.1665987999986,467.03465580000193,467.03465580000193,,,,,,,,KR_en,001,2025-03-10_21h10.52.502,MainFlow,2024.2.4,143.95821757222737,2025-03-10 21h11.02.490311 +0700,
2,18,1,word/worden0181.png,image/True/img18.png,143,143,0,z,0.528232399999979,None,0,143,143,143,468.5439229000003,,,,,,,470.03396359999897,469.53499250000095,469.5383390999996,469.5383390999996,470.0284758000016,471.1255440999994,471.1255440999994,z,0.528232399999979,None,471.1255440999994,470.03396359999897,470.03396359999897,,,,,,,,KR_en,001,2025-03-10_21h10.52.502,MainFlow,2024.2.4,143.95821757222737,2025-03-10 21h11.02.490311 +0700,
2,51,0,word/worden0511.png,image/False/imgf51.png,144,144,0,x,0.5527111000010336,None,0,144,144,144,471.66583320000063,,,,,,,473.1584062000002,472.6602543000008,472.6635939000007,472.6635939000007,473.15253479999956,474.26081350000095,474.26081350000095,x,0.5527111000010336,None,474.26081350000095,473.1584062000002,473.1584062000002,,,,,,,,KR_en,001,2025-03-10_21h10.52.502,MainFlow,2024.2.4,143.95821757222737,2025-03-10 21h11.02.490311 +0700,
2,76,1,word/worden0761.png,image/True/img76.png,145,145,0,z,0.46959679999781656,None,0,145,145,145,474.8250546999989,,,,,,,476.3176238999986,475.82074809999904,475.824291500001,475.824291500001,476.3122809000015,477.41836740000144,477.41836740000144,z,0.46959679999781656,None,477.41836740000144,476.3176238999986,476.3176238999986,,,,,,,,KR_en,001,2025-03-10_21h10.52.502,MainFlow,2024.2.4,143.95821757222737,2025-03-10 21h11.02.490311 +0700,
2,57,1,word/worden0571.png,image/True/img57.png,146,146,0,z,0.3978991000003589,None,0,146,146,146,477.9005481999993,,,,,,,479.39347610000186,478.8967001000019,478.90011589999995,478.90011589999995,479.3881924999987,480.5120730000017,480.5120730000017,z,0.3978991000003589,None,480.5120730000017,479.39347610000186,479.39347610000186,,,,,,,,KR_en,001,2025-03-10_21h10.52.502,MainFlow,2024.2.4,143.95821757222737,2025-03-10 21h11.02.490311 +0700,
2,48,0,word/worden0481.png,image/False/imgf48.png,147,147,0,x,0.40978329999779817,None,0,147,147,147,480.9217804,,,,,,,482.41348089999883,481.9192765000007,481.9225845000001,481.9225845000001,482.4075475999998,483.5489841999988,483.5489841999988,x,0.40978329999779817,None,483.5489841999988,482.41348089999883,482.41348089999883,,,,,,,,KR_en,001,2025-03-10_21h10.52.502,MainFlow,2024.2.4,143.95821757222737,2025-03-10 21h11.02.490311 +0700,
2,37,0,word/worden0371.png,image/False/imgf37.png,148,148,0,z,0.41432650000206195,None,0,148,148,148,483.9689369000007,,,,,,,485.45459459999984,484.95597270000144,484.9586506000014,484.9586506000014,485.4420116000001,486.6041785000016,486.6041785000016,z,0.41432650000206195,None,486.6041785000016,485.4476203000013,485.4476203000013,,,,,,,,KR_en,001,2025-03-10_21h10.52.502,MainFlow,2024.2.4,143.95821757222737,2025-03-10 21h11.02.490311 +0700,
2,60,0,word/worden0601.png,image/False/imgf60.png,149,149,0,x,0.5658450000009907,None,0,149,149,149,487.03075620000163,,,,,,,488.53037400000176,488.031798,488.03581920000215,488.03581920000215,488.5248132000015,489.63131540000177,489.63131540000177,x,0.5658450000009907,None,,488.53037400000176,488.53037400000176,,,,,,,,KR_en,001,2025-03-10_21h10.52.502,MainFlow,2024.2.4,143.95821757222737,2025-03-10 21h11.02.490311 +0700,
2,24,1,word/worden0241.png,image/True/img24.png,150,150,0,z,0.4875205999996979,None,0,150,150,150,490.2043574999989,,,,,,,491.68979000000036,491.1941635000003,491.19696420000037,491.19696420000037,491.68446480000057,492.76827480000065,492.76827480000065,z,0.4875205999996979,None,492.76827480000065,491.68979000000036,491.68979000000036,,,,,,,,KR_en,001,2025-03-10_21h10.52.502,MainFlow,2024.2.4,143.95821757222737,2025-03-10 21h11.02.490311 +0700,
2,40,1,word/worden0401.png,image/True/img40.png,151,151,0,z,0.33565050000106567,None,0,151,151,151,493.26545590000023,,,,,,,494.75155689999883,494.25855520000187,494.2616197999996,494.2616197999996,494.7459510000008,495.90327249999973,495.90327249999973,z,0.33565050000106567,None,495.90327249999973,494.75155689999883,494.75155689999883,,,,,,,,KR_en,001,2025-03-10_21h10.52.502,MainFlow,2024.2.4,143.95821757222737,2025-03-10 21h11.02.490311 +0700,
2,54,1,word/worden0541.png,image/True/img54.png,152,152,0,z,0.3815175999989151,None,0,152,152,152,496.2510657000021,,,,,,,497.75092829999994,497.254630200001,497.2581946999999,497.2581946999999,497.74558439999964,498.8792195999995,498.8792195999995,z,0.3815175999989151,None,,497.75092829999994,497.75092829999994,,,,,,,,KR_en,001,2025-03-10_21h10.52.502,MainFlow,2024.2.4,143.95821757222737,2025-03-10 21h11.02.490311 +0700,
2,44,0,word/worden0441.png,image/False/imgf44.png,153,153,0,x,0.48828490000232705,None,0,153,153,153,499.27138360000026,,,,,,,500.7641332000021,500.2668554000011,500.27026190000106,500.27026190000106,500.75851669999975,501.90307010000106,501.90307010000106,x,0.48828490000232705,None,501.90307010000106,500.7641332000021,500.7641332000021,,,,,,,,KR_en,001,2025-03-10_21h10.52.502,MainFlow,2024.2.4,143.95821757222737,2025-03-10 21h11.02.490311 +0700,
2,79,1,word/worden0791.png,image/True/img79.png,154,154,0,z,0.4777756999974372,None,0,154,154,154,502.4026432999999,,,,,,,503.9025600999994,503.4047991000007,503.40882039999997,503.40882039999997,503.8965390000012,505.0133163999999,505.0133163999999,z,0.4777756999974372,None,,503.9025600999994,503.9025600999994,,,,,,,,KR_en,001,2025-03-10_21h10.52.502,MainFlow,2024.2.4,143.95821757222737,2025-03-10 21h11.02.490311 +0700,
2,95,1,word/worden0951.png,image/True/img95.png,155,155,0,z,0.6681091999998898,None,0,155,155,155,505.4992992000007,,,,,,,506.99236419999943,506.4943602000021,506.49774030000117,506.49774030000117,506.98726499999975,508.13066249999974,508.13066249999974,z,0.6681091999998898,None,508.13066249999974,506.99236419999943,506.99236419999943,,,,,,,,KR_en,001,2025-03-10_21h10.52.502,MainFlow,2024.2.4,143.95821757222737,2025-03-10 21h11.02.490311 +0700,
2,37,1,word/worden0371.png,image/True/img37.png,156,156,0,z,0.36250070000096457,None,0,156,156,156,508.8063953000019,,,,,,,510.30412830000205,509.80878250000023,509.81204250000155,509.81204250000155,510.2987996000011,511.4396478000017,511.4396478000017,z,0.36250070000096457,None,511.4396478000017,510.30412830000205,510.30412830000205,,,,,,,,KR_en,001,2025-03-10_21h10.52.502,MainFlow,2024.2.4,143.95821757222737,2025-03-10 21h11.02.490311 +0700,
2,70,1,word/worden0701.png,image/True/img70.png,157,157,0,z,0.5037040999995952,None,0,157,157,157,511.8109106000011,,,,,,,513.3035307999999,512.8102042999999,512.8144709000007,512.8144709000007,513.2982531000016,514.4202594999988,514.4202594999988,z,0.5037040999995952,None,514.4202594999988,513.3035307999999,513.3035307999999,,,,,,,,KR_en,001,2025-03-10_21h10.52.502,MainFlow,2024.2.4,143.95821757222737,2025-03-10 21h11.02.490311 +0700,
2,40,1,word/worden0401.png,image/True/img40.png,158,158,0,z,0.49043040000105975,None,0,158,158,158,514.9373833999998,,,,,,,516.4417103000014,515.9423739000013,515.9460538000021,515.9460538000021,516.4355337999987,517.5959760000005,517.5959760000005,z,0.49043040000105975,None,515.9460538000021,,,,,,,,,,KR_en,001,2025-03-10_21h10.52.502,MainFlow,2024.2.4,143.95821757222737,2025-03-10 21h11.02.490311 +0700,
2,30,0,word/worden0301.png,image/False/imgf30.png,159,159,0,x,0.6173262000011164,None,0,159,159,159,518.0940479000019,,,,,,,519.5869622999999,519.0903376999995,519.0937264000022,519.0937264000022,519.5811801999989,520.6994885000022,520.6994885000022,x,0.6173262000011164,None,520.6994885000022,519.5869622999999,519.5869622999999,,,,,,,,KR_en,001,2025-03-10_21h10.52.502,MainFlow,2024.2.4,143.95821757222737,2025-03-10 21h11.02.490311 +0700,
2,88,1,word/worden0881.png,image/True/img88.png,160,160,0,z,0.42344389999925625,None,0,160,160,160,521.3226155000011,,,,,,,522.8085314999989,522.3153426999997,522.3185362000004,522.3185362000004,522.8027192000009,523.9493068000011,523.9493068000011,z,0.42344389999925625,None,523.9493068000011,522.8085314999989,522.8085314999989,,,,,,,,KR_en,001,2025-03-10_21h10.52.502,MainFlow,2024.2.4,143.95821757222737,2025-03-10 21h11.02.490311 +0700,
2,15,1,word/worden0151.png,image/True/img15.png,161,161,0,z,0.4529785999984597,None,0,161,161,161,524.3859107999997,,,,,,,525.8842435000006,525.3889502999991,525.3922113000008,525.3922113000008,525.8783747000016,527.0214336999998,527.0214336999998,z,0.4529785999984597,None,527.0214336999998,525.8842435000006,525.8842435000006,,,,,,,,KR_en,001,2025-03-10_21h10.52.502,MainFlow,2024.2.4,143.95821757222737,2025-03-10 21h11.02.490311 +0700,
2,54,1,word/worden0541.png,image/True/img54.png,162,162,0,z,0.9164791999974113,None,0,162,162,162,527.4812628,,,,,,,528.980870899999,528.4818673000009,528.4853619999994,528.4853619999994,528.9748949999994,530.1102754000021,530.1102754000021,z,0.9164791999974113,None,,528.980870899999,528.980870899999,,,,,,,,KR_en,001,2025-03-10_21h10.52.502,MainFlow,2024.2.4,143.95821757222737,2025-03-10 21h11.02.490311 +0700,
2,11,0,word/worden0111.png,image/False/imgf11.png,163,163,0,x,0.8157352999987779,None,0,163,163,163,531.0360007000018,,,,,,,532.5358302999994,532.036239699999,532.0399441000009,532.0399441000009,532.5305030000018,533.6608788000012,533.6608788000012,x,0.8157352999987779,None,,532.5358302999994,532.5358302999994,,,,,,,,KR_en,001,2025-03-10_21h10.52.502,MainFlow,2024.2.4,143.95821757222737,2025-03-10 21h11.02.490311 +0700,
2,16,1,word/worden0161.png,image/True/img16.png,164,164,0,z,0.38848670000152197,None,0,164,164,164,534.4868750999995,,,,,,,535.9865633000009,535.4872448999995,535.4908424999994,535.4908424999994,535.9806142000016,537.1129564000003,537.1129564000003,z,0.38848670000152197,None,,535.9865633000009,535.9865633000009,,,,,,,,KR_en,001,2025-03-10_21h10.52.502,MainFlow,2024.2.4,143.95821757222737,2025-03-10 21h11.02.490311 +0700,
2,1,1,word/worden0011.png,image/True/img01.png,165,165,0,z,0.3618635000020731,None,0,165,165,165,537.513848999999,,,,,,,539.0067381000008,538.5090326999998,538.5121446000012,538.5121446000012,539.0010413999989,540.1505397000001,540.1505397000001,z,0.3618635000020731,None,540.1505397000001,539.0067381000008,539.0067381000008,,,,,,,,KR_en,001,2025-03-10_21h10.52.502,MainFlow,2024.2.4,143.95821757222737,2025-03-10 21h11.02.490311 +0700,
2,22,0,word/worden0221.png,image/False/imgf22.png,166,166,0,x,0.5839158999988285,None,0,166,166,166,540.520234399999,,,,,,,542.0130209999988,541.5159200000016,541.5192782000013,541.5192782000013,542.0072975000003,543.1469953000014,543.1469953000014,x,0.5839158999988285,None,543.1469953000014,542.0130209999988,542.0130209999988,,,,,,,,KR_en,001,2025-03-10_21h10.52.502,MainFlow,2024.2.4,143.95821757222737,2025-03-10 21h11.02.490311 +0700,
2,63,1,word/worden0631.png,image/True/img63.png,167,167,0,z,0.5000594000011915,None,0,167,167,167,543.7426092999995,,,,,,,545.241578600002,544.748006400001,544.7513375999988,544.7513375999988,545.2357267000007,546.3633528999999,546.3633528999999,z,0.5000594000011915,None,546.3633528999999,545.241578600002,545.241578600002,,,,,,,,KR_en,001,2025-03-10_21h10.52.502,MainFlow,2024.2.4,143.95821757222737,2025-03-10 21h11.02.490311 +0700,
2,87,1,word/worden0871.png,image/True/img87.png,168,168,0,z,0.5774110999991535,None,0,168,168,168,546.8732903000018,,,,,,,548.3658125000002,547.8730547000014,547.8765367999986,547.8765367999986,548.3600149000013,549.5064810000003,549.5064810000003,z,0.5774110999991535,None,549.5064810000003,548.3658125000002,548.3658125000002,,,,,,,,KR_en,001,2025-03-10_21h10.52.502,MainFlow,2024.2.4,143.95821757222737,2025-03-10 21h11.02.490311 +0700,
2,57,0,word/worden0571.png,image/False/imgf57.png,169,169,0,x,1.7995537999995577,None,0,169,169,169,550.094903199999,,,,,,,551.5875522999995,551.093808900001,551.0972241000018,551.0972241000018,551.581396900001,552.7104409999993,552.7104409999993,x,1.7995537999995577,None,552.7104409999993,551.5875522999995,551.5875522999995,,,,,,,,KR_en,001,2025-03-10_21h10.52.502,MainFlow,2024.2.4,143.95821757222737,2025-03-10 21h11.02.490311 +0700,
2,94,0,word/worden0941.png,image/False/imgf94.png,170,170,0,x,0.5760418999998365,None,0,170,170,170,554.5176639000019,,,,,,,556.0176812999998,555.5184771999993,555.5219543999992,555.5219543999992,556.0124080999994,557.1519767999998,557.1519767999998,x,0.5760418999998365,None,,556.0176812999998,556.0176812999998,,,,,,,,KR_en,001,2025-03-10_21h10.52.502,MainFlow,2024.2.4,143.95821757222737,2025-03-10 21h11.02.490311 +0700,
2,93,0,word/worden0931.png,image/False/imgf93.png,171,171,0,x,0.5845155999995768,None,0,171,171,171,557.7391093000006,,,,,,,559.2321957999993,558.7342368999998,558.7375962000006,558.7375962000006,559.2262167000008,560.3249732000004,560.3249732000004,x,0.5845155999995768,None,560.3249732000004,559.2321957999993,559.2321957999993,,,,,,,,KR_en,001,2025-03-10_21h10.52.502,MainFlow,2024.2.4,143.95821757222737,2025-03-10 21h11.02.490311 +0700,
2,61,1,word/worden0611.png,image/True/img61.png,172,172,0,z,0.38351110000076005,None,0,172,172,172,560.9190567000005,,,,,,,562.4120695999991,561.918588200002,561.9218080999999,561.9218080999999,562.4071847000014,563.5409104999999,563.5409104999999,z,0.38351110000076005,None,563.5409104999999,562.4120695999991,562.4120695999991,,,,,,,,KR_en,001,2025-03-10_21h10.52.502,MainFlow,2024.2.4,143.95821757222737,2025-03-10 21h11.02.490311 +0700,
2,28,1,word/worden0281.png,image/True/img28.png,173,173,0,z,0.3668322999983502,None,0,173,173,173,563.9324858,,,,,,,565.4252382000013,564.9268551999994,564.9301631000017,564.9301631000017,565.4200674000022,566.5635991999989,566.5635991999989,z,0.3668322999983502,None,566.5635991999989,565.4252382000013,565.4252382000013,,,,,,,,KR_en,001,2025-03-10_21h10.52.502,MainFlow,2024.2.4,143.95821757222737,2025-03-10 21h11.02.490311 +0700,
2,46,1,word/worden0461.png,image/True/img46.png,174,174,0,z,0.3784657000032894,None,0,174,174,174,566.9388770000005,,,,,,,568.4315050000005,567.9324300000007,567.935884999999,567.935884999999,568.4258243000004,569.5739123999992,569.5739123999992,z,0.3784657000032894,None,569.5739123999992,568.4315050000005,568.4315050000005,,,,,,,,KR_en,001,2025-03-10_21h10.52.502,MainFlow,2024.2.4,143.95821757222737,2025-03-10 21h11.02.490311 +0700,
2,22,1,word/worden0221.png,image/True/img22.png,175,175,0,z,0.5273836000014853,None,0,175,175,175,569.9590157999992,,,,,,,571.444983100002,570.9528109000021,570.9560586000007,570.9560586000007,571.4391629999991,572.574500499999,572.574500499999,z,0.5273836000014853,None,572.574500499999,571.444983100002,571.444983100002,,,,,,,,KR_en,001,2025-03-10_21h10.52.502,MainFlow,2024.2.4,143.95821757222737,2025-03-10 21h11.02.490311 +0700,
2,93,1,word/worden0931.png,image/True/img93.png,176,176,0,z,0.5310850999994727,None,0,176,176,176,573.1111687000011,,,,,,,574.6041307000014,574.1106547000018,574.1142557000021,574.1142557000021,574.5987673000018,575.7094647000013,575.7094647000013,z,0.5310850999994727,None,575.7094647000013,574.6041307000014,574.6041307000014,,,,,,,,KR_en,001,2025-03-10_21h10.52.502,MainFlow,2024.2.4,143.95821757222737,2025-03-10 21h11.02.490311 +0700,
2,95,1,word/worden0951.png,image/True/img95.png,177,177,0,z,0.4396588999989035,None,0,177,177,177,576.2495052000013,,,,,,,577.7490966000005,577.2495893000014,577.2532409000014,577.2532409000014,577.7432281000001,578.8857844000013,578.8857844000013,z,0.4396588999989035,None,,577.7490966000005,577.7490966000005,,,,,,,,KR_en,001,2025-03-10_21h10.52.502,MainFlow,2024.2.4,143.95821757222737,2025-03-10 21h11.02.490311 +0700,
2,17,0,word/worden0171.png,image/False/imgf17.png,178,178,0,z,1.2436352999975497,None,0,178,178,178,579.3323096000022,,,,,,,580.8318701999997,580.3328962000014,580.3362199000003,580.3362199000003,580.8256690999988,581.9543601000005,581.9543601000005,z,1.2436352999975497,None,,580.8318701999997,580.8318701999997,,,,,,,,KR_en,001,2025-03-10_21h10.52.502,MainFlow,2024.2.4,143.95821757222737,2025-03-10 21h11.02.490311 +0700,
2,26,1,word/worden0261.png,image/True/img26.png,179,179,0,z,0.6866262000003189,None,0,179,179,179,583.2065417000013,,,,,,,584.699224,584.2037969000012,584.207136699999,584.207136699999,584.6936827999998,585.8343440999997,585.8343440999997,z,0.6866262000003189,None,585.8343440999997,584.699224,584.699224,,,,,,,,KR_en,001,2025-03-10_21h10.52.502,MainFlow,2024.2.4,143.95821757222737,2025-03-10 21h11.02.490311 +0700,
2,27,1,word/worden0271.png,image/True/img27.png,180,180,0,x,0.4680478000009316,None,0,180,180,180,586.5349425999993,,,,,,,588.0250885999994,587.5275672999996,587.5311812,587.5311812,588.0191209000004,589.1158414999991,589.1158414999991,x,0.4680478000009316,None,589.1158414999991,588.0250885999994,588.0250885999994,,,,,,,,KR_en,001,2025-03-10_21h10.52.502,MainFlow,2024.2.4,143.95821757222737,2025-03-10 21h11.02.490311 +0700,
2,31,1,word/worden0311.png,image/True/img31.png,181,181,0,z,0.5744058999989647,None,0,181,181,181,589.5950264999992,,,,,,,591.0870146000016,590.5920474000013,590.5956568000001,590.5956568000001,591.081771000001,592.1929440999993,592.1929440999993,z,0.5744058999989647,None,592.1929440999993,591.0870146000016,591.0870146000016,,,,,,,,KR_en,001,2025-03-10_21h10.52.502,MainFlow,2024.2.4,143.95821757222737,2025-03-10 21h11.02.490311 +0700,
2,33,0,word/worden0331.png,image/False/imgf33.png,182,182,0,x,0.5055031000010786,None,0,182,182,182,592.7739655000005,,,,,,,594.2669286000018,593.7737701000005,593.7769999000011,593.7769999000011,594.2613258999991,595.386450500002,595.386450500002,x,0.5055031000010786,None,595.386450500002,594.2669286000018,594.2669286000018,,,,,,,,KR_en,001,2025-03-10_21h10.52.502,MainFlow,2024.2.4,143.95821757222737,2025-03-10 21h11.02.490311 +0700,
2,59,1,word/worden0591.png,image/True/img59.png,183,183,0,z,0.38979500000277767,None,0,183,183,183,595.8985590000011,,,,,,,597.3979762999988,596.8994291999988,596.9030611000017,596.9030611000017,597.3918482000008,598.4733434000009,598.4733434000009,z,0.38979500000277767,None,,597.3979762999988,597.3979762999988,,,,,,,,KR_en,001,2025-03-10_21h10.52.502,MainFlow,2024.2.4,143.95821757222737,2025-03-10 21h11.02.490311 +0700,
2,8,1,word/worden0081.png,image/True/img08.png,184,184,0,z,0.5093557000000146,None,0,184,184,184,598.8720211,,,,,,,600.3629686999993,599.8683165000002,599.8719218000006,599.8719218000006,600.3578349999989,601.4503965000004,601.4503965000004,z,0.5093557000000146,None,601.4503965000004,600.3629686999993,600.3629686999993,,,,,,,,KR_en,001,2025-03-10_21h10.52.502,MainFlow,2024.2.4,143.95821757222737,2025-03-10 21h11.02.490311 +0700,
2,63,0,word/worden0631.png,image/False/imgf63.png,185,185,0,x,0.6125800000008894,None,0,185,185,185,601.966691900001,,,,,,,603.4595613999991,602.9669310999998,602.9705318999986,602.9705318999986,603.4537815000003,604.5838215000003,604.5838215000003,x,0.6125800000008894,None,604.5838215000003,603.4595613999991,603.4595613999991,,,,,,,,KR_en,001,2025-03-10_21h10.52.502,MainFlow,2024.2.4,143.95821757222737,2025-03-10 21h11.02.490311 +0700,
2,30,0,word/worden0301.png,image/False/imgf30.png,186,186,0,x,0.5347394000018539,None,0,186,186,186,605.2031053999999,,,,,,,606.7020708000018,606.2072128,606.2104725999998,606.2104725999998,606.6968062000014,607.8048397999992,607.8048397999992,x,0.5347394000018539,None,607.8048397999992,606.7020708000018,606.7020708000018,,,,,,,,KR_en,001,2025-03-10_21h10.52.502,MainFlow,2024.2.4,143.95821757222737,2025-03-10 21h11.02.490311 +0700,
2,15,0,word/worden0151.png,image/False/imgf15.png,187,187,0,x,0.5296023000009882,None,0,187,187,187,608.3472825999997,,,,,,,609.840065700002,609.3471018000018,609.3505781999993,609.3505781999993,609.834288099999,610.949603699999,610.949603699999,x,0.5296023000009882,None,610.949603699999,609.840065700002,609.840065700002,,,,,,,,KR_en,001,2025-03-10_21h10.52.502,MainFlow,2024.2.4,143.95821757222737,2025-03-10 21h11.02.490311 +0700,
2,71,0,word/worden0711.png,image/False/imgf71.png,188,188,0,x,0.783112600001914,None,0,188,188,188,611.4857321000018,,,,,,,612.9784026999987,612.484956799999,612.4884960000018,612.4884960000018,612.9726197999989,614.1170521000022,614.1170521000022,x,0.783112600001914,None,614.1170521000022,612.9784026999987,612.9784026999987,,,,,,,,KR_en,001,2025-03-10_21h10.52.502,MainFlow,2024.2.4,143.95821757222737,2025-03-10 21h11.02.490311 +0700,
2,10,0,word/worden0101.png,image/False/imgf10.png,189,189,0,x,0.4734050999977626,None,0,189,189,189,614.9105080000008,,,,,,,616.4013362000005,615.9025030000012,615.9060430999998,615.9060430999998,616.3955587000019,617.5153831999996,617.5153831999996,x,0.4734050999977626,None,617.5153831999996,616.4013362000005,616.4013362000005,,,,,,,,KR_en,001,2025-03-10_21h10.52.502,MainFlow,2024.2.4,143.95821757222737,2025-03-10 21h11.02.490311 +0700,
2,54,0,word/worden0541.png,image/False/imgf54.png,190,190,0,x,0.4496111000007659,None,0,190,190,190,617.9982836999989,,,,,,,619.491315700001,618.9933701000009,618.9968140000019,618.9968140000019,619.4861530000017,620.5999556999996,620.5999556999996,x,0.4496111000007659,None,620.5999556999996,619.491315700001,619.491315700001,,,,,,,,KR_en,001,2025-03-10_21h10.52.502,MainFlow,2024.2.4,143.95821757222737,2025-03-10 21h11.02.490311 +0700,
2,60,0,word/worden0601.png,image/False/imgf60.png,191,191,0,x,0.3177146000016364,None,0,191,191,191,621.0602915999989,,,,,,,622.5461743000014,622.0473669999992,622.0500604000008,622.0500604000008,622.5339033000018,623.6611489999996,623.6611489999996,x,0.3177146000016364,None,623.6611489999996,622.5392578999999,622.5392578999999,,,,,,,,KR_en,001,2025-03-10_21h10.52.502,MainFlow,2024.2.4,143.95821757222737,2025-03-10 21h11.02.490311 +0700,
2,16,0,word/worden0161.png,image/False/imgf16.png,192,192,0,x,0.4099750999994285,None,0,192,192,192,623.9901895000003,,,,,,,625.4831271000003,624.9878013000016,624.9911407,624.9911407,625.4776932999994,626.6020324000019,626.6020324000019,x,0.4099750999994285,None,626.6020324000019,625.4831271000003,625.4831271000003,,,,,,,,KR_en,001,2025-03-10_21h10.52.502,MainFlow,2024.2.4,143.95821757222737,2025-03-10 21h11.02.490311 +0700,
2,50,1,word/worden0501.png,image/True/img50.png,193,193,0,z,0.41933439999775146,None,0,193,193,193,627.0243697000005,,,,,,,628.5172727999998,628.019643399999,628.0228843000004,628.0228843000004,628.5119903000013,629.635266199999,629.635266199999,z,0.41933439999775146,None,629.635266199999,628.5172727999998,628.5172727999998,,,,,,,,KR_en,001,2025-03-10_21h10.52.502,MainFlow,2024.2.4,143.95821757222737,2025-03-10 21h11.02.490311 +0700,
2,63,1,word/worden0631.png,image/True/img63.png,194,194,0,z,0.3317963999979838,None,0,194,194,194,630.065441900002,,,,,,,631.5583288999987,631.0636359000018,631.0672593999989,631.0672593999989,631.5524542999992,632.6619075999988,632.6619075999988,z,0.3317963999979838,None,632.6619075999988,631.5583288999987,631.5583288999987,,,,,,,,KR_en,001,2025-03-10_21h10.52.502,MainFlow,2024.2.4,143.95821757222737,2025-03-10 21h11.02.490311 +0700,
2,24,0,word/worden0241.png,image/False/imgf24.png,195,195,0,x,0.7182225000033213,None,0,195,195,195,633.0023236999987,,,,,,,634.495303300002,633.9978001999989,634.0011507000017,634.0011507000017,634.489985799999,635.6049189000005,635.6049189000005,x,0.7182225000033213,None,635.6049189000005,634.495303300002,634.495303300002,,,,,,,,KR_en,001,2025-03-10_21h10.52.502,MainFlow,2024.2.4,143.95821757222737,2025-03-10 21h11.02.490311 +0700,
2,89,0,word/worden0891.png,image/False/imgf89.png,196,196,0,x,0.7028387000027578,None,0,196,196,196,636.336373099999,,,,,,,637.8277717000019,637.3310779999993,637.3337696999988,637.3337696999988,637.8223063000005,638.9290333999998,638.9290333999998,x,0.7028387000027578,None,638.9290333999998,637.8277717000019,637.8277717000019,,,,,,,,KR_en,001,2025-03-10_21h10.52.502,MainFlow,2024.2.4,143.95821757222737,2025-03-10 21h11.02.490311 +0700,
2,6,0,word/worden0061.png,image/False/imgf06.png,197,197,0,x,0.9437512999975297,None,0,197,197,197,639.6402898000015,,,,,,,641.1257449000004,640.6313306000011,640.6344787000016,640.6344787000016,641.1198222000021,642.2206348,642.2206348,x,0.9437512999975297,None,642.2206348,641.1257449000004,641.1257449000004,,,,,,,,KR_en,001,2025-03-10_21h10.52.502,MainFlow,2024.2.4,143.95821757222737,2025-03-10 21h11.02.490311 +0700,
2,41,0,word/worden0411.png,image/False/imgf41.png,198,198,0,x,0.5650531999999657,None,0,198,198,198,643.1739052000012,,,,,,,644.6600238999999,644.1674381000012,644.1706102999997,644.1706102999997,644.6538688,645.744961299999,645.744961299999,x,0.5650531999999657,None,645.744961299999,644.6600238999999,644.6600238999999,,,,,,,,KR_en,001,2025-03-10_21h10.52.502,MainFlow,2024.2.4,143.95821757222737,2025-03-10 21h11.02.490311 +0700,
2,79,0,word/worden0791.png,image/False/imgf79.png,199,199,0,x,0.5622751999981119,None,0,199,199,199,646.3192091000019,,,,,,,647.8189779999993,647.3226295999993,647.3256191,647.3256191,647.8137428000009,648.9342552999988,648.9342552999988,x,0.5622751999981119,None,,647.8189779999993,647.8189779999993,,,,,,,,KR_en,001,2025-03-10_21h10.52.502,MainFlow,2024.2.4,143.95821757222737,2025-03-10 21h11.02.490311 +0700,
2,70,1,word/worden0701.png,image/True/img70.png,200,200,0,z,0.5281988999995519,None,0,200,200,200,649.5060521000014,,,,,,,651.005886400002,650.5075995000007,650.510981200001,650.510981200001,651.0006357999991,652.1198848999993,652.1198848999993,z,0.5281988999995519,None,,651.005886400002,651.005886400002,,,,,,,,KR_en,001,2025-03-10_21h10.52.502,MainFlow,2024.2.4,143.95821757222737,2025-03-10 21h11.02.490311 +0700,
2,31,1,word/worden0311.png,image/True/img31.png,201,201,0,z,0.533233600002859,None,0,201,201,201,652.6581460999987,,,,,,,654.1510477000011,653.658101699999,653.6614910999997,653.6614910999997,654.1454072999986,655.2593693000017,655.2593693000017,z,0.533233600002859,None,655.2593693000017,654.1510477000011,654.1510477000011,,,,,,,,KR_en,001,2025-03-10_21h10.52.502,MainFlow,2024.2.4,143.95821757222737,2025-03-10 21h11.02.490311 +0700,
2,9,1,word/worden0091.png,image/True/img09.png,202,202,0,z,0.5130774000026577,None,0,202,202,202,655.8036171999993,,,,,,,657.2963108000004,656.8025515000008,656.8059076999998,656.8059076999998,657.2910188999995,658.3673605000004,658.3673605000004,z,0.5130774000026577,None,658.3673605000004,657.2963108000004,657.2963108000004,,,,,,,,KR_en,001,2025-03-10_21h10.52.502,MainFlow,2024.2.4,143.95821757222737,2025-03-10 21h11.02.490311 +0700,
2,27,1,word/worden0271.png,image/True/img27.png,203,203,0,x,0.5852675999994972,None,0,203,203,203,658.8931999000015,,,,,,,660.3790087999987,659.8797659000011,659.8823790999995,659.8823790999995,660.366802200002,661.4807387000001,661.4807387000001,x,0.5852675999994972,None,661.4807387000001,660.3720362000022,660.3720362000022,,,,,,,,KR_en,001,2025-03-10_21h10.52.502,MainFlow,2024.2.4,143.95821757222737,2025-03-10 21h11.02.490311 +0700,
2,75,0,word/worden0751.png,image/False/imgf75.png,204,204,0,x,0.4647597000002861,None,0,204,204,204,662.0748678999989,,,,,,,663.5660100999994,663.0686386000016,663.0719838000005,663.0719838000005,663.5607210999988,664.6721479000007,664.6721479000007,x,0.4647597000002861,None,664.6721479000007,663.5660100999994,663.5660100999994,,,,,,,,KR_en,001,2025-03-10_21h10.52.502,MainFlow,2024.2.4,143.95821757222737,2025-03-10 21h11.02.490311 +0700,
2,87,0,word/worden0871.png,image/False/imgf87.png,205,205,0,x,0.7477092999979504,None,0,205,205,205,665.1489302000009,,,,,,,666.6348392,666.1413748000014,666.1447599999992,666.1447599999992,666.6292899,667.7509601999991,667.7509601999991,x,0.7477092999979504,None,667.7509601999991,666.6348392,666.6348392,,,,,,,,KR_en,001,2025-03-10_21h10.52.502,MainFlow,2024.2.4,143.95821757222737,2025-03-10 21h11.02.490311 +0700,
2,8,0,word/worden0081.png,image/False/imgf08.png,206,206,0,x,0.5040789999984554,None,0,206,206,206,668.5092508000016,,,,,,,669.9952909000021,669.5009753000013,669.5036997999996,669.5036997999996,669.9899506000002,671.0894047000002,671.0894047000002,x,0.5040789999984554,None,671.0894047000002,669.9952909000021,669.9952909000021,,,,,,,,KR_en,001,2025-03-10_21h10.52.502,MainFlow,2024.2.4,143.95821757222737,2025-03-10 21h11.02.490311 +0700,
2,24,1,word/worden0241.png,image/True/img24.png,207,207,0,z,0.6869006999986595,None,0,207,207,207,671.5991709000009,,,,,,,673.0917130999987,672.5984510000017,672.6017176999994,672.6017176999994,673.0861618000017,674.1758293000021,674.1758293000021,z,0.6869006999986595,None,674.1758293000021,673.0917130999987,673.0917130999987,,,,,,,,KR_en,001,2025-03-10_21h10.52.502,MainFlow,2024.2.4,143.95821757222737,2025-03-10 21h11.02.490311 +0700,
2,14,1,word/worden0141.png,image/True/img14.png,208,208,0,z,0.4626037999987602,None,0,208,208,208,674.8692881999996,,,,,,,676.3619150000013,675.8645630999999,675.8680036000005,675.8680036000005,676.3561606000003,677.4829237000013,677.4829237000013,z,0.4626037999987602,None,677.4829237000013,676.3619150000013,676.3619150000013,,,,,,,,KR_en,001,2025-03-10_21h10.52.502,MainFlow,2024.2.4,143.95821757222737,2025-03-10 21h11.02.490311 +0700,
2,87,1,word/worden0871.png,image/True/img87.png,209,209,0,z,0.49984350000158884,None,0,209,209,209,677.9551778999994,,,,,,,679.4517158000017,678.954024300001,678.9576529000005,678.9576529000005,679.4462899999999,680.5753790999988,680.5753790999988,z,0.49984350000158884,None,680.5753790999988,679.4517158000017,679.4517158000017,,,,,,,,KR_en,001,2025-03-10_21h10.52.502,MainFlow,2024.2.4,143.95821757222737,2025-03-10 21h11.02.490311 +0700,
2,42,0,word/worden0421.png,image/False/imgf42.png,210,210,0,x,0.4654984999979206,None,0,210,210,210,681.0831894000003,,,,,,,682.5830533000008,682.0858016999991,682.0894456999995,682.0894456999995,682.5771400000012,683.7093347000009,683.7093347000009,x,0.4654984999979206,None,,682.5830533000008,682.5830533000008,,,,,,,,KR_en,001,2025-03-10_21h10.52.502,MainFlow,2024.2.4,143.95821757222737,2025-03-10 21h11.02.490311 +0700,
2,48,0,word/worden0481.png,image/False/imgf48.png,211,211,0,x,0.6002316999984032,None,0,211,211,211,684.1895861000012,,,,,,,685.6865696999994,685.1889224000006,685.1921875000007,685.1921875000007,685.6814052000009,686.8048276000009,686.8048276000009,x,0.6002316999984032,None,686.8048276000009,685.6865696999994,685.6865696999994,,,,,,,,KR_en,001,2025-03-10_21h10.52.502,MainFlow,2024.2.4,143.95821757222737,2025-03-10 21h11.02.490311 +0700,
2,56,0,word/worden0561.png,image/False/imgf56.png,212,212,0,x,0.573570299999119,None,0,212,212,212,687.4154301999988,,,,,,,688.9150823000018,688.4197401999991,688.423503500002,688.423503500002,688.9092525000015,690.0458814000012,690.0458814000012,x,0.573570299999119,None,,688.9150823000018,688.9150823000018,,,,,,,,KR_en,001,2025-03-10_21h10.52.502,MainFlow,2024.2.4,143.95821757222737,2025-03-10 21h11.02.490311 +0700,
2,18,0,word/worden0181.png,image/False/imgf18.png,213,213,0,x,0.6888097000010021,None,0,213,213,213,690.6302032000021,,,,,,,692.1228927000011,691.6286490999992,691.632034000002,691.632034000002,692.1175781999991,693.2379536000008,693.2379536000008,x,0.6888097000010021,None,693.2379536000008,692.1228927000011,692.1228927000011,,,,,,,,KR_en,001,2025-03-10_21h10.52.502,MainFlow,2024.2.4,143.95821757222737,2025-03-10 21h11.02.490311 +0700,
2,18,0,word/worden0181.png,image/False/imgf18.png,214,214,0,x,0.4936640999985684,None,0,214,214,214,693.9378773999997,,,,,,,695.4279414000011,694.9310006000014,694.9346912000001,694.9346912000001,695.4226426999994,696.5337862000015,696.5337862000015,x,0.4936640999985684,None,696.5337862000015,695.4279414000011,695.4279414000011,,,,,,,,KR_en,001,2025-03-10_21h10.52.502,MainFlow,2024.2.4,143.95821757222737,2025-03-10 21h11.02.490311 +0700,
2,9,0,word/worden0091.png,image/False/imgf09.png,215,215,0,x,0.360975799998414,None,0,215,215,215,697.0397292999987,,,,,,,698.5312998000009,698.0351658,698.0388606000015,698.0388606000015,698.5254115999996,699.6156527000021,699.6156527000021,x,0.360975799998414,None,699.6156527000021,698.5312998000009,698.5312998000009,,,,,,,,KR_en,001,2025-03-10_21h10.52.502,MainFlow,2024.2.4,143.95821757222737,2025-03-10 21h11.02.490311 +0700,
2,55,0,word/worden0551.png,image/False/imgf55.png,216,216,0,x,8.857523200000287,None,0,216,216,216,699.9850043000006,,,,,,,701.4752315000005,700.9825100999988,700.9859269000008,700.9859269000008,701.4698898999995,702.5863002000006,702.5863002000006,x,8.857523200000287,None,702.5863002000006,701.4752315000005,701.4752315000005,,,,,,,,KR_en,001,2025-03-10_21h10.52.502,MainFlow,2024.2.4,143.95821757222737,2025-03-10 21h11.02.490311 +0700,
2,17,0,word/worden0171.png,image/False/imgf17.png,217,217,0,x,0.7952476999998908,None,0,217,217,217,711.4548180999991,,,,,,,712.9589664000014,712.4596734000006,712.4633834000015,712.4633834000015,712.9524855000018,714.0743680000014,714.0743680000014,x,0.7952476999998908,None,712.4633834000015,,,,,,,,,,KR_en,001,2025-03-10_21h10.52.502,MainFlow,2024.2.4,143.95821757222737,2025-03-10 21h11.02.490311 +0700,
2,50,1,word/worden0501.png,image/True/img50.png,218,218,0,z,0.5776999999980035,None,0,218,218,218,714.8822566000017,,,,,,,716.3750278000007,715.8782025,715.8815764999999,715.8815764999999,716.3697431,717.506487900002,717.506487900002,z,0.5776999999980035,None,717.506487900002,716.3750278000007,716.3750278000007,,,,,,,,KR_en,001,2025-03-10_21h10.52.502,MainFlow,2024.2.4,143.95821757222737,2025-03-10 21h11.02.490311 +0700,
2,20,0,word/worden0201.png,image/False/imgf20.png,219,219,0,x,0.9512505999991845,None,0,219,219,219,718.0969073000015,,,,,,,719.5967793000018,719.0979303000022,719.101456700002,719.101456700002,719.5909300000021,720.7402858999994,720.7402858999994,x,0.9512505999991845,None,,719.5967793000018,719.5967793000018,,,,,,,,KR_en,001,2025-03-10_21h10.52.502,MainFlow,2024.2.4,143.95821757222737,2025-03-10 21h11.02.490311 +0700,
2,36,0,word/worden0361.png,image/False/imgf36.png,220,220,0,x,0.5321225000006962,None,0,220,220,220,721.7002667999986,,,,,,,723.1932195000009,722.6986696999993,722.7020646000019,722.7020646000019,723.1874072999999,724.3024226000016,724.3024226000016,x,0.5321225000006962,None,724.3024226000016,723.1932195000009,723.1932195000009,,,,,,,,KR_en,001,2025-03-10_21h10.52.502,MainFlow,2024.2.4,143.95821757222737,2025-03-10 21h11.02.490311 +0700,
2,7,0,word/worden0071.png,image/False/imgf07.png,221,221,0,x,0.47292599999855156,None,0,221,221,221,724.8465303000012,,,,,,,726.3385219000011,725.8438062999994,725.8471800000007,725.8471800000007,726.3331980000003,727.4542548999998,727.4542548999998,x,0.47292599999855156,None,727.4542548999998,726.3385219000011,726.3385219000011,,,,,,,,KR_en,001,2025-03-10_21h10.52.502,MainFlow,2024.2.4,143.95821757222737,2025-03-10 21h11.02.490311 +0700,
2,7,1,word/worden0071.png,image/True/img07.png,222,222,0,z,0.4106685999977344,None,0,222,222,222,727.9352689000007,,,,,,,729.4280542999986,728.930829500001,728.934079300001,728.934079300001,729.4221644999998,730.5523854999992,730.5523854999992,z,0.4106685999977344,None,730.5523854999992,729.4280542999986,729.4280542999986,,,,,,,,KR_en,001,2025-03-10_21h10.52.502,MainFlow,2024.2.4,143.95821757222737,2025-03-10 21h11.02.490311 +0700,
2,70,0,word/worden0701.png,image/False/imgf70.png,223,223,0,x,0.37810800000079325,None,0,223,223,223,730.9693824999995,,,,,,,732.469069499999,731.9711330999999,731.9749264999991,731.9749264999991,732.4631425000007,733.5759459000001,733.5759459000001,x,0.37810800000079325,None,,732.469069499999,732.469069499999,,,,,,,,KR_en,001,2025-03-10_21h10.52.502,MainFlow,2024.2.4,143.95821757222737,2025-03-10 21h11.02.490311 +0700,
2,68,0,word/worden0681.png,image/False/imgf68.png,224,224,0,x,0.5770564999984344,None,0,224,224,224,733.9618432999996,,,,,,,735.4478658000007,734.9488158999993,734.9517121999997,734.9517121999997,735.4351939000007,736.5357556000017,736.5357556000017,x,0.5770564999984344,None,736.5357556000017,735.4408614000022,735.4408614000022,,,,,,,,KR_en,001,2025-03-10_21h10.52.502,MainFlow,2024.2.4,143.95821757222737,2025-03-10 21h11.02.490311 +0700,
2,23,0,word/worden0231.png,image/False/imgf23.png,225,225,0,x,0.4636356999981217,None,0,225,225,225,737.1228521000012,,,,,,,738.6138782000016,738.1176538,738.1213233000017,738.1213233000017,738.6082855999994,739.7586521000012,739.7586521000012,x,0.4636356999981217,None,739.7586521000012,738.6138782000016,738.6138782000016,,,,,,,,KR_en,001,2025-03-10_21h10.52.502,MainFlow,2024.2.4,143.95821757222737,2025-03-10 21h11.02.490311 +0700,
2,56,0,word/worden0561.png,image/False/imgf56.png,226,226,0,x,0.47016149999763,None,0,226,226,226,740.2314540000007,,,,,,,741.7313785000006,741.2321695999999,741.235676799999,741.235676799999,741.7260204000013,742.8677352000013,742.8677352000013,x,0.47016149999763,None,,741.7313785000006,741.7313785000006,,,,,,,,KR_en,001,2025-03-10_21h10.52.502,MainFlow,2024.2.4,143.95821757222737,2025-03-10 21h11.02.490311 +0700,
2,17,1,word/worden0171.png,image/True/img17.png,227,227,0,z,0.44446980000066105,None,0,227,227,227,743.3489033000005,,,,,,,744.8416538999991,744.3432725000021,744.3463849,744.3463849,744.8357963999988,745.9502706000021,745.9502706000021,z,0.44446980000066105,None,745.9502706000021,744.8416538999991,744.8416538999991,,,,,,,,KR_en,001,2025-03-10_21h10.52.502,MainFlow,2024.2.4,143.95821757222737,2025-03-10 21h11.02.490311 +0700,
2,94,1,word/worden0941.png,image/True/img94.png,228,228,0,z,0.3980072000013024,None,0,228,228,228,746.4039438,,,,,,,747.9037912999993,747.4068361999998,747.4104804000017,747.4104804000017,747.8982159000007,749.0057911000004,749.0057911000004,z,0.3980072000013024,None,,747.9037912999993,747.9037912999993,,,,,,,,KR_en,001,2025-03-10_21h10.52.502,MainFlow,2024.2.4,143.95821757222737,2025-03-10 21h11.02.490311 +0700,
2,96,0,word/worden0961.png,image/False/imgf96.png,229,229,0,x,0.5937597999982245,None,0,229,229,229,749.4104692000001,,,,,,,750.9031250000007,750.4054051000021,750.4087714999987,750.4087714999987,750.8975218000014,752.0174654000002,752.0174654000002,x,0.5937597999982245,None,752.0174654000002,750.9031250000007,750.9031250000007,,,,,,,,KR_en,001,2025-03-10_21h10.52.502,MainFlow,2024.2.4,143.95821757222737,2025-03-10 21h11.02.490311 +0700,
2,82,0,word/worden0821.png,image/False/imgf82.png,230,230,0,x,0.494856900000741,None,0,230,230,230,752.6179021999997,,,,,,,754.1107073999992,753.6121791000005,753.6154812999994,753.6154812999994,754.1049370000001,755.2270119999994,755.2270119999994,x,0.494856900000741,None,755.2270119999994,754.1107073999992,754.1107073999992,,,,,,,,KR_en,001,2025-03-10_21h10.52.502,MainFlow,2024.2.4,143.95821757222737,2025-03-10 21h11.02.490311 +0700,
2,36,1,word/worden0361.png,image/True/img36.png,231,231,0,z,0.36586959999840474,None,0,231,231,231,755.7286224000018,,,,,,,757.2211691000011,756.7245858999995,756.727877199999,756.727877199999,757.2152466000007,758.3151055999988,758.3151055999988,z,0.36586959999840474,None,758.3151055999988,757.2211691000011,757.2211691000011,,,,,,,,KR_en,001,2025-03-10_21h10.52.502,MainFlow,2024.2.4,143.95821757222737,2025-03-10 21h11.02.490311 +0700,
