lang,wordid,truestate,worddir,imgdir,thisN,thisTrialN,thisRepN,key_resp.keys,key_resp.rt,key_resp.duration,trials.thisRepN,trials.thisTrialN,trials.thisN,trials.thisIndex,thisRow.t,notes,tutorial.started,tutorial.stopped,key_instruct.keys,key_instruct.rt,key_instruct.duration,plusblank.started,wordshow.started,image.started,plsuer.started,wordshow.stopped,imageword.started,key_resp.started,trials.key_resp.keys,trials.key_resp.rt,trials.key_resp.duration,image.stopped,plsuer.stopped,plusblank.stopped,ending.started,text_3.started,ending_key.started,ending.stopped,ending_key.keys,ending_key.rt,ending_key.duration,participant,session,date,expName,psychopyVersion,frameRate,expStart,
,,,,,,,,,,,,,,,,,0.003028800001629861,5.151172699999734,space,5.126566999999341,None,,,,,,,,,,,,,,,,,,,,,KR_th,001,2025-03-10_20h56.36.940,MainFlow,2024.2.4,146.08094052312498,2025-03-10 20h57.11.127744 +0700,
1,51,0,word/wordth0511.png,image/False/imgf51.png,0,0,0,x,0.7318182000017259,None,0,0,0,0,5.198836100000335,,,,,,,6.661890100000164,6.17867219999971,6.203551900001912,6.203551900001912,6.655548599999747,7.821642599999905,7.821642599999905,x,0.7318182000017259,None,,,,,,,,,,,KR_th,001,2025-03-10_20h56.36.940,MainFlow,2024.2.4,146.08094052312498,2025-03-10 20h57.11.127744 +0700,
1,66,1,word/wordth0661.png,image/True/img66.png,1,1,0,z,0.5158114999976533,None,0,1,1,1,8.564166500000283,,,,,,,10.071057299999666,9.572482400002627,9.575804000000062,9.575804000000062,10.064669800001866,11.190155500000401,11.190155500000401,z,0.5158114999976533,None,,,,,,,,,,,KR_th,001,2025-03-10_20h56.36.940,MainFlow,2024.2.4,146.08094052312498,2025-03-10 20h57.11.127744 +0700,
1,60,1,word/wordth0601.png,image/True/img60.png,2,2,0,z,0.5999210000009043,None,0,2,2,2,11.716343500000221,,,,,,,13.223011000001861,12.730642500002432,12.733849100000953,12.733849100000953,13.216584400001011,14.328582000001916,14.328582000001916,z,0.5999210000009043,None,,,,,,,,,,,KR_th,001,2025-03-10_20h56.36.940,MainFlow,2024.2.4,146.08094052312498,2025-03-10 20h57.11.127744 +0700,
1,46,0,word/wordth0461.png,image/False/imgf46.png,3,3,0,z,0.3823123000001942,None,0,3,3,3,14.938050300002942,,,,,,,16.430702600002405,15.937560100002884,15.940443700001197,15.940443700001197,16.425223400001414,17.589951900001324,17.589951900001324,z,0.3823123000001942,None,16.430702600002405,16.430702600002405,17.589951900001324,,,,,,,,KR_th,001,2025-03-10_20h56.36.940,MainFlow,2024.2.4,146.08094052312498,2025-03-10 20h57.11.127744 +0700,
1,24,1,word/wordth0241.png,image/True/img24.png,4,4,0,z,0.6558009000000311,None,0,4,4,4,17.979204000002937,,,,,,,19.479096900002332,18.986145800001395,18.989018600001145,18.989018600001145,19.47370570000203,20.56783060000089,20.56783060000089,z,0.6558009000000311,None,19.479096900002332,19.479096900002332,,,,,,,,,KR_th,001,2025-03-10_20h56.36.940,MainFlow,2024.2.4,146.08094052312498,2025-03-10 20h57.11.127744 +0700,
1,68,1,word/wordth0681.png,image/True/img68.png,5,5,0,z,0.4042334000005212,None,0,5,5,5,21.235171200001787,,,,,,,22.742179799999576,22.249240799999825,22.25294600000052,22.25294600000052,22.73605470000257,23.82432610000251,23.82432610000251,z,0.4042334000005212,None,,,,,,,,,,,KR_th,001,2025-03-10_20h56.36.940,MainFlow,2024.2.4,146.08094052312498,2025-03-10 20h57.11.127744 +0700,
1,22,0,word/wordth0221.png,image/False/imgf22.png,6,6,0,x,0.8013132000014593,None,0,6,6,6,24.234632400002738,,,,,,,25.727418800001033,25.22879240000111,25.23163460000069,25.23163460000069,25.72131090000039,26.86612850000165,26.86612850000165,x,0.8013132000014593,None,25.727418800001033,25.727418800001033,26.86612850000165,,,,,,,,KR_th,001,2025-03-10_20h56.36.940,MainFlow,2024.2.4,146.08094052312498,2025-03-10 20h57.11.127744 +0700,
1,36,1,word/wordth0361.png,image/True/img36.png,7,7,0,z,0.3628833000002487,None,0,7,7,7,27.678673500002333,,,,,,,29.171238599999924,28.67348630000197,28.676357700001972,28.676357700001972,29.16558670000086,30.289396800002578,30.289396800002578,z,0.3628833000002487,None,29.171238599999924,29.171238599999924,30.289396800002578,,,,,,,,KR_th,001,2025-03-10_20h56.36.940,MainFlow,2024.2.4,146.08094052312498,2025-03-10 20h57.11.127744 +0700,
1,68,0,word/wordth0681.png,image/False/imgf68.png,8,8,0,x,0.7174741999988328,None,0,8,8,8,30.6639224999999,,,,,,,32.15685500000109,31.66139750000002,31.664929599999596,31.664929599999596,32.151586400003,33.24798640000154,33.24798640000154,x,0.7174741999988328,None,32.15685500000109,32.15685500000109,33.24798640000154,,,,,,,,KR_th,001,2025-03-10_20h56.36.940,MainFlow,2024.2.4,146.08094052312498,2025-03-10 20h57.11.127744 +0700,
1,16,1,word/wordth0161.png,image/True/img16.png,9,9,0,z,0.3200652999985323,None,0,9,9,9,33.97585149999941,,,,,,,35.48284460000286,34.99044409999988,34.99520350000239,34.99520350000239,35.476314999999886,36.6286680000012,36.6286680000012,z,0.3200652999985323,None,,,,,,,,,,,KR_th,001,2025-03-10_20h56.36.940,MainFlow,2024.2.4,146.08094052312498,2025-03-10 20h57.11.127744 +0700,
1,94,1,word/wordth0941.png,image/True/img94.png,10,10,0,z,0.35275149999870337,None,0,10,10,10,36.95570450000014,,,,,,,38.46138030000293,37.971156400002656,37.97460520000095,37.97460520000095,38.45484860000215,39.57883270000093,39.57883270000093,z,0.35275149999870337,None,,,,,,,,,,,KR_th,001,2025-03-10_20h56.36.940,MainFlow,2024.2.4,146.08094052312498,2025-03-10 20h57.11.127744 +0700,
1,95,0,word/wordth0951.png,image/False/imgf95.png,11,11,0,x,0.8301241999979538,None,0,11,11,11,39.94213619999937,,,,,,,41.44674570000279,40.95422780000081,40.958093799999915,40.958093799999915,41.44057370000155,42.57916500000283,42.57916500000283,x,0.8301241999979538,None,,,,,,,,,,,KR_th,001,2025-03-10_20h56.36.940,MainFlow,2024.2.4,146.08094052312498,2025-03-10 20h57.11.127744 +0700,
1,30,0,word/wordth0301.png,image/False/imgf30.png,12,12,0,x,0.5380571999994572,None,0,12,12,12,43.41848800000298,,,,,,,44.92524709999998,44.43938320000234,44.442707600002905,44.442707600002905,44.91886480000176,46.03864539999995,46.03864539999995,x,0.5380571999994572,None,,,,,,,,,,,KR_th,001,2025-03-10_20h56.36.940,MainFlow,2024.2.4,146.08094052312498,2025-03-10 20h57.11.127744 +0700,
1,20,1,word/wordth0201.png,image/True/img20.png,13,13,0,z,0.36059259999819915,None,0,13,13,13,46.58452770000076,,,,,,,48.09138140000141,47.60474620000241,47.6081241000029,47.6081241000029,48.08508680000159,49.223284100000456,49.223284100000456,z,0.36059259999819915,None,,,,,,,,,,,KR_th,001,2025-03-10_20h56.36.940,MainFlow,2024.2.4,146.08094052312498,2025-03-10 20h57.11.127744 +0700,
1,42,0,word/wordth0421.png,image/False/imgf42.png,14,14,0,x,0.5092928000012762,None,0,14,14,14,49.59085740000228,,,,,,,51.09751010000036,50.606717099999514,50.61018429999967,50.61018429999967,51.09104260000095,52.23699430000124,52.23699430000124,x,0.5092928000012762,None,,,,,,,,,,,KR_th,001,2025-03-10_20h56.36.940,MainFlow,2024.2.4,146.08094052312498,2025-03-10 20h57.11.127744 +0700,
1,31,1,word/wordth0311.png,image/True/img31.png,15,15,0,z,0.3109859000032884,None,0,15,15,15,52.756935900000826,,,,,,,54.263806700000714,53.77857230000154,53.781729300000734,53.781729300000734,54.257560699999885,55.355535800001235,55.355535800001235,z,0.3109859000032884,None,,,,,,,,,,,KR_th,001,2025-03-10_20h56.36.940,MainFlow,2024.2.4,146.08094052312498,2025-03-10 20h57.11.127744 +0700,
1,55,1,word/wordth0551.png,image/True/img55.png,16,16,0,z,0.3922132999978203,None,0,16,16,16,55.67318400000295,,,,,,,57.17282290000003,56.67663420000099,56.67947190000268,56.67947190000268,57.16756920000262,58.31401940000069,58.31401940000069,z,0.3922132999978203,None,57.17282290000003,57.17282290000003,,,,,,,,,KR_th,001,2025-03-10_20h56.36.940,MainFlow,2024.2.4,146.08094052312498,2025-03-10 20h57.11.127744 +0700,
1,36,1,word/wordth0361.png,image/True/img36.png,17,17,0,z,0.27023019999978715,None,0,17,17,17,58.714156699999876,,,,,,,60.213764600001014,59.72003250000125,59.72396630000003,59.72396630000003,60.20774910000182,61.315368900002795,61.315368900002795,z,0.27023019999978715,None,60.213764600001014,60.213764600001014,,,,,,,,,KR_th,001,2025-03-10_20h56.36.940,MainFlow,2024.2.4,146.08094052312498,2025-03-10 20h57.11.127744 +0700,
1,9,1,word/wordth0091.png,image/True/img09.png,18,18,0,z,0.3533091000026616,None,0,18,18,18,61.59545380000054,,,,,,,63.1023978000012,62.609531199999765,62.613118100001884,62.613118100001884,63.09613730000274,64.18556119999994,64.18556119999994,z,0.3533091000026616,None,,,,,,,,,,,KR_th,001,2025-03-10_20h56.36.940,MainFlow,2024.2.4,146.08094052312498,2025-03-10 20h57.11.127744 +0700,
1,64,1,word/wordth0641.png,image/True/img64.png,19,19,0,z,0.426782300000923,None,0,19,19,19,64.54629440000281,,,,,,,66.05300999999963,65.56465740000203,65.56796759999997,65.56796759999997,66.04658280000149,67.15529190000234,67.15529190000234,z,0.426782300000923,None,,,,,,,,,,,KR_th,001,2025-03-10_20h56.36.940,MainFlow,2024.2.4,146.08094052312498,2025-03-10 20h57.11.127744 +0700,
1,95,1,word/wordth0951.png,image/True/img95.png,20,20,0,z,0.2551329000016267,None,0,20,20,20,67.59035440000298,,,,,,,69.08712580000065,68.5922567000016,68.59642929999973,68.59642929999973,69.08134570000038,70.25159660000281,70.25159660000281,z,0.2551329000016267,None,69.08712580000065,69.08712580000065,70.25159660000281,,,,,,,,KR_th,001,2025-03-10_20h56.36.940,MainFlow,2024.2.4,146.08094052312498,2025-03-10 20h57.11.127744 +0700,
1,41,1,word/wordth0411.png,image/True/img41.png,21,21,0,z,0.3917356000019936,None,0,21,21,21,70.51733980000063,,,,,,,72.02408840000135,71.53022520000013,71.53370630000063,71.53370630000063,72.0176343000021,73.13992839999992,73.13992839999992,z,0.3917356000019936,None,,,,,,,,,,,KR_th,001,2025-03-10_20h56.36.940,MainFlow,2024.2.4,146.08094052312498,2025-03-10 20h57.11.127744 +0700,
1,8,1,word/wordth0081.png,image/True/img08.png,22,22,0,z,0.28477030000067316,None,0,22,22,22,73.53765920000296,,,,,,,75.04457000000184,74.55205040000146,74.5555502999996,74.5555502999996,75.03829469999982,76.1460791999998,76.1460791999998,z,0.28477030000067316,None,,,,,,,,,,,KR_th,001,2025-03-10_20h56.36.940,MainFlow,2024.2.4,146.08094052312498,2025-03-10 20h57.11.127744 +0700,
1,60,1,word/wordth0601.png,image/True/img60.png,23,23,0,z,0.34852280000268365,None,0,23,23,23,76.43985160000011,,,,,,,77.93267370000103,77.43442150000192,77.43760690000272,77.43760690000272,77.9270045000012,79.02951600000233,79.02951600000233,z,0.34852280000268365,None,77.93267370000103,77.93267370000103,79.02951600000233,,,,,,,,KR_th,001,2025-03-10_20h56.36.940,MainFlow,2024.2.4,146.08094052312498,2025-03-10 20h57.11.127744 +0700,
1,48,0,word/wordth0481.png,image/False/imgf48.png,24,24,0,x,0.7578121999977157,None,0,24,24,24,79.38445260000299,,,,,,,80.87648470000204,80.38093330000265,80.38388730000224,80.38388730000224,80.87053740000192,82.02327019999939,82.02327019999939,x,0.7578121999977157,None,80.87648470000204,80.87648470000204,82.02327019999939,,,,,,,,KR_th,001,2025-03-10_20h56.36.940,MainFlow,2024.2.4,146.08094052312498,2025-03-10 20h57.11.127744 +0700,
1,41,0,word/wordth0411.png,image/False/imgf41.png,25,25,0,x,0.6432784999997239,None,0,25,25,25,82.79279959999985,,,,,,,84.28552029999992,83.7911305000016,83.79477500000212,83.79477500000212,84.27974520000134,85.39507530000265,85.39507530000265,x,0.6432784999997239,None,84.28552029999992,84.28552029999992,85.39507530000265,,,,,,,,KR_th,001,2025-03-10_20h56.36.940,MainFlow,2024.2.4,146.08094052312498,2025-03-10 20h57.11.127744 +0700,
1,54,0,word/wordth0541.png,image/False/imgf54.png,26,26,0,x,0.6931230999980471,None,0,26,26,26,86.04897890000211,,,,,,,87.5560151000027,87.07007530000192,87.07359930000166,87.07359930000166,87.54974090000178,88.65913600000204,88.65913600000204,x,0.6931230999980471,None,,,,,,,,,,,KR_th,001,2025-03-10_20h56.36.940,MainFlow,2024.2.4,146.08094052312498,2025-03-10 20h57.11.127744 +0700,
1,54,1,word/wordth0541.png,image/True/img54.png,27,27,0,z,0.3168942000011157,None,0,27,27,27,89.3608712000023,,,,,,,90.85399150000012,90.35739640000247,90.36040100000173,90.36040100000173,90.84863940000287,92.00443260000247,92.00443260000247,z,0.3168942000011157,None,90.85399150000012,90.85399150000012,92.00443260000247,,,,,,,,KR_th,001,2025-03-10_20h56.36.940,MainFlow,2024.2.4,146.08094052312498,2025-03-10 20h57.11.127744 +0700,
1,63,0,word/wordth0631.png,image/False/imgf63.png,28,28,0,x,1.1316236999991816,None,0,28,28,28,92.33246040000085,,,,,,,93.83934510000108,93.34650239999974,93.34940640000059,93.34940640000059,93.83271030000105,94.96958900000027,94.96958900000027,x,1.1316236999991816,None,,,,,,,,,,,KR_th,001,2025-03-10_20h56.36.940,MainFlow,2024.2.4,146.08094052312498,2025-03-10 20h57.11.127744 +0700,
1,37,0,word/wordth0371.png,image/False/imgf37.png,29,29,0,x,0.6066143999996711,None,0,29,29,29,96.10961049999969,,,,,,,97.60232739999992,97.10737660000086,97.11012780000237,97.11012780000237,97.59756300000299,98.78491390000272,98.78491390000272,x,0.6066143999996711,None,97.60232739999992,97.60232739999992,98.78491390000272,,,,,,,,KR_th,001,2025-03-10_20h56.36.940,MainFlow,2024.2.4,146.08094052312498,2025-03-10 20h57.11.127744 +0700,
1,54,0,word/wordth0541.png,image/False/imgf54.png,30,30,0,x,0.30373709999912535,None,0,30,30,30,99.4020797000012,,,,,,,100.90039140000226,100.4060685000004,100.409516300002,100.409516300002,100.89455720000115,102.00885670000207,102.00885670000207,x,0.30373709999912535,None,100.90039140000226,100.90039140000226,102.00885670000207,,,,,,,,KR_th,001,2025-03-10_20h56.36.940,MainFlow,2024.2.4,146.08094052312498,2025-03-10 20h57.11.127744 +0700,
1,48,1,word/wordth0481.png,image/True/img48.png,31,31,0,z,0.28703369999857387,None,0,31,31,31,102.32365010000285,,,,,,,103.8236336000009,103.32438710000133,103.32792870000048,103.32792870000048,103.81812490000084,104.96372999999949,104.96372999999949,z,0.28703369999857387,None,103.8236336000009,103.8236336000009,,,,,,,,,KR_th,001,2025-03-10_20h56.36.940,MainFlow,2024.2.4,146.08094052312498,2025-03-10 20h57.11.127744 +0700,
1,26,0,word/wordth0261.png,image/False/imgf26.png,32,32,0,x,0.6358491999999387,None,0,32,32,32,105.26053580000007,,,,,,,106.767346800003,106.27549270000236,106.27895180000269,106.27895180000269,106.76097300000038,107.90921940000044,107.90921940000044,x,0.6358491999999387,None,,,,,,,,,,,KR_th,001,2025-03-10_20h56.36.940,MainFlow,2024.2.4,146.08094052312498,2025-03-10 20h57.11.127744 +0700,
1,59,0,word/wordth0591.png,image/False/imgf59.png,33,33,0,x,0.5254640999992262,None,0,33,33,33,108.5535990999997,,,,,,,110.04454610000175,109.54965430000084,109.55248770000253,109.55248770000253,110.03926280000087,111.15406710000025,111.15406710000025,x,0.5254640999992262,None,110.04454610000175,110.04454610000175,111.15406710000025,,,,,,,,KR_th,001,2025-03-10_20h56.36.940,MainFlow,2024.2.4,146.08094052312498,2025-03-10 20h57.11.127744 +0700,
1,8,1,word/wordth0081.png,image/True/img08.png,34,34,0,z,0.48851509999803966,None,0,34,34,34,111.69003050000174,,,,,,,113.18979410000247,112.69649489999938,112.70021620000261,112.70021620000261,113.18413320000036,114.28285770000002,114.28285770000002,z,0.48851509999803966,None,113.18979410000247,113.18979410000247,,,,,,,,,KR_th,001,2025-03-10_20h56.36.940,MainFlow,2024.2.4,146.08094052312498,2025-03-10 20h57.11.127744 +0700,
1,66,1,word/wordth0661.png,image/True/img66.png,35,35,0,z,0.3099944999994477,None,0,35,35,35,114.77969950000261,,,,,,,116.27257810000083,115.77604010000141,115.77993659999993,115.77993659999993,116.26729650000198,117.388425000001,117.388425000001,z,0.3099944999994477,None,116.27257810000083,116.27257810000083,117.388425000001,,,,,,,,KR_th,001,2025-03-10_20h56.36.940,MainFlow,2024.2.4,146.08094052312498,2025-03-10 20h57.11.127744 +0700,
1,24,0,word/wordth0241.png,image/False/imgf24.png,36,36,0,z,0.3438773999987461,None,0,36,36,36,117.7113473999998,,,,,,,119.19549030000053,118.70261580000079,118.7060569000023,118.7060569000023,119.18972960000247,120.32679769999959,120.32679769999959,z,0.3438773999987461,None,119.19549030000053,119.19549030000053,120.32679769999959,,,,,,,,KR_th,001,2025-03-10_20h56.36.940,MainFlow,2024.2.4,146.08094052312498,2025-03-10 20h57.11.127744 +0700,
1,14,1,word/wordth0141.png,image/True/img14.png,37,37,0,z,0.455537000001641,None,0,37,37,37,120.68112060000203,,,,,,,122.18812009999965,121.69569520000005,121.69902999999977,121.69902999999977,122.18183770000178,123.30581510000047,123.30581510000047,z,0.455537000001641,None,,,,,,,,,,,KR_th,001,2025-03-10_20h56.36.940,MainFlow,2024.2.4,146.08094052312498,2025-03-10 20h57.11.127744 +0700,
1,20,0,word/wordth0201.png,image/False/imgf20.png,38,38,0,x,0.5330099000020709,None,0,38,38,38,123.77200770000127,,,,,,,125.27078489999985,124.7727804999995,124.77614130000075,124.77614130000075,125.26542150000023,126.41464980000092,126.41464980000092,x,0.5330099000020709,None,125.27078489999985,125.27078489999985,126.41464980000092,,,,,,,,KR_th,001,2025-03-10_20h56.36.940,MainFlow,2024.2.4,146.08094052312498,2025-03-10 20h57.11.127744 +0700,
1,89,0,word/wordth0891.png,image/False/imgf89.png,39,39,0,x,0.6876856999988377,None,0,39,39,39,126.95783940000183,,,,,,,128.4645003000005,127.97905739999987,127.9825942000025,127.9825942000025,128.45814840000094,129.5740947000013,129.5740947000013,x,0.6876856999988377,None,,,,,,,,,,,KR_th,001,2025-03-10_20h56.36.940,MainFlow,2024.2.4,146.08094052312498,2025-03-10 20h57.11.127744 +0700,
1,64,0,word/wordth0641.png,image/False/imgf64.png,40,40,0,x,0.39347579999957816,None,0,40,40,40,130.2695808000026,,,,,,,131.76261309999973,131.26687590000074,131.27043160000176,131.27043160000176,131.7568917000026,132.85942590000195,132.85942590000195,x,0.39347579999957816,None,131.76261309999973,131.76261309999973,132.85942590000195,,,,,,,,KR_th,001,2025-03-10_20h56.36.940,MainFlow,2024.2.4,146.08094052312498,2025-03-10 20h57.11.127744 +0700,
1,56,1,word/wordth0561.png,image/True/img56.png,41,41,0,z,0.578694899999391,None,0,41,41,41,133.2620984000023,,,,,,,134.768891300002,134.27940959999978,134.28262240000186,134.28262240000186,134.7625420000004,135.90556060000017,135.90556060000017,z,0.578694899999391,None,,,,,,,,,,,KR_th,001,2025-03-10_20h56.36.940,MainFlow,2024.2.4,146.08094052312498,2025-03-10 20h57.11.127744 +0700,
1,15,1,word/wordth0151.png,image/True/img15.png,42,42,0,z,0.5023522999981651,None,0,42,42,42,136.49064709999948,,,,,,,137.98340960000132,137.48828770000182,137.4910235999996,137.4910235999996,137.9779122,139.13134999999966,139.13134999999966,z,0.5023522999981651,None,137.98340960000132,137.98340960000132,139.13134999999966,,,,,,,,KR_th,001,2025-03-10_20h56.36.940,MainFlow,2024.2.4,146.08094052312498,2025-03-10 20h57.11.127744 +0700,
1,88,0,word/wordth0881.png,image/False/imgf88.png,43,43,0,x,0.5766819999989821,None,0,43,43,43,139.6429218000012,,,,,,,141.14256300000125,140.64804890000232,140.65092410000216,140.65092410000216,141.1366592000013,142.27445720000105,142.27445720000105,x,0.5766819999989821,None,141.14256300000125,141.14256300000125,,,,,,,,,KR_th,001,2025-03-10_20h56.36.940,MainFlow,2024.2.4,146.08094052312498,2025-03-10 20h57.11.127744 +0700,
1,94,1,word/wordth0941.png,image/True/img94.png,44,44,0,z,0.40276600000288454,None,0,44,44,44,142.85741100000087,,,,,,,144.35026550000111,143.8536875000027,143.85740350000196,143.85740350000196,144.34437830000024,145.46638330000133,145.46638330000133,z,0.40276600000288454,None,144.35026550000111,144.35026550000111,145.46638330000133,,,,,,,,KR_th,001,2025-03-10_20h56.36.940,MainFlow,2024.2.4,146.08094052312498,2025-03-10 20h57.11.127744 +0700,
1,40,0,word/wordth0401.png,image/False/imgf40.png,45,45,0,x,0.5482059000023582,None,0,45,45,45,145.87772410000252,,,,,,,147.37762479999947,146.88292690000162,146.88588140000138,146.88588140000138,147.3720613000005,148.50830210000277,148.50830210000277,x,0.5482059000023582,None,147.37762479999947,147.37762479999947,,,,,,,,,KR_th,001,2025-03-10_20h56.36.940,MainFlow,2024.2.4,146.08094052312498,2025-03-10 20h57.11.127744 +0700,
1,41,0,word/wordth0411.png,image/False/imgf41.png,46,46,0,x,0.7014684999994643,None,0,46,46,46,149.06456900000194,,,,,,,150.55747350000092,150.0610596000006,150.06439769999997,150.06439769999997,150.55164409999998,151.65027330000157,151.65027330000157,x,0.7014684999994643,None,150.55747350000092,150.55747350000092,151.65027330000157,,,,,,,,KR_th,001,2025-03-10_20h56.36.940,MainFlow,2024.2.4,146.08094052312498,2025-03-10 20h57.11.127744 +0700,
1,7,1,word/wordth0071.png,image/True/img07.png,47,47,0,z,0.39422470000135945,None,0,47,47,47,152.3625972000009,,,,,,,153.86925890000202,153.37627300000167,153.37969010000234,153.37969010000234,153.86281240000244,154.9894525000018,154.9894525000018,z,0.39422470000135945,None,,,,,,,,,,,KR_th,001,2025-03-10_20h56.36.940,MainFlow,2024.2.4,146.08094052312498,2025-03-10 20h57.11.127744 +0700,
1,60,0,word/wordth0601.png,image/False/imgf60.png,48,48,0,x,0.5373350999980175,None,0,48,48,48,155.38972950000243,,,,,,,156.8825461000015,156.38662889999978,156.3901242000029,156.3901242000029,156.87669480000113,158.00891050000064,158.00891050000064,x,0.5373350999980175,None,156.8825461000015,156.8825461000015,158.00891050000064,,,,,,,,KR_th,001,2025-03-10_20h56.36.940,MainFlow,2024.2.4,146.08094052312498,2025-03-10 20h57.11.127744 +0700,
1,23,0,word/wordth0231.png,image/False/imgf23.png,49,49,0,x,0.919903300000442,None,0,49,49,49,158.55748030000177,,,,,,,160.04886790000091,159.55077380000148,159.5539420999994,159.5539420999994,160.04324160000033,161.22674630000256,161.22674630000256,x,0.919903300000442,None,160.04886790000091,160.04886790000091,161.22674630000256,,,,,,,,KR_th,001,2025-03-10_20h56.36.940,MainFlow,2024.2.4,146.08094052312498,2025-03-10 20h57.11.127744 +0700,
1,68,0,word/wordth0681.png,image/False/imgf68.png,50,50,0,x,0.6222673999982362,None,0,50,50,50,162.15916320000179,,,,,,,163.65899740000168,163.1604178000016,163.1640163000011,163.1640163000011,163.6528502000001,164.73315840000214,164.73315840000214,x,0.6222673999982362,None,163.65899740000168,163.65899740000168,,,,,,,,,KR_th,001,2025-03-10_20h56.36.940,MainFlow,2024.2.4,146.08094052312498,2025-03-10 20h57.11.127744 +0700,
1,26,1,word/wordth0261.png,image/True/img26.png,51,51,0,z,0.7741722999999183,None,0,51,51,51,165.36688700000013,,,,,,,166.87389410000105,166.37596330000088,166.3804041000003,166.3804041000003,166.8676529000004,168.01569220000238,168.01569220000238,z,0.7741722999999183,None,,,166.3804041000003,,,,,,,,KR_th,001,2025-03-10_20h56.36.940,MainFlow,2024.2.4,146.08094052312498,2025-03-10 20h57.11.127744 +0700,
1,89,0,word/wordth0891.png,image/False/imgf89.png,52,52,0,x,0.5106309000002511,None,0,52,52,52,168.79682570000296,,,,,,,170.2966219000009,169.7986039999996,169.80230030000166,169.80230030000166,170.2908290000014,171.3947936000004,171.3947936000004,x,0.5106309000002511,None,170.2966219000009,170.2966219000009,,,,,,,,,KR_th,001,2025-03-10_20h56.36.940,MainFlow,2024.2.4,146.08094052312498,2025-03-10 20h57.11.127744 +0700,
1,3,0,word/wordth0031.png,image/False/imgf03.png,53,53,0,x,0.44547160000001895,None,0,53,53,53,171.9144551999998,,,,,,,173.41419060000044,172.9162737000006,172.91903830000228,172.91903830000228,173.40899130000253,174.53674840000167,174.53674840000167,x,0.44547160000001895,None,173.41419060000044,173.41419060000044,,,,,,,,,KR_th,001,2025-03-10_20h56.36.940,MainFlow,2024.2.4,146.08094052312498,2025-03-10 20h57.11.127744 +0700,
1,55,1,word/wordth0551.png,image/True/img55.png,54,54,0,z,0.5861703000009584,None,0,54,54,54,174.9901759000022,,,,,,,176.48308700000052,175.98571100000117,175.98927770000228,175.98927770000228,176.47813470000256,177.60945110000102,177.60945110000102,z,0.5861703000009584,None,176.48308700000052,176.48308700000052,177.60945110000102,,,,,,,,KR_th,001,2025-03-10_20h56.36.940,MainFlow,2024.2.4,146.08094052312498,2025-03-10 20h57.11.127744 +0700,
1,46,1,word/wordth0461.png,image/True/img46.png,55,55,0,z,0.4228456000018923,None,0,55,55,55,178.20479139999952,,,,,,,179.70468880000044,179.20768820000012,179.2115448000004,179.2115448000004,179.69910990000062,180.85764200000267,180.85764200000267,z,0.4228456000018923,None,179.70468880000044,179.70468880000044,,,,,,,,,KR_th,001,2025-03-10_20h56.36.940,MainFlow,2024.2.4,146.08094052312498,2025-03-10 20h57.11.127744 +0700,
1,1,1,word/wordth0011.png,image/True/img01.png,56,56,0,z,0.6019390000001295,None,0,56,56,56,181.287487900001,,,,,,,182.79422120000163,182.3077239000013,182.310843700001,182.310843700001,182.78804010000022,183.94356400000106,183.94356400000106,z,0.6019390000001295,None,,,,,,,,,,,KR_th,001,2025-03-10_20h56.36.940,MainFlow,2024.2.4,146.08094052312498,2025-03-10 20h57.11.127744 +0700,
1,3,1,word/wordth0031.png,image/True/img03.png,57,57,0,z,2.2132201999993413,None,0,57,57,57,184.55763030000162,,,,,,,186.0574231999999,185.56121600000188,185.5648899000007,185.5648899000007,186.05161650000082,187.18936229999963,187.18936229999963,z,2.2132201999993413,None,186.0574231999999,186.0574231999999,,,,,,,,,KR_th,001,2025-03-10_20h56.36.940,MainFlow,2024.2.4,146.08094052312498,2025-03-10 20h57.11.127744 +0700,
1,76,1,word/wordth0761.png,image/True/img76.png,58,58,0,z,0.5435116000007838,None,0,58,58,58,189.4109150000004,,,,,,,190.9177509000001,190.42281820000062,190.42607340000177,190.42607340000177,190.91139250000197,192.04275710000002,192.04275710000002,z,0.5435116000007838,None,,,,,,,,,,,KR_th,001,2025-03-10_20h56.36.940,MainFlow,2024.2.4,146.08094052312498,2025-03-10 20h57.11.127744 +0700,
1,52,0,word/wordth0521.png,image/False/imgf52.png,59,59,0,z,0.32943929999964894,None,0,59,59,59,192.59778890000234,,,,,,,194.10463970000274,193.61844190000193,193.62176510000063,193.62176510000063,194.0983844000002,195.21376600000076,195.21376600000076,z,0.32943929999964894,None,,,,,,,,,,,KR_th,001,2025-03-10_20h56.36.940,MainFlow,2024.2.4,146.08094052312498,2025-03-10 20h57.11.127744 +0700,
1,14,0,word/wordth0141.png,image/False/imgf14.png,60,60,0,x,0.49483429999963846,None,0,60,60,60,195.5556389000012,,,,,,,197.04823450000185,196.55185130000245,196.5554458000006,196.5554458000006,197.04208010000002,198.16707640000095,198.16707640000095,x,0.49483429999963846,None,197.04823450000185,197.04823450000185,198.16707640000095,,,,,,,,KR_th,001,2025-03-10_20h56.36.940,MainFlow,2024.2.4,146.08094052312498,2025-03-10 20h57.11.127744 +0700,
1,61,1,word/wordth0611.png,image/True/img61.png,61,61,0,z,0.5094242999984999,None,0,61,61,61,198.67366200000106,,,,,,,200.1661066000015,199.67376230000082,199.6766843000005,199.6766843000005,200.160977800002,201.29304830000183,201.29304830000183,z,0.5094242999984999,None,200.1661066000015,200.1661066000015,201.29304830000183,,,,,,,,KR_th,001,2025-03-10_20h56.36.940,MainFlow,2024.2.4,146.08094052312498,2025-03-10 20h57.11.127744 +0700,
1,93,0,word/wordth0931.png,image/False/imgf93.png,62,62,0,x,0.5592311999971571,None,0,62,62,62,201.8113043000012,,,,,,,203.31827580000027,202.82826700000078,202.83193759999995,202.83193759999995,203.31194049999976,204.42089430000124,204.42089430000124,x,0.5592311999971571,None,,,,,,,,,,,KR_th,001,2025-03-10_20h56.36.940,MainFlow,2024.2.4,146.08094052312498,2025-03-10 20h57.11.127744 +0700,
1,37,1,word/wordth0371.png,image/True/img37.png,63,63,0,z,0.6537542000005487,None,0,63,63,63,204.99127550000048,,,,,,,206.49099209999986,205.99336380000022,205.99699429999964,205.99699429999964,206.48514590000195,207.65337660000296,207.65337660000296,z,0.6537542000005487,None,206.49099209999986,206.49099209999986,,,,,,,,,KR_th,001,2025-03-10_20h56.36.940,MainFlow,2024.2.4,146.08094052312498,2025-03-10 20h57.11.127744 +0700,
1,79,0,word/wordth0791.png,image/False/imgf79.png,64,64,0,x,0.6083245000008901,None,0,64,64,64,208.3168693000007,,,,,,,209.8237575000021,209.3278231000004,209.33059630000207,209.33059630000207,209.81740260000151,210.96403529999952,210.96403529999952,x,0.6083245000008901,None,,,209.33059630000207,,,,,,,,KR_th,001,2025-03-10_20h56.36.940,MainFlow,2024.2.4,146.08094052312498,2025-03-10 20h57.11.127744 +0700,
1,37,0,word/wordth0371.png,image/False/imgf37.png,65,65,0,x,0.6094370999999228,None,0,65,65,65,211.58207670000047,,,,,,,213.07320059999984,212.57582730000286,212.57926880000014,212.57926880000014,213.06788620000225,214.21810680000272,214.21810680000272,x,0.6094370999999228,None,213.07320059999984,213.07320059999984,214.21810680000272,,,,,,,,KR_th,001,2025-03-10_20h56.36.940,MainFlow,2024.2.4,146.08094052312498,2025-03-10 20h57.11.127744 +0700,
1,3,1,word/wordth0031.png,image/True/img03.png,66,66,0,z,0.6084833000022627,None,0,66,66,66,214.836531500001,,,,,,,216.3293322999998,215.8346786000002,215.8382421999995,215.8382421999995,216.3234878000003,217.44515890000184,217.44515890000184,z,0.6084833000022627,None,216.3293322999998,216.3293322999998,217.44515890000184,,,,,,,,KR_th,001,2025-03-10_20h56.36.940,MainFlow,2024.2.4,146.08094052312498,2025-03-10 20h57.11.127744 +0700,
1,93,0,word/wordth0931.png,image/False/imgf93.png,67,67,0,x,0.5921028000011574,None,0,67,67,67,218.0654515999995,,,,,,,219.56505110000217,219.0680023999994,219.07164779999948,219.07164779999948,219.55904530000043,220.66437700000097,220.66437700000097,x,0.5921028000011574,None,219.56505110000217,219.56505110000217,220.66437700000097,,,,,,,,KR_th,001,2025-03-10_20h56.36.940,MainFlow,2024.2.4,146.08094052312498,2025-03-10 20h57.11.127744 +0700,
1,30,1,word/wordth0301.png,image/True/img30.png,68,68,0,z,0.5179674999999406,None,0,68,68,68,221.2671947000017,,,,,,,222.75868080000146,222.26286950000213,222.26651459999994,222.26651459999994,222.75297330000103,223.89507760000197,223.89507760000197,z,0.5179674999999406,None,222.75868080000146,222.75868080000146,223.89507760000197,,,,,,,,KR_th,001,2025-03-10_20h56.36.940,MainFlow,2024.2.4,146.08094052312498,2025-03-10 20h57.11.127744 +0700,
1,46,0,word/wordth0461.png,image/False/imgf46.png,69,69,0,x,0.6578021000023,None,0,69,69,69,224.42483180000272,,,,,,,225.92470080000203,225.42768980000255,225.43131379999977,225.43131379999977,225.91928460000054,227.05159060000005,227.05159060000005,x,0.6578021000023,None,225.92470080000203,225.92470080000203,,,,,,,,,KR_th,001,2025-03-10_20h56.36.940,MainFlow,2024.2.4,146.08094052312498,2025-03-10 20h57.11.127744 +0700,
1,27,0,word/wordth0271.png,image/False/imgf27.png,70,70,0,x,0.9179931999969995,None,0,70,70,70,227.71611150000172,,,,,,,229.20878300000186,228.71382200000153,228.71665430000212,228.71665430000212,229.20318770000085,230.3416440000001,230.3416440000001,x,0.9179931999969995,None,229.20878300000186,229.20878300000186,230.3416440000001,,,,,,,,KR_th,001,2025-03-10_20h56.36.940,MainFlow,2024.2.4,146.08094052312498,2025-03-10 20h57.11.127744 +0700,
1,37,1,word/wordth0371.png,image/True/img37.png,71,71,0,z,0.7942957999985083,None,0,71,71,71,231.2711823000027,,,,,,,232.76368790000197,232.26972860000024,232.27309380000224,232.27309380000224,232.75792189999993,233.91206320000128,233.91206320000128,z,0.7942957999985083,None,232.76368790000197,232.76368790000197,233.91206320000128,,,,,,,,KR_th,001,2025-03-10_20h56.36.940,MainFlow,2024.2.4,146.08094052312498,2025-03-10 20h57.11.127744 +0700,
1,20,1,word/wordth0201.png,image/True/img20.png,72,72,0,z,0.4173603000017465,None,0,72,72,72,234.71458490000077,,,,,,,236.21435689999998,235.7177714999998,235.72161250000136,235.72161250000136,236.20852680000098,237.34687300000223,237.34687300000223,z,0.4173603000017465,None,236.21435689999998,236.21435689999998,,,,,,,,,KR_th,001,2025-03-10_20h56.36.940,MainFlow,2024.2.4,146.08094052312498,2025-03-10 20h57.11.127744 +0700,
1,17,1,word/wordth0171.png,image/True/img17.png,73,73,0,z,0.30203290000281413,None,0,73,73,73,237.7764225000028,,,,,,,239.26942300000155,238.77463569999964,238.7776264000022,238.7776264000022,239.2635947000017,240.39740650000022,240.39740650000022,z,0.30203290000281413,None,239.26942300000155,239.26942300000155,240.39740650000022,,,,,,,,KR_th,001,2025-03-10_20h56.36.940,MainFlow,2024.2.4,146.08094052312498,2025-03-10 20h57.11.127744 +0700,
1,10,0,word/wordth0101.png,image/False/imgf10.png,74,74,0,x,0.6493322999995144,None,0,74,74,74,240.7064358000025,,,,,,,242.21336370000063,241.72721380000075,241.73038430000088,241.73038430000088,242.20702449999953,243.3552793000017,243.3552793000017,x,0.6493322999995144,None,,,,,,,,,,,KR_th,001,2025-03-10_20h56.36.940,MainFlow,2024.2.4,146.08094052312498,2025-03-10 20h57.11.127744 +0700,
1,68,1,word/wordth0681.png,image/True/img68.png,75,75,0,z,0.5404895000028773,None,0,75,75,75,244.0115160000023,,,,,,,245.51118780000252,245.01187890000074,245.01567540000178,245.01567540000178,245.5053117000025,246.59266890000072,246.59266890000072,z,0.5404895000028773,None,245.51118780000252,245.51118780000252,,,,,,,,,KR_th,001,2025-03-10_20h56.36.940,MainFlow,2024.2.4,146.08094052312498,2025-03-10 20h57.11.127744 +0700,
1,82,0,word/wordth0821.png,image/False/imgf82.png,76,76,0,x,0.6328997999989951,None,0,76,76,76,247.14268390000143,,,,,,,248.649518000002,248.15854690000197,248.16216020000138,248.16216020000138,248.6430500000024,249.76656800000274,249.76656800000274,x,0.6328997999989951,None,,,,,,,,,,,KR_th,001,2025-03-10_20h56.36.940,MainFlow,2024.2.4,146.08094052312498,2025-03-10 20h57.11.127744 +0700,
1,42,1,word/wordth0421.png,image/True/img42.png,77,77,0,z,0.557833999999275,None,0,77,77,77,250.4059816000008,,,,,,,251.8989658999999,251.40303649999987,251.40649340000164,251.40649340000164,251.89314680000098,253.04604590000235,253.04604590000235,z,0.557833999999275,None,251.8989658999999,251.8989658999999,253.04604590000235,,,,,,,,KR_th,001,2025-03-10_20h56.36.940,MainFlow,2024.2.4,146.08094052312498,2025-03-10 20h57.11.127744 +0700,
1,59,1,word/wordth0591.png,image/True/img59.png,78,78,0,z,0.4994934000023932,None,0,78,78,78,253.6137297000023,,,,,,,255.1066525999995,254.61180840000088,254.61528290000206,254.61528290000206,255.10115430000224,256.20002810000005,256.20002810000005,z,0.4994934000023932,None,255.1066525999995,255.1066525999995,256.20002810000005,,,,,,,,KR_th,001,2025-03-10_20h56.36.940,MainFlow,2024.2.4,146.08094052312498,2025-03-10 20h57.11.127744 +0700,
1,18,1,word/wordth0181.png,image/True/img18.png,79,79,0,z,0.6392684999991616,None,0,79,79,79,256.7103313000007,,,,,,,258.2170210000004,257.7262845000005,257.72944690000077,257.72944690000077,258.2106722000026,259.3276317000018,259.3276317000018,z,0.6392684999991616,None,,,,,,,,,,,KR_th,001,2025-03-10_20h56.36.940,MainFlow,2024.2.4,146.08094052312498,2025-03-10 20h57.11.127744 +0700,
1,63,1,word/wordth0631.png,image/True/img63.png,80,80,0,z,2.306512200000725,None,0,80,80,80,259.97369009999966,,,,,,,261.4735459000003,260.97706930000277,260.98073600000134,260.98073600000134,261.46814260000247,262.6240639000025,262.6240639000025,z,2.306512200000725,None,261.4735459000003,261.4735459000003,,,,,,,,,KR_th,001,2025-03-10_20h56.36.940,MainFlow,2024.2.4,146.08094052312498,2025-03-10 20h57.11.127744 +0700,
1,40,0,word/wordth0401.png,image/False/imgf40.png,81,81,0,x,0.8649320000004082,None,0,81,81,81,264.93788270000005,,,,,,,266.43764550000196,265.94101220000084,265.9446545000028,265.9446545000028,266.4317943999995,267.54930349999995,267.54930349999995,x,0.8649320000004082,None,266.43764550000196,266.43764550000196,,,,,,,,,KR_th,001,2025-03-10_20h56.36.940,MainFlow,2024.2.4,146.08094052312498,2025-03-10 20h57.11.127744 +0700,
1,55,0,word/wordth0551.png,image/False/imgf55.png,82,82,0,z,0.9215870000007271,None,0,82,82,82,268.4233115999996,,,,,,,269.923240600001,269.4239602000016,269.4274003000028,269.4274003000028,269.9179705000024,271.04706050000095,271.04706050000095,z,0.9215870000007271,None,269.923240600001,269.923240600001,,,,,,,,,KR_th,001,2025-03-10_20h56.36.940,MainFlow,2024.2.4,146.08094052312498,2025-03-10 20h57.11.127744 +0700,
1,26,1,word/wordth0261.png,image/True/img26.png,83,83,0,z,0.6590240000004997,None,0,83,83,83,271.97825190000003,,,,,,,273.47114820000206,272.9732552000023,272.9765504999996,272.9765504999996,273.4655340999998,274.609937600002,274.609937600002,z,0.6590240000004997,None,273.47114820000206,273.47114820000206,274.609937600002,,,,,,,,KR_th,001,2025-03-10_20h56.36.940,MainFlow,2024.2.4,146.08094052312498,2025-03-10 20h57.11.127744 +0700,
1,28,0,word/wordth0281.png,image/False/imgf28.png,84,84,0,x,0.7562457000021823,None,0,84,84,84,275.2762274000015,,,,,,,276.76901120000184,276.27400820000184,276.2768388000004,276.2768388000004,276.7634958000017,277.90756780000083,277.90756780000083,x,0.7562457000021823,None,276.76901120000184,276.76901120000184,277.90756780000083,,,,,,,,KR_th,001,2025-03-10_20h56.36.940,MainFlow,2024.2.4,146.08094052312498,2025-03-10 20h57.11.127744 +0700,
1,8,0,word/wordth0081.png,image/False/imgf08.png,85,85,0,x,0.6426394000009168,None,0,85,85,85,278.6713148000017,,,,,,,280.16434500000105,279.6708882000021,279.6744280000021,279.6744280000021,280.1587486000026,281.2807071999996,281.2807071999996,x,0.6426394000009168,None,280.16434500000105,280.16434500000105,281.2807071999996,,,,,,,,KR_th,001,2025-03-10_20h56.36.940,MainFlow,2024.2.4,146.08094052312498,2025-03-10 20h57.11.127744 +0700,
1,9,1,word/wordth0091.png,image/True/img09.png,86,86,0,z,0.5301787999997032,None,0,86,86,86,281.9346693000007,,,,,,,283.4277144000007,282.9305076000019,282.93398140000136,282.93398140000136,283.4217185000016,284.49962510000114,284.49962510000114,z,0.5301787999997032,None,283.4277144000007,283.4277144000007,284.49962510000114,,,,,,,,KR_th,001,2025-03-10_20h56.36.940,MainFlow,2024.2.4,146.08094052312498,2025-03-10 20h57.11.127744 +0700,
1,78,1,word/wordth0781.png,image/True/img78.png,87,87,0,z,0.3825746000002255,None,0,87,87,87,285.03818460000184,,,,,,,286.545071200002,286.05427540000164,286.0574161000004,286.0574161000004,286.5388916000011,287.6392209000005,287.6392209000005,z,0.3825746000002255,None,,,,,,,,,,,KR_th,001,2025-03-10_20h56.36.940,MainFlow,2024.2.4,146.08094052312498,2025-03-10 20h57.11.127744 +0700,
1,1,0,word/wordth0011.png,image/False/imgf01.png,88,88,0,x,0.6114194000001589,None,0,88,88,88,288.030846200003,,,,,,,289.52349660000255,289.02976820000185,289.0331617000011,289.0331617000011,289.51769140000033,290.63869420000265,290.63869420000265,x,0.6114194000001589,None,289.52349660000255,289.52349660000255,290.63869420000265,,,,,,,,KR_th,001,2025-03-10_20h56.36.940,MainFlow,2024.2.4,146.08094052312498,2025-03-10 20h57.11.127744 +0700,
1,71,1,word/wordth0711.png,image/True/img71.png,89,89,0,z,0.9088982000030228,None,0,89,89,89,291.25933129999976,,,,,,,292.7589665000014,292.2625794000014,292.26540260000183,292.26540260000183,292.75332440000057,293.91269730000204,293.91269730000204,z,0.9088982000030228,None,292.7589665000014,292.7589665000014,,,,,,,,,KR_th,001,2025-03-10_20h56.36.940,MainFlow,2024.2.4,146.08094052312498,2025-03-10 20h57.11.127744 +0700,
1,93,1,word/wordth0931.png,image/True/img93.png,90,90,0,z,0.4733406000013929,None,0,90,90,90,294.8279455000011,,,,,,,296.3207521000004,295.823587400002,295.827072600001,295.827072600001,296.3148392000003,297.4401171000027,297.4401171000027,z,0.4733406000013929,None,296.3207521000004,296.3207521000004,297.4401171000027,,,,,,,,KR_th,001,2025-03-10_20h56.36.940,MainFlow,2024.2.4,146.08094052312498,2025-03-10 20h57.11.127744 +0700,
1,78,0,word/wordth0781.png,image/False/imgf78.png,91,91,0,x,0.4356901999999536,None,0,91,91,91,297.9266463000022,,,,,,,299.4243650000026,298.9274989000005,298.93141789999936,298.93141789999936,299.41844219999984,300.5274293000002,300.5274293000002,x,0.4356901999999536,None,299.4243650000026,299.4243650000026,,,,,,,,,KR_th,001,2025-03-10_20h56.36.940,MainFlow,2024.2.4,146.08094052312498,2025-03-10 20h57.11.127744 +0700,
1,8,0,word/wordth0081.png,image/False/imgf08.png,92,92,0,x,0.49814799999876413,None,0,92,92,92,300.9725412000007,,,,,,,302.4586225000021,301.96269310000207,301.9657036999997,301.9657036999997,302.4525276000022,303.5517292000004,303.5517292000004,x,0.49814799999876413,None,302.4586225000021,302.4586225000021,303.5517292000004,,,,,,,,KR_th,001,2025-03-10_20h56.36.940,MainFlow,2024.2.4,146.08094052312498,2025-03-10 20h57.11.127744 +0700,
1,9,0,word/wordth0091.png,image/False/imgf09.png,93,93,0,x,0.5098633999987214,None,0,93,93,93,304.06232170000294,,,,,,,305.54813130000184,305.0547230000011,305.05757240000094,305.05757240000094,305.54229260000284,306.6497006999998,306.6497006999998,x,0.5098633999987214,None,305.54813130000184,305.54813130000184,306.6497006999998,,,,,,,,KR_th,001,2025-03-10_20h56.36.940,MainFlow,2024.2.4,146.08094052312498,2025-03-10 20h57.11.127744 +0700,
1,75,1,word/wordth0751.png,image/True/img75.png,94,94,0,z,0.5071760000028007,None,0,94,94,94,307.1658649000019,,,,,,,308.6724933000005,308.18290440000055,308.18612680000297,308.18612680000297,308.666026400002,309.7961384000009,309.7961384000009,z,0.5071760000028007,None,,,,,,,,,,,KR_th,001,2025-03-10_20h56.36.940,MainFlow,2024.2.4,146.08094052312498,2025-03-10 20h57.11.127744 +0700,
1,95,0,word/wordth0951.png,image/False/imgf95.png,95,95,0,x,0.5271328999988327,None,0,95,95,95,310.3110119000012,,,,,,,311.8041626000013,311.3094330000022,311.31287990000055,311.31287990000055,311.7990041000012,312.92570270000215,312.92570270000215,x,0.5271328999988327,None,311.8041626000013,311.8041626000013,312.92570270000215,,,,,,,,KR_th,001,2025-03-10_20h56.36.940,MainFlow,2024.2.4,146.08094052312498,2025-03-10 20h57.11.127744 +0700,
1,70,1,word/wordth0701.png,image/True/img70.png,96,96,0,z,0.5401002999969933,None,0,96,96,96,313.4632324000013,,,,,,,314.9631917000006,314.4657838000021,314.46863270000176,314.46863270000176,314.9570872000004,316.1131822999996,316.1131822999996,z,0.5401002999969933,None,314.9631917000006,314.9631917000006,,,,,,,,,KR_th,001,2025-03-10_20h56.36.940,MainFlow,2024.2.4,146.08094052312498,2025-03-10 20h57.11.127744 +0700,
1,94,0,word/wordth0941.png,image/False/imgf94.png,97,97,0,x,0.4081254999982775,None,0,97,97,97,316.66670350000277,,,,,,,318.16391920000024,317.66721060000054,317.6705271999999,317.6705271999999,318.15858880000087,319.3228162000014,319.3228162000014,x,0.4081254999982775,None,318.16391920000024,318.16391920000024,319.3228162000014,,,,,,,,KR_th,001,2025-03-10_20h56.36.940,MainFlow,2024.2.4,146.08094052312498,2025-03-10 20h57.11.127744 +0700,
1,9,0,word/wordth0091.png,image/False/imgf09.png,98,98,0,x,0.45217260000208626,None,0,98,98,98,319.73994870000024,,,,,,,321.2331522000022,320.73643110000194,320.7397627999999,320.7397627999999,321.2267615000019,322.3078196000024,322.3078196000024,x,0.45217260000208626,None,321.2331522000022,321.2331522000022,322.3078196000024,,,,,,,,KR_th,001,2025-03-10_20h56.36.940,MainFlow,2024.2.4,146.08094052312498,2025-03-10 20h57.11.127744 +0700,
1,18,0,word/wordth0181.png,image/False/imgf18.png,99,99,0,x,0.5707290999998804,None,0,99,99,99,322.76912770000126,,,,,,,324.27445480000097,323.77370510000037,323.7779088999996,323.7779088999996,324.26743089999945,325.3735869000011,325.3735869000011,x,0.5707290999998804,None,,,,,,,,,,,KR_th,001,2025-03-10_20h56.36.940,MainFlow,2024.2.4,146.08094052312498,2025-03-10 20h57.11.127744 +0700,
1,28,1,word/wordth0281.png,image/True/img28.png,100,100,0,z,0.2877480999995896,None,0,100,100,100,325.95392410000204,,,,,,,327.4468029000018,326.95404690000214,326.95756450000044,326.95756450000044,327.4409820000001,328.60368480000034,328.60368480000034,z,0.2877480999995896,None,327.4468029000018,327.4468029000018,328.60368480000034,,,,,,,,KR_th,001,2025-03-10_20h56.36.940,MainFlow,2024.2.4,146.08094052312498,2025-03-10 20h57.11.127744 +0700,
1,23,1,word/wordth0231.png,image/True/img23.png,101,101,0,z,0.4734576999981073,None,0,101,101,101,328.897706300002,,,,,,,330.39735010000004,329.8998642000006,329.9031993999997,329.9031993999997,330.39117970000007,331.5288717000003,331.5288717000003,z,0.4734576999981073,None,330.39735010000004,330.39735010000004,,,,,,,,,KR_th,001,2025-03-10_20h56.36.940,MainFlow,2024.2.4,146.08094052312498,2025-03-10 20h57.11.127744 +0700,
1,30,0,word/wordth0301.png,image/False/imgf30.png,102,102,0,x,0.5146434999987832,None,0,102,102,102,332.0082766000014,,,,,,,333.5010051999998,333.00830359999964,333.0118108000024,333.0118108000024,333.4951863999995,334.59128469999996,334.59128469999996,x,0.5146434999987832,None,333.5010051999998,333.5010051999998,334.59128469999996,,,,,,,,KR_th,001,2025-03-10_20h56.36.940,MainFlow,2024.2.4,146.08094052312498,2025-03-10 20h57.11.127744 +0700,
1,11,1,word/wordth0111.png,image/True/img11.png,103,103,0,z,0.3858981999983371,None,0,103,103,103,335.1147885999999,,,,,,,336.618484300001,336.1218848000026,336.12462550000055,336.12462550000055,336.61218940000253,337.77588130000004,337.77588130000004,z,0.3858981999983371,None,,,336.12462550000055,,,,,,,,KR_th,001,2025-03-10_20h56.36.940,MainFlow,2024.2.4,146.08094052312498,2025-03-10 20h57.11.127744 +0700,
1,75,0,word/wordth0751.png,image/False/imgf75.png,104,104,0,x,0.6666426999981923,None,0,104,104,104,338.17376259999946,,,,,,,339.66684990000067,339.1741371999997,339.1777782999998,339.1777782999998,339.66088630000013,340.80818630000067,340.80818630000067,x,0.6666426999981923,None,339.66684990000067,339.66684990000067,340.80818630000067,,,,,,,,KR_th,001,2025-03-10_20h56.36.940,MainFlow,2024.2.4,146.08094052312498,2025-03-10 20h57.11.127744 +0700,
1,6,0,word/wordth0061.png,image/False/imgf06.png,105,105,0,x,0.5743384999987029,None,0,105,105,105,341.486326000002,,,,,,,342.9854794000021,342.4927846000028,342.49567930000194,342.49567930000194,342.9802058999994,344.10494590000235,344.10494590000235,x,0.5743384999987029,None,342.9854794000021,342.9854794000021,344.10494590000235,,,,,,,,KR_th,001,2025-03-10_20h56.36.940,MainFlow,2024.2.4,146.08094052312498,2025-03-10 20h57.11.127744 +0700,
1,27,1,word/wordth0271.png,image/True/img27.png,106,106,0,z,0.6595383000021684,None,0,106,106,106,344.68647740000233,,,,,,,346.1861702000024,345.68783330000224,345.69152290000056,345.69152290000056,346.18028940000295,347.2909698000003,347.2909698000003,z,0.6595383000021684,None,346.1861702000024,346.1861702000024,,,,,,,,,KR_th,001,2025-03-10_20h56.36.940,MainFlow,2024.2.4,146.08094052312498,2025-03-10 20h57.11.127744 +0700,
1,1,1,word/wordth0011.png,image/True/img01.png,107,107,0,z,0.41904169999907026,None,0,107,107,107,347.9578008999997,,,,,,,349.4493258000002,348.9506884000002,348.95344470000055,348.95344470000055,349.4435996000029,350.5703063000001,350.5703063000001,z,0.41904169999907026,None,349.4493258000002,349.4493258000002,350.5703063000001,,,,,,,,KR_th,001,2025-03-10_20h56.36.940,MainFlow,2024.2.4,146.08094052312498,2025-03-10 20h57.11.127744 +0700,
1,44,0,word/wordth0441.png,image/False/imgf44.png,108,108,0,x,0.5379025000002002,None,0,108,108,108,350.99769670000023,,,,,,,352.5042813,352.0185177000021,352.0217608000021,352.0217608000021,352.49783150000076,353.6448109000012,353.6448109000012,x,0.5379025000002002,None,,,,,,,,,,,KR_th,001,2025-03-10_20h56.36.940,MainFlow,2024.2.4,146.08094052312498,2025-03-10 20h57.11.127744 +0700,
1,48,0,word/wordth0481.png,image/False/imgf48.png,109,109,0,x,0.45336560000214376,None,0,109,109,109,354.1916526999994,,,,,,,355.69149649999963,355.19360770000276,355.1975396000016,355.1975396000016,355.6862706000029,356.80717450000157,356.80717450000157,x,0.45336560000214376,None,355.69149649999963,355.69149649999963,,,,,,,,,KR_th,001,2025-03-10_20h56.36.940,MainFlow,2024.2.4,146.08094052312498,2025-03-10 20h57.11.127744 +0700,
1,60,0,word/wordth0601.png,image/False/imgf60.png,110,110,0,x,0.5382544999993115,None,0,110,110,110,357.26722770000197,,,,,,,358.76707929999975,358.26852450000297,358.272073600001,358.272073600001,358.76141740000094,359.8699142000005,359.8699142000005,x,0.5382544999993115,None,358.76707929999975,358.76707929999975,,,,,,,,,KR_th,001,2025-03-10_20h56.36.940,MainFlow,2024.2.4,146.08094052312498,2025-03-10 20h57.11.127744 +0700,
1,96,1,word/wordth0961.png,image/True/img96.png,111,111,0,z,0.5307022999986657,None,0,111,111,111,360.4193544000009,,,,,,,361.9262589000027,361.43635340000037,361.4397847,361.4397847,361.91967490000025,363.0568966000028,363.0568966000028,z,0.5307022999986657,None,,,,,,,,,,,KR_th,001,2025-03-10_20h56.36.940,MainFlow,2024.2.4,146.08094052312498,2025-03-10 20h57.11.127744 +0700,
1,79,0,word/wordth0791.png,image/False/imgf79.png,112,112,0,x,0.5933468000002904,None,0,112,112,112,363.5994325000029,,,,,,,365.0922143000025,364.59622140000283,364.5996462000003,364.5996462000003,365.08759620000274,366.22073269999964,366.22073269999964,x,0.5933468000002904,None,365.0922143000025,365.0922143000025,366.22073269999964,,,,,,,,KR_th,001,2025-03-10_20h56.36.940,MainFlow,2024.2.4,146.08094052312498,2025-03-10 20h57.11.127744 +0700,
1,7,0,word/wordth0071.png,image/False/imgf07.png,113,113,0,x,0.5166270999980043,None,0,113,113,113,366.8228048000019,,,,,,,368.31366700000217,367.81571240000267,367.8192498000026,367.8192498000026,368.3078693000025,369.44691960000273,369.44691960000273,x,0.5166270999980043,None,368.31366700000217,368.31366700000217,369.44691960000273,,,,,,,,KR_th,001,2025-03-10_20h56.36.940,MainFlow,2024.2.4,146.08094052312498,2025-03-10 20h57.11.127744 +0700,
1,36,0,word/wordth0361.png,image/False/imgf36.png,114,114,0,x,0.5832469999986643,None,0,114,114,114,369.9731214000021,,,,,,,371.4730230000023,370.97382460000154,370.9773657000005,370.9773657000005,371.4674171000006,372.6016791000002,372.6016791000002,x,0.5832469999986643,None,371.4730230000023,371.4730230000023,,,,,,,,,KR_th,001,2025-03-10_20h56.36.940,MainFlow,2024.2.4,146.08094052312498,2025-03-10 20h57.11.127744 +0700,
1,71,0,word/wordth0711.png,image/False/imgf71.png,115,115,0,x,0.5238706999989517,None,0,115,115,115,373.19471429999976,,,,,,,374.6875394000017,374.19143299999996,374.19483369999944,374.19483369999944,374.6818114000016,375.8436661000014,375.8436661000014,x,0.5238706999989517,None,374.6875394000017,374.6875394000017,375.8436661000014,,,,,,,,KR_th,001,2025-03-10_20h56.36.940,MainFlow,2024.2.4,146.08094052312498,2025-03-10 20h57.11.127744 +0700,
1,20,0,word/wordth0201.png,image/False/imgf20.png,116,116,0,x,0.5401175000006333,None,0,116,116,116,376.37459239999953,,,,,,,377.8743228000021,377.378851700003,377.3826183000019,377.3826183000019,377.86885149999944,379.0148709999994,379.0148709999994,x,0.5401175000006333,None,377.8743228000021,377.8743228000021,,,,,,,,,KR_th,001,2025-03-10_20h56.36.940,MainFlow,2024.2.4,146.08094052312498,2025-03-10 20h57.11.127744 +0700,
1,87,1,word/wordth0871.png,image/True/img87.png,117,117,0,z,0.39845190000050934,None,0,117,117,117,379.5630071000014,,,,,,,381.05441970000174,380.55921540000054,380.5622990000011,380.5622990000011,381.0494550000003,382.2012113000019,382.2012113000019,z,0.39845190000050934,None,381.05441970000174,381.05441970000174,382.2012113000019,,,,,,,,KR_th,001,2025-03-10_20h56.36.940,MainFlow,2024.2.4,146.08094052312498,2025-03-10 20h57.11.127744 +0700,
1,50,0,word/wordth0501.png,image/False/imgf50.png,118,118,0,x,0.7121203999995487,None,0,118,118,118,382.6095370000003,,,,,,,384.10936930000025,383.6160387000018,383.6189970000014,383.6189970000014,384.1040909000003,385.2357422000023,385.2357422000023,x,0.7121203999995487,None,384.10936930000025,384.10936930000025,,,,,,,,,KR_th,001,2025-03-10_20h56.36.940,MainFlow,2024.2.4,146.08094052312498,2025-03-10 20h57.11.127744 +0700,
1,18,1,word/wordth0181.png,image/True/img18.png,119,119,0,z,0.3649580000019341,None,0,119,119,119,385.9561176999996,,,,,,,387.456051000001,386.9604461000017,386.9646300000022,386.9646300000022,387.4507956000016,388.5499367000011,388.5499367000011,z,0.3649580000019341,None,387.456051000001,387.456051000001,,,,,,,,,KR_th,001,2025-03-10_20h56.36.940,MainFlow,2024.2.4,146.08094052312498,2025-03-10 20h57.11.127744 +0700,
1,71,0,word/wordth0711.png,image/False/imgf71.png,120,120,0,z,0.4196437999999034,None,0,120,120,120,388.9208219000029,,,,,,,390.413768800001,389.9173415000005,389.9207275000008,389.9207275000008,390.4084141000021,391.5640908999994,391.5640908999994,z,0.4196437999999034,None,390.413768800001,390.413768800001,391.5640908999994,,,,,,,,KR_th,001,2025-03-10_20h56.36.940,MainFlow,2024.2.4,146.08094052312498,2025-03-10 20h57.11.127744 +0700,
1,46,1,word/wordth0461.png,image/True/img46.png,121,121,0,z,0.7027090999981738,None,0,121,121,121,391.99036590000105,,,,,,,393.4755062000004,392.97693939999954,392.97976140000173,392.97976140000173,393.46990039999946,394.61349580000024,394.61349580000024,z,0.7027090999981738,None,393.4755062000004,393.4755062000004,394.61349580000024,,,,,,,,KR_th,001,2025-03-10_20h56.36.940,MainFlow,2024.2.4,146.08094052312498,2025-03-10 20h57.11.127744 +0700,
1,10,1,word/wordth0101.png,image/True/img10.png,122,122,0,z,0.37904520000302,None,0,122,122,122,395.32425240000157,,,,,,,396.8220957000012,396.3290785999998,396.33249120000255,396.33249120000255,396.81691870000213,397.9306628000013,397.9306628000013,z,0.37904520000302,None,396.8220957000012,396.8220957000012,397.9306628000013,,,,,,,,KR_th,001,2025-03-10_20h56.36.940,MainFlow,2024.2.4,146.08094052312498,2025-03-10 20h57.11.127744 +0700,
1,16,0,word/wordth0161.png,image/False/imgf16.png,123,123,0,x,0.42765540000254987,None,0,123,123,123,398.32177260000026,,,,,,,399.8217841000005,399.3233930000024,399.32701740000266,399.32701740000266,399.816504800001,400.981778100002,400.981778100002,x,0.42765540000254987,None,399.8217841000005,399.8217841000005,,,,,,,,,KR_th,001,2025-03-10_20h56.36.940,MainFlow,2024.2.4,146.08094052312498,2025-03-10 20h57.11.127744 +0700,
1,15,0,word/wordth0151.png,image/False/imgf15.png,124,124,0,x,0.4828474999994796,None,0,124,124,124,401.4184426000029,,,,,,,402.91807300000073,402.4190481000005,402.4224549999999,402.4224549999999,402.91197490000195,404.04329450000296,404.04329450000296,x,0.4828474999994796,None,402.91807300000073,402.91807300000073,,,,,,,,,KR_th,001,2025-03-10_20h56.36.940,MainFlow,2024.2.4,146.08094052312498,2025-03-10 20h57.11.127744 +0700,
1,59,0,word/wordth0591.png,image/False/imgf59.png,125,125,0,x,0.44873700000243844,None,0,125,125,125,404.5358034000019,,,,,,,406.0287294000009,405.53529290000006,405.53868259999945,405.53868259999945,406.0240005000014,407.109217600002,407.109217600002,x,0.44873700000243844,None,406.0287294000009,406.0287294000009,407.109217600002,,,,,,,,KR_th,001,2025-03-10_20h56.36.940,MainFlow,2024.2.4,146.08094052312498,2025-03-10 20h57.11.127744 +0700,
1,11,0,word/wordth0111.png,image/False/imgf11.png,126,126,0,x,0.6738278999982867,None,0,126,126,126,407.57011000000057,,,,,,,409.0627450000029,408.56668450000143,408.5701418000026,408.5701418000026,409.05719760000284,410.2202173000005,410.2202173000005,x,0.6738278999982867,None,409.0627450000029,409.0627450000029,410.2202173000005,,,,,,,,KR_th,001,2025-03-10_20h56.36.940,MainFlow,2024.2.4,146.08094052312498,2025-03-10 20h57.11.127744 +0700,
1,75,1,word/wordth0751.png,image/True/img75.png,127,127,0,z,0.35989150000023074,None,0,127,127,127,410.9027072000026,,,,,,,412.3955065000009,411.897641800002,411.9011673999994,411.9011673999994,412.3904612000006,413.5132319000004,413.5132319000004,z,0.35989150000023074,None,412.3955065000009,412.3955065000009,413.5132319000004,,,,,,,,KR_th,001,2025-03-10_20h56.36.940,MainFlow,2024.2.4,146.08094052312498,2025-03-10 20h57.11.127744 +0700,
1,33,1,word/wordth0331.png,image/True/img33.png,128,128,0,z,0.8518456000019796,None,0,128,128,128,413.8811760999997,,,,,,,415.3879775000023,414.8999507000008,414.9032707000006,414.9032707000006,415.3817248000014,416.49798120000196,416.49798120000196,z,0.8518456000019796,None,,,,,,,,,,,KR_th,001,2025-03-10_20h56.36.940,MainFlow,2024.2.4,146.08094052312498,2025-03-10 20h57.11.127744 +0700,
1,66,0,word/wordth0661.png,image/False/imgf66.png,129,129,0,x,0.8339240999994217,None,0,129,129,129,417.35975529999996,,,,,,,418.84559060000174,418.35062950000065,418.3541851000009,418.3541851000009,418.84004920000007,419.97776200000226,419.97776200000226,x,0.8339240999994217,None,418.84559060000174,418.84559060000174,419.97776200000226,,,,,,,,KR_th,001,2025-03-10_20h56.36.940,MainFlow,2024.2.4,146.08094052312498,2025-03-10 20h57.11.127744 +0700,
1,38,1,word/wordth0381.png,image/True/img38.png,130,130,0,z,0.45498030000089784,None,0,130,130,130,420.8243265000019,,,,,,,422.33106060000136,421.8493240000025,421.85270220000166,421.85270220000166,422.32446040000286,423.4623728000006,423.4623728000006,z,0.45498030000089784,None,,,,,,,,,,,KR_th,001,2025-03-10_20h56.36.940,MainFlow,2024.2.4,146.08094052312498,2025-03-10 20h57.11.127744 +0700,
1,38,1,word/wordth0381.png,image/True/img38.png,131,131,0,z,0.5336130999967281,None,0,131,131,131,423.9278766999996,,,,,,,425.4206763000002,424.9241290000027,424.92751169999974,424.92751169999974,425.4150707000008,426.51526750000266,426.51526750000266,z,0.5336130999967281,None,425.4206763000002,425.4206763000002,426.51526750000266,,,,,,,,KR_th,001,2025-03-10_20h56.36.940,MainFlow,2024.2.4,146.08094052312498,2025-03-10 20h57.11.127744 +0700,
1,63,1,word/wordth0631.png,image/True/img63.png,132,132,0,z,0.5061931999989611,None,0,132,132,132,427.0593289999997,,,,,,,428.5590254000017,428.05962010000076,428.06326430000263,428.06326430000263,428.5537153000005,429.66832440000144,429.66832440000144,z,0.5061931999989611,None,428.5590254000017,428.5590254000017,,,,,,,,,KR_th,001,2025-03-10_20h56.36.940,MainFlow,2024.2.4,146.08094052312498,2025-03-10 20h57.11.127744 +0700,
1,33,0,word/wordth0331.png,image/False/imgf33.png,133,133,0,x,0.47565409999879193,None,0,133,133,133,430.18363490000047,,,,,,,431.6766886000005,431.1806245000007,431.1841534000014,431.1841534000014,431.67153170000165,432.8265209000019,432.8265209000019,x,0.47565409999879193,None,431.6766886000005,431.6766886000005,432.8265209000019,,,,,,,,KR_th,001,2025-03-10_20h56.36.940,MainFlow,2024.2.4,146.08094052312498,2025-03-10 20h57.11.127744 +0700,
1,52,1,word/wordth0521.png,image/True/img52.png,134,134,0,z,0.4566581999970367,None,0,134,134,134,433.31489689999944,,,,,,,434.8079515999998,434.3141360000009,434.31753430000026,434.31753430000026,434.8031183000021,435.95439740000074,435.95439740000074,z,0.4566581999970367,None,434.8079515999998,434.8079515999998,435.95439740000074,,,,,,,,KR_th,001,2025-03-10_20h56.36.940,MainFlow,2024.2.4,146.08094052312498,2025-03-10 20h57.11.127744 +0700,
1,11,0,word/wordth0111.png,image/False/imgf11.png,135,135,0,x,0.4897247000008065,None,0,135,135,135,436.41851300000053,,,,,,,437.91141920000155,437.41581439999936,437.41918559999976,437.41918559999976,437.90614650000134,439.0376725000024,439.0376725000024,x,0.4897247000008065,None,437.91141920000155,437.91141920000155,439.0376725000024,,,,,,,,KR_th,001,2025-03-10_20h56.36.940,MainFlow,2024.2.4,146.08094052312498,2025-03-10 20h57.11.127744 +0700,
1,1,0,word/wordth0011.png,image/False/imgf01.png,136,136,0,x,0.4664030999992974,None,0,136,136,136,439.53622820000237,,,,,,,441.0289016000024,440.5349511000022,440.5384312000024,440.5384312000024,441.0238210999996,442.1358003999994,442.1358003999994,x,0.4664030999992974,None,441.0289016000024,441.0289016000024,442.1358003999994,,,,,,,,KR_th,001,2025-03-10_20h56.36.940,MainFlow,2024.2.4,146.08094052312498,2025-03-10 20h57.11.127744 +0700,
1,96,0,word/wordth0961.png,image/False/imgf96.png,137,137,0,x,0.5393962000016472,None,0,137,137,137,442.6118094000012,,,,,,,444.11149690000093,443.61659990000044,443.6204859999998,443.6204859999998,444.10590760000196,445.2813759000019,445.2813759000019,x,0.5393962000016472,None,444.11149690000093,444.11149690000093,,,,,,,,,KR_th,001,2025-03-10_20h56.36.940,MainFlow,2024.2.4,146.08094052312498,2025-03-10 20h57.11.127744 +0700,
1,57,1,word/wordth0571.png,image/True/img57.png,138,138,0,z,0.6367501999993692,None,0,138,138,138,445.8268625000019,,,,,,,447.3264076000014,446.8294234999994,446.83231530000194,446.83231530000194,447.3210754000029,448.4620627000004,448.4620627000004,z,0.6367501999993692,None,447.3264076000014,447.3264076000014,,,,,,,,,KR_th,001,2025-03-10_20h56.36.940,MainFlow,2024.2.4,146.08094052312498,2025-03-10 20h57.11.127744 +0700,
1,30,1,word/wordth0301.png,image/True/img30.png,139,139,0,z,0.5671984000000521,None,0,139,139,139,449.11062390000006,,,,,,,450.6034342000021,450.10607150000214,450.1094438,450.1094438,450.598103100001,451.7044575,451.7044575,z,0.5671984000000521,None,450.6034342000021,450.6034342000021,451.7044575,,,,,,,,KR_th,001,2025-03-10_20h56.36.940,MainFlow,2024.2.4,146.08094052312498,2025-03-10 20h57.11.127744 +0700,
1,41,1,word/wordth0411.png,image/True/img41.png,140,140,0,z,0.5380411000005552,None,0,140,140,140,452.28351290000137,,,,,,,453.77623239999957,453.28357790000155,453.2870370000019,453.2870370000019,453.77037680000285,454.90380300000106,454.90380300000106,z,0.5380411000005552,None,453.77623239999957,453.77623239999957,454.90380300000106,,,,,,,,KR_th,001,2025-03-10_20h56.36.940,MainFlow,2024.2.4,146.08094052312498,2025-03-10 20h57.11.127744 +0700,
1,50,1,word/wordth0501.png,image/True/img50.png,141,141,0,z,0.5362994999995863,None,0,141,141,141,455.44952790000025,,,,,,,456.9424319000027,456.4463528000015,456.44977049999943,456.44977049999943,456.9371644000021,458.067124600002,458.067124600002,z,0.5362994999995863,None,456.9424319000027,456.9424319000027,458.067124600002,,,,,,,,KR_th,001,2025-03-10_20h56.36.940,MainFlow,2024.2.4,146.08094052312498,2025-03-10 20h57.11.127744 +0700,
1,3,0,word/wordth0031.png,image/False/imgf03.png,142,142,0,x,0.5318013999967661,None,0,142,142,142,458.61562609999964,,,,,,,460.1014677000021,459.6026708999998,459.6056788999995,459.6056788999995,460.0962268000003,461.21315909999976,461.21315909999976,x,0.5318013999967661,None,460.1014677000021,460.1014677000021,461.21315909999976,,,,,,,,KR_th,001,2025-03-10_20h56.36.940,MainFlow,2024.2.4,146.08094052312498,2025-03-10 20h57.11.127744 +0700,
1,78,1,word/wordth0781.png,image/True/img78.png,143,143,0,z,0.36506960000042454,None,0,143,143,143,461.7538039000028,,,,,,,463.2469560999998,462.7480977000014,462.7515179000002,462.7515179000002,463.24109640000097,464.3549516000021,464.3549516000021,z,0.36506960000042454,None,463.2469560999998,463.2469560999998,464.3549516000021,,,,,,,,KR_th,001,2025-03-10_20h56.36.940,MainFlow,2024.2.4,146.08094052312498,2025-03-10 20h57.11.127744 +0700,
1,76,0,word/wordth0761.png,image/False/imgf76.png,144,144,0,x,0.7869734000014432,None,0,144,144,144,464.7325729000004,,,,,,,466.23231730000043,465.7367075000002,465.7403267000009,465.7403267000009,466.2259604999999,467.38220770000044,467.38220770000044,x,0.7869734000014432,None,466.23231730000043,466.23231730000043,,,,,,,,,KR_th,001,2025-03-10_20h56.36.940,MainFlow,2024.2.4,146.08094052312498,2025-03-10 20h57.11.127744 +0700,
1,6,1,word/wordth0061.png,image/True/img06.png,145,145,0,z,0.4421961000007286,None,0,145,145,145,468.17641880000156,,,,,,,469.6689340000012,469.1752507000019,469.17943730000115,469.17943730000115,469.6630170999997,470.7843943000007,470.7843943000007,z,0.4421961000007286,None,469.6689340000012,469.6689340000012,470.7843943000007,,,,,,,,KR_th,001,2025-03-10_20h56.36.940,MainFlow,2024.2.4,146.08094052312498,2025-03-10 20h57.11.127744 +0700,
1,31,0,word/wordth0311.png,image/False/imgf31.png,146,146,0,x,0.6831788000017696,None,0,146,146,146,471.2393316000016,,,,,,,472.74487430000227,472.25030139999944,472.25438740000027,472.25438740000027,472.7387273000022,473.8346906000006,473.8346906000006,x,0.6831788000017696,None,,,472.25438740000027,,,,,,,,KR_th,001,2025-03-10_20h56.36.940,MainFlow,2024.2.4,146.08094052312498,2025-03-10 20h57.11.127744 +0700,
1,22,0,word/wordth0221.png,image/False/imgf22.png,147,147,0,x,0.5125030000017432,None,0,147,147,147,474.52910930000144,,,,,,,476.0222563000025,475.5249896999994,475.5284778999994,475.5284778999994,476.0163539000023,477.14900280000074,477.14900280000074,x,0.5125030000017432,None,476.0222563000025,476.0222563000025,477.14900280000074,,,,,,,,KR_th,001,2025-03-10_20h56.36.940,MainFlow,2024.2.4,146.08094052312498,2025-03-10 20h57.11.127744 +0700,
1,28,0,word/wordth0281.png,image/False/imgf28.png,148,148,0,x,0.606462100000499,None,0,148,148,148,477.6681525000022,,,,,,,479.1602930000008,478.66578350000054,478.6691759999994,478.6691759999994,479.1544743000013,480.273393200001,480.273393200001,x,0.606462100000499,None,479.1602930000008,479.1602930000008,480.273393200001,,,,,,,,KR_th,001,2025-03-10_20h56.36.940,MainFlow,2024.2.4,146.08094052312498,2025-03-10 20h57.11.127744 +0700,
1,57,0,word/wordth0571.png,image/False/imgf57.png,149,149,0,x,0.4303768999998283,None,0,149,149,149,480.8925651000027,,,,,,,482.37504750000153,481.88024510000105,481.88351330000296,481.88351330000296,482.36966609999945,483.5192696000013,483.5192696000013,x,0.4303768999998283,None,482.37504750000153,482.37504750000153,483.5192696000013,,,,,,,,KR_th,001,2025-03-10_20h56.36.940,MainFlow,2024.2.4,146.08094052312498,2025-03-10 20h57.11.127744 +0700,
1,7,0,word/wordth0071.png,image/False/imgf07.png,150,150,0,x,0.49031939999986207,None,0,150,150,150,483.9580922999994,,,,,,,485.45078750000175,484.9567270000007,484.9604130000007,484.9604130000007,485.4448360999995,486.5679624000004,486.5679624000004,x,0.49031939999986207,None,485.45078750000175,485.45078750000175,486.5679624000004,,,,,,,,KR_th,001,2025-03-10_20h56.36.940,MainFlow,2024.2.4,146.08094052312498,2025-03-10 20h57.11.127744 +0700,
1,56,1,word/wordth0561.png,image/True/img56.png,151,151,0,z,0.5793432999998913,None,0,151,151,151,487.06843850000223,,,,,,,488.5681447999996,488.0724160999998,488.07631240000046,488.07631240000046,488.56222920000073,489.6783226000007,489.6783226000007,z,0.5793432999998913,None,488.5681447999996,488.5681447999996,,,,,,,,,KR_th,001,2025-03-10_20h56.36.940,MainFlow,2024.2.4,146.08094052312498,2025-03-10 20h57.11.127744 +0700,
1,6,0,word/wordth0061.png,image/False/imgf06.png,152,152,0,x,0.48908709999886923,None,0,152,152,152,490.2700681000024,,,,,,,491.76222770000095,491.26452920000156,491.26797250000163,491.26797250000163,491.75703220000287,492.85646370000177,492.85646370000177,x,0.48908709999886923,None,491.76222770000095,491.76222770000095,492.85646370000177,,,,,,,,KR_th,001,2025-03-10_20h56.36.940,MainFlow,2024.2.4,146.08094052312498,2025-03-10 20h57.11.127744 +0700,
1,36,0,word/wordth0361.png,image/False/imgf36.png,153,153,0,x,0.5422656999980973,None,0,153,153,153,493.3543580000005,,,,,,,494.8585192000028,494.36501000000135,494.3687548000016,494.3687548000016,494.8521808000005,495.96466520000104,495.96466520000104,x,0.5422656999980973,None,,,494.3687548000016,,,,,,,,KR_th,001,2025-03-10_20h56.36.940,MainFlow,2024.2.4,146.08094052312498,2025-03-10 20h57.11.127744 +0700,
1,79,1,word/wordth0791.png,image/True/img79.png,154,154,0,z,0.5351436999990256,None,0,154,154,154,496.5179139000029,,,,,,,498.0106932000017,497.5130033000023,497.51640110000153,497.51640110000153,498.0047584000022,499.13933929999985,499.13933929999985,z,0.5351436999990256,None,498.0106932000017,498.0106932000017,499.13933929999985,,,,,,,,KR_th,001,2025-03-10_20h56.36.940,MainFlow,2024.2.4,146.08094052312498,2025-03-10 20h57.11.127744 +0700,
1,52,0,word/wordth0521.png,image/False/imgf52.png,155,155,0,x,0.5257420000016282,None,0,155,155,155,499.6841134000024,,,,,,,501.17660389999946,500.6813347999996,500.68488179999986,500.68488179999986,501.1704795000005,502.27235190000283,502.27235190000283,x,0.5257420000016282,None,501.17660389999946,501.17660389999946,502.27235190000283,,,,,,,,KR_th,001,2025-03-10_20h56.36.940,MainFlow,2024.2.4,146.08094052312498,2025-03-10 20h57.11.127744 +0700,
1,18,0,word/wordth0181.png,image/False/imgf18.png,156,156,0,x,0.515280999999959,None,0,156,156,156,502.8083697000002,,,,,,,504.30112780000127,503.80372720000014,503.80717020000156,503.80717020000156,504.29515470000115,505.4037344000026,505.4037344000026,x,0.515280999999959,None,504.30112780000127,504.30112780000127,505.4037344000026,,,,,,,,KR_th,001,2025-03-10_20h56.36.940,MainFlow,2024.2.4,146.08094052312498,2025-03-10 20h57.11.127744 +0700,
1,23,1,word/wordth0231.png,image/True/img23.png,157,157,0,z,0.5928357000011601,None,0,157,157,157,505.92585130000225,,,,,,,507.41874160000225,506.92483540000103,506.9282830000011,506.9282830000011,507.4128868000007,508.53542690000177,508.53542690000177,z,0.5928357000011601,None,507.41874160000225,507.41874160000225,508.53542690000177,,,,,,,,KR_th,001,2025-03-10_20h56.36.940,MainFlow,2024.2.4,146.08094052312498,2025-03-10 20h57.11.127744 +0700,
1,61,1,word/wordth0611.png,image/True/img61.png,158,158,0,z,0.4853235999980825,None,0,158,158,158,509.14050549999956,,,,,,,510.64021590000266,510.1433165000017,510.1468223000011,510.1468223000011,510.63413969999965,511.7526386999998,511.7526386999998,z,0.4853235999980825,None,510.64021590000266,510.64021590000266,,,,,,,,,KR_th,001,2025-03-10_20h56.36.940,MainFlow,2024.2.4,146.08094052312498,2025-03-10 20h57.11.127744 +0700,
1,44,1,word/wordth0441.png,image/True/img44.png,159,159,0,z,0.546656400001666,None,0,159,159,159,512.2466572000012,,,,,,,513.7366562999996,513.2385952000004,513.2413952000024,513.2413952000024,513.7305292000019,514.8707570000006,514.8707570000006,z,0.546656400001666,None,513.7366562999996,513.7366562999996,514.8707570000006,,,,,,,,KR_th,001,2025-03-10_20h56.36.940,MainFlow,2024.2.4,146.08094052312498,2025-03-10 20h57.11.127744 +0700,
1,10,1,word/wordth0101.png,image/True/img10.png,160,160,0,z,0.5010610000026645,None,0,160,160,160,515.4240879000026,,,,,,,516.9167761999997,516.4212987000028,516.424702100001,516.424702100001,516.91129,518.0090187000023,518.0090187000023,z,0.5010610000026645,None,516.9167761999997,516.9167761999997,518.0090187000023,,,,,,,,KR_th,001,2025-03-10_20h56.36.940,MainFlow,2024.2.4,146.08094052312498,2025-03-10 20h57.11.127744 +0700,
1,31,1,word/wordth0311.png,image/True/img31.png,161,161,0,z,0.37709479999830364,None,0,161,161,161,518.520672300001,,,,,,,520.0134851000003,519.5169449000023,519.5206792999998,519.5206792999998,520.0076356999998,521.1232477000012,521.1232477000012,z,0.37709479999830364,None,520.0134851000003,520.0134851000003,521.1232477000012,,,,,,,,KR_th,001,2025-03-10_20h56.36.940,MainFlow,2024.2.4,146.08094052312498,2025-03-10 20h57.11.127744 +0700,
1,14,0,word/wordth0141.png,image/False/imgf14.png,162,162,0,x,1.0008344000016223,None,0,162,162,162,521.5068758000016,,,,,,,522.9989865000025,522.5048768000015,522.5082882999995,522.5082882999995,522.9931453999998,524.1136631000008,524.1136631000008,x,1.0008344000016223,None,522.9989865000025,522.9989865000025,524.1136631000008,,,,,,,,KR_th,001,2025-03-10_20h56.36.940,MainFlow,2024.2.4,146.08094052312498,2025-03-10 20h57.11.127744 +0700,
1,15,0,word/wordth0151.png,image/False/imgf15.png,163,163,0,x,0.8854591000017535,None,0,163,163,163,525.1235631000018,,,,,,,526.6094866000021,526.1138444999997,526.1166282000013,526.1166282000013,526.6041895000017,527.7126530999994,527.7126530999994,x,0.8854591000017535,None,526.6094866000021,526.6094866000021,527.7126530999994,,,,,,,,KR_th,001,2025-03-10_20h56.36.940,MainFlow,2024.2.4,146.08094052312498,2025-03-10 20h57.11.127744 +0700,
1,51,1,word/wordth0511.png,image/True/img51.png,164,164,0,z,0.6520945000011125,None,0,164,164,164,528.6089226000004,,,,,,,530.101703100001,529.6038800999995,529.6071355000022,529.6071355000022,530.095847200002,531.2671614000028,531.2671614000028,z,0.6520945000011125,None,530.101703100001,530.101703100001,531.2671614000028,,,,,,,,KR_th,001,2025-03-10_20h56.36.940,MainFlow,2024.2.4,146.08094052312498,2025-03-10 20h57.11.127744 +0700,
1,82,1,word/wordth0821.png,image/True/img82.png,165,165,0,z,0.6056815999982064,None,0,165,165,165,531.9278765000017,,,,,,,533.4274151000027,532.9280136000016,532.9316749000027,532.9316749000027,533.4216569000018,534.4980276999995,534.4980276999995,z,0.6056815999982064,None,533.4274151000027,533.4274151000027,,,,,,,,,KR_th,001,2025-03-10_20h56.36.940,MainFlow,2024.2.4,146.08094052312498,2025-03-10 20h57.11.127744 +0700,
1,27,0,word/wordth0271.png,image/False/imgf27.png,166,166,0,x,0.8943914999981644,None,0,166,166,166,535.114792700002,,,,,,,536.6073410999998,536.1112212000007,536.1147431000027,536.1147431000027,536.6015289999996,537.7108896999998,537.7108896999998,x,0.8943914999981644,None,536.6073410999998,536.6073410999998,537.7108896999998,,,,,,,,KR_th,001,2025-03-10_20h56.36.940,MainFlow,2024.2.4,146.08094052312498,2025-03-10 20h57.11.127744 +0700,
1,78,0,word/wordth0781.png,image/False/imgf78.png,167,167,0,x,1.0913766000012401,None,0,167,167,167,538.613831900002,,,,,,,540.1137620000009,539.6174973000016,539.6212759000009,539.6212759000009,540.1084206000014,541.2051757000008,541.2051757000008,x,1.0913766000012401,None,540.1137620000009,540.1137620000009,,,,,,,,,KR_th,001,2025-03-10_20h56.36.940,MainFlow,2024.2.4,146.08094052312498,2025-03-10 20h57.11.127744 +0700,
1,89,1,word/wordth0891.png,image/True/img89.png,168,168,0,z,1.034351099999185,None,0,168,168,168,542.3089136000017,,,,,,,543.7936969000002,543.2990621000026,543.3020727000003,543.3020727000003,543.7883079000021,544.9194650000027,544.9194650000027,z,1.034351099999185,None,543.7936969000002,543.7936969000002,544.9194650000027,,,,,,,,KR_th,001,2025-03-10_20h56.36.940,MainFlow,2024.2.4,146.08094052312498,2025-03-10 20h57.11.127744 +0700,
1,76,1,word/wordth0761.png,image/True/img76.png,169,169,0,z,0.561896399998659,None,0,169,169,169,545.9599693000018,,,,,,,547.4457989000002,546.9522060000018,546.9554564999999,546.9554564999999,547.440479500001,548.5526739000015,548.5526739000015,z,0.561896399998659,None,547.4457989000002,547.4457989000002,548.5526739000015,,,,,,,,KR_th,001,2025-03-10_20h56.36.940,MainFlow,2024.2.4,146.08094052312498,2025-03-10 20h57.11.127744 +0700,
1,17,0,word/wordth0171.png,image/False/imgf17.png,170,170,0,z,0.7509700999980851,None,0,170,170,170,549.1257360000018,,,,,,,550.6184558999994,550.1211417000013,550.124591900003,550.124591900003,550.6125904,551.7693347000022,551.7693347000022,z,0.7509700999980851,None,550.6184558999994,550.6184558999994,551.7693347000022,,,,,,,,KR_th,001,2025-03-10_20h56.36.940,MainFlow,2024.2.4,146.08094052312498,2025-03-10 20h57.11.127744 +0700,
1,95,1,word/wordth0951.png,image/True/img95.png,171,171,0,z,0.32486310000240337,None,0,171,171,171,552.5278238000028,,,,,,,554.0275758000025,553.5285488000009,553.5319775000025,553.5319775000025,554.0216170000022,555.1624445000016,555.1624445000016,z,0.32486310000240337,None,554.0275758000025,554.0275758000025,,,,,,,,,KR_th,001,2025-03-10_20h56.36.940,MainFlow,2024.2.4,146.08094052312498,2025-03-10 20h57.11.127744 +0700,
1,61,0,word/wordth0611.png,image/False/imgf61.png,172,172,0,x,0.538044799999625,None,0,172,172,172,555.4995563000011,,,,,,,556.999230100002,556.5059321000008,556.5096649000006,556.5096649000006,556.9932370000024,558.1241560000017,558.1241560000017,x,0.538044799999625,None,556.999230100002,556.999230100002,,,,,,,,,KR_th,001,2025-03-10_20h56.36.940,MainFlow,2024.2.4,146.08094052312498,2025-03-10 20h57.11.127744 +0700,
1,82,1,word/wordth0821.png,image/True/img82.png,173,173,0,z,0.5773239000009198,None,0,173,173,173,558.6724711999996,,,,,,,560.1723654000016,559.6738368000006,559.6774645000005,559.6774645000005,560.1668621999997,561.2428252999998,561.2428252999998,z,0.5773239000009198,None,560.1723654000016,560.1723654000016,,,,,,,,,KR_th,001,2025-03-10_20h56.36.940,MainFlow,2024.2.4,146.08094052312498,2025-03-10 20h57.11.127744 +0700,
1,14,1,word/wordth0141.png,image/True/img14.png,174,174,0,z,0.4885476999988896,None,0,174,174,174,561.8334144,,,,,,,563.3315736000004,562.8356047000016,562.8390765000004,562.8390765000004,563.3261947999999,564.4498233000013,564.4498233000013,z,0.4885476999988896,None,563.3315736000004,563.3315736000004,564.4498233000013,,,,,,,,KR_th,001,2025-03-10_20h56.36.940,MainFlow,2024.2.4,146.08094052312498,2025-03-10 20h57.11.127744 +0700,
1,38,0,word/wordth0381.png,image/False/imgf38.png,175,175,0,x,0.5676751999999397,None,0,175,175,175,564.9496838000014,,,,,,,566.4419983000007,565.9495984000023,565.9529505999999,565.9529505999999,566.4366034000013,567.6220791000014,567.6220791000014,x,0.5676751999999397,None,566.4419983000007,566.4419983000007,567.6220791000014,,,,,,,,KR_th,001,2025-03-10_20h56.36.940,MainFlow,2024.2.4,146.08094052312498,2025-03-10 20h57.11.127744 +0700,
1,17,0,word/wordth0171.png,image/False/imgf17.png,176,176,0,z,0.32940039999812143,None,0,176,176,176,568.2002898999999,,,,,,,569.6912222999999,569.1946532000002,569.1980675000013,569.1980675000013,569.6854029999995,570.8184647000016,570.8184647000016,z,0.32940039999812143,None,569.6912222999999,569.6912222999999,570.8184647000016,,,,,,,,KR_th,001,2025-03-10_20h56.36.940,MainFlow,2024.2.4,146.08094052312498,2025-03-10 20h57.11.127744 +0700,
1,42,0,word/wordth0421.png,image/False/imgf42.png,177,177,0,x,0.437335599999642,None,0,177,177,177,571.1577978000023,,,,,,,572.6420666000013,572.1468423000006,572.1496581000029,572.1496581000029,572.6369484000024,573.7762634000028,573.7762634000028,x,0.437335599999642,None,572.6420666000013,572.6420666000013,573.7762634000028,,,,,,,,KR_th,001,2025-03-10_20h56.36.940,MainFlow,2024.2.4,146.08094052312498,2025-03-10 20h57.11.127744 +0700,
1,24,1,word/wordth0241.png,image/True/img24.png,178,178,0,z,0.4022564000006241,None,0,178,178,178,574.2251170000018,,,,,,,575.718102400002,575.2224831000021,575.226284700002,575.226284700002,575.7128085000004,576.7944371000012,576.7944371000012,z,0.4022564000006241,None,575.718102400002,575.718102400002,576.7944371000012,,,,,,,,KR_th,001,2025-03-10_20h56.36.940,MainFlow,2024.2.4,146.08094052312498,2025-03-10 20h57.11.127744 +0700,
1,51,1,word/wordth0511.png,image/True/img51.png,179,179,0,z,0.30253349999838974,None,0,179,179,179,577.2036348000001,,,,,,,578.6966552000013,578.197923300002,578.2011897000011,578.2011897000011,578.6913351000003,579.8062798000028,579.8062798000028,z,0.30253349999838974,None,578.6966552000013,578.6966552000013,579.8062798000028,,,,,,,,KR_th,001,2025-03-10_20h56.36.940,MainFlow,2024.2.4,146.08094052312498,2025-03-10 20h57.11.127744 +0700,
1,24,0,word/wordth0241.png,image/False/imgf24.png,180,180,0,x,0.7384189000003971,None,0,180,180,180,580.1198065999997,,,,,,,581.6056871000001,581.1069822999998,581.1098130999999,581.1098130999999,581.5935403000003,582.7084654999999,582.7084654999999,x,0.7384189000003971,None,581.5987263999996,581.5987263999996,582.7084654999999,,,,,,,,KR_th,001,2025-03-10_20h56.36.940,MainFlow,2024.2.4,146.08094052312498,2025-03-10 20h57.11.127744 +0700,
1,23,0,word/wordth0231.png,image/False/imgf23.png,181,181,0,x,0.8390663000027416,None,0,181,181,181,583.4594808000002,,,,,,,584.9589474000022,584.4598858999998,584.4632801000007,584.4632801000007,584.9528771000005,586.1077691999999,586.1077691999999,x,0.8390663000027416,None,584.9589474000022,584.9589474000022,,,,,,,,,KR_th,001,2025-03-10_20h56.36.940,MainFlow,2024.2.4,146.08094052312498,2025-03-10 20h57.11.127744 +0700,
1,6,1,word/wordth0061.png,image/True/img06.png,182,182,0,z,0.7417625999987649,None,0,182,182,182,586.9587606999994,,,,,,,588.4516270000022,587.9545670000007,587.9580290000013,587.9580290000013,588.4460586999994,589.5477763000017,589.5477763000017,z,0.7417625999987649,None,588.4516270000022,588.4516270000022,589.5477763000017,,,,,,,,KR_th,001,2025-03-10_20h56.36.940,MainFlow,2024.2.4,146.08094052312498,2025-03-10 20h57.11.127744 +0700,
1,93,1,word/wordth0931.png,image/True/img93.png,183,183,0,z,0.4008358999999473,None,0,183,183,183,590.2983263999995,,,,,,,591.7914672000006,591.2955376000027,591.2990624000013,591.2990624000013,591.7860349000002,592.8849123,592.8849123,z,0.4008358999999473,None,591.7914672000006,591.7914672000006,592.8849123,,,,,,,,KR_th,001,2025-03-10_20h56.36.940,MainFlow,2024.2.4,146.08094052312498,2025-03-10 20h57.11.127744 +0700,
1,38,0,word/wordth0381.png,image/False/imgf38.png,184,184,0,x,0.5635408999987703,None,0,184,184,184,593.2996319000013,,,,,,,594.7906726000001,594.2980156000012,594.3008845000004,594.3008845000004,594.7850887000022,595.9344302000027,595.9344302000027,x,0.5635408999987703,None,594.7906726000001,594.7906726000001,595.9344302000027,,,,,,,,KR_th,001,2025-03-10_20h56.36.940,MainFlow,2024.2.4,146.08094052312498,2025-03-10 20h57.11.127744 +0700,
1,57,1,word/wordth0571.png,image/True/img57.png,185,185,0,z,0.8187283000006573,None,0,185,185,185,596.5054627999998,,,,,,,598.0050736000012,597.5100911000009,597.5136792000012,597.5136792000012,597.9991470000023,599.1230878000024,599.1230878000024,z,0.8187283000006573,None,598.0050736000012,598.0050736000012,,,,,,,,,KR_th,001,2025-03-10_20h56.36.940,MainFlow,2024.2.4,146.08094052312498,2025-03-10 20h57.11.127744 +0700,
1,40,1,word/wordth0401.png,image/True/img40.png,186,186,0,z,0.5331820999999763,None,0,186,186,186,599.9492017000011,,,,,,,601.4420324000021,600.9457849999999,600.9491718000027,600.9491718000027,601.4361847,602.6209560999996,602.6209560999996,z,0.5331820999999763,None,601.4420324000021,601.4420324000021,602.6209560999996,,,,,,,,KR_th,001,2025-03-10_20h56.36.940,MainFlow,2024.2.4,146.08094052312498,2025-03-10 20h57.11.127744 +0700,
1,50,0,word/wordth0501.png,image/False/imgf50.png,187,187,0,x,0.7437967999976536,None,0,187,187,187,603.1640538000029,,,,,,,604.6567864999997,604.1603792000024,604.1638769000019,604.1638769000019,604.6514462000014,605.7614802999997,605.7614802999997,x,0.7437967999976536,None,604.6567864999997,604.6567864999997,605.7614802999997,,,,,,,,KR_th,001,2025-03-10_20h56.36.940,MainFlow,2024.2.4,146.08094052312498,2025-03-10 20h57.11.127744 +0700,
1,66,0,word/wordth0661.png,image/False/imgf66.png,188,188,0,x,0.7676959999989776,None,0,188,188,188,606.519456500002,,,,,,,608.0171971000018,607.5210030000017,607.5248265000009,607.5248265000009,608.0113267000015,609.1314066000014,609.1314066000014,x,0.7676959999989776,None,608.0171971000018,608.0171971000018,,,,,,,,,KR_th,001,2025-03-10_20h56.36.940,MainFlow,2024.2.4,146.08094052312498,2025-03-10 20h57.11.127744 +0700,
1,44,0,word/wordth0441.png,image/False/imgf44.png,189,189,0,x,0.4758861000009347,None,0,189,189,189,609.9056286000014,,,,,,,611.3987049000025,610.9016613000022,610.9052144000016,610.9052144000016,611.3934234000008,612.5368925000002,612.5368925000002,x,0.4758861000009347,None,611.3987049000025,611.3987049000025,612.5368925000002,,,,,,,,KR_th,001,2025-03-10_20h56.36.940,MainFlow,2024.2.4,146.08094052312498,2025-03-10 20h57.11.127744 +0700,
1,75,0,word/wordth0751.png,image/False/imgf75.png,190,190,0,x,0.42002080000020214,None,0,190,190,190,613.0230332000028,,,,,,,614.5160639000023,614.0199428000014,614.0233690000023,614.0233690000023,614.5098552000018,615.6276833000011,615.6276833000011,x,0.42002080000020214,None,614.5160639000023,614.5160639000023,615.6276833000011,,,,,,,,KR_th,001,2025-03-10_20h56.36.940,MainFlow,2024.2.4,146.08094052312498,2025-03-10 20h57.11.127744 +0700,
1,31,0,word/wordth0311.png,image/False/imgf31.png,191,191,0,x,0.49153730000034557,None,0,191,191,191,616.0571348000012,,,,,,,617.5500417000003,617.0524965000004,617.0563634000027,617.0563634000027,617.5447916000012,618.6309113999996,618.6309113999996,x,0.49153730000034557,None,617.5500417000003,617.5500417000003,618.6309113999996,,,,,,,,KR_th,001,2025-03-10_20h56.36.940,MainFlow,2024.2.4,146.08094052312498,2025-03-10 20h57.11.127744 +0700,
1,87,1,word/wordth0871.png,image/True/img87.png,192,192,0,z,0.7033989000010479,None,0,192,192,192,619.1331028000022,,,,,,,620.6189583000014,620.1246352000016,620.1279250000007,620.1279250000007,620.6140319000006,621.7471459000008,621.7471459000008,z,0.7033989000010479,None,620.6189583000014,620.6189583000014,621.7471459000008,,,,,,,,KR_th,001,2025-03-10_20h56.36.940,MainFlow,2024.2.4,146.08094052312498,2025-03-10 20h57.11.127744 +0700,
1,33,1,word/wordth0331.png,image/True/img33.png,193,193,0,z,0.4911917999997968,None,0,193,193,193,622.4587833000005,,,,,,,623.9447284000016,623.4461695000027,623.4490417000015,623.4490417000015,623.9389356000029,625.0670620000019,625.0670620000019,z,0.4911917999997968,None,623.9447284000016,623.9447284000016,625.0670620000019,,,,,,,,KR_th,001,2025-03-10_20h56.36.940,MainFlow,2024.2.4,146.08094052312498,2025-03-10 20h57.11.127744 +0700,
1,70,0,word/wordth0701.png,image/False/imgf70.png,194,194,0,x,0.6506016999992426,None,0,194,194,194,625.5692529000007,,,,,,,627.0621855999998,626.5658475000018,626.5695163000019,626.5695163000019,627.0563414000026,628.1908105000002,628.1908105000002,x,0.6506016999992426,None,627.0621855999998,627.0621855999998,628.1908105000002,,,,,,,,KR_th,001,2025-03-10_20h56.36.940,MainFlow,2024.2.4,146.08094052312498,2025-03-10 20h57.11.127744 +0700,
1,27,1,word/wordth0271.png,image/True/img27.png,195,195,0,z,0.7339964999991935,None,0,195,195,195,628.8552997000006,,,,,,,630.346005200001,629.8504778999995,629.8547174000014,629.8547174000014,630.3403513000012,631.4424709000014,631.4424709000014,z,0.7339964999991935,None,630.346005200001,630.346005200001,631.4424709000014,,,,,,,,KR_th,001,2025-03-10_20h56.36.940,MainFlow,2024.2.4,146.08094052312498,2025-03-10 20h57.11.127744 +0700,
1,88,1,word/wordth0881.png,image/True/img88.png,196,196,0,z,0.8881423999991966,None,0,196,196,196,632.1860928000024,,,,,,,633.6787270999994,633.1813462000027,633.184706,633.184706,633.6729938000026,634.8079372000029,634.8079372000029,z,0.8881423999991966,None,633.6787270999994,633.6787270999994,634.8079372000029,,,,,,,,KR_th,001,2025-03-10_20h56.36.940,MainFlow,2024.2.4,146.08094052312498,2025-03-10 20h57.11.127744 +0700,
1,87,0,word/wordth0871.png,image/False/imgf87.png,197,197,0,x,0.9403858999976364,None,0,197,197,197,635.706267900001,,,,,,,637.1919429000009,636.6933212000004,636.6962027000009,636.6962027000009,637.1859928000013,638.2962007000024,638.2962007000024,x,0.9403858999976364,None,637.1919429000009,637.1919429000009,638.2962007000024,,,,,,,,KR_th,001,2025-03-10_20h56.36.940,MainFlow,2024.2.4,146.08094052312498,2025-03-10 20h57.11.127744 +0700,
1,11,1,word/wordth0111.png,image/True/img11.png,198,198,0,z,0.3935440999994171,None,0,198,198,198,639.247205300002,,,,,,,640.7399452000027,640.2423535000016,640.245776300002,640.245776300002,640.7343632000011,641.8830089000003,641.8830089000003,z,0.3935440999994171,None,640.7399452000027,640.7399452000027,641.8830089000003,,,,,,,,KR_th,001,2025-03-10_20h56.36.940,MainFlow,2024.2.4,146.08094052312498,2025-03-10 20h57.11.127744 +0700,
1,61,0,word/wordth0611.png,image/False/imgf61.png,199,199,0,x,0.5884581999998773,None,0,199,199,199,642.2882347000013,,,,,,,643.7812601000005,643.2860935999997,643.2895911000014,643.2895911000014,643.7758558000023,644.9103657000014,644.9103657000014,x,0.5884581999998773,None,643.7812601000005,643.7812601000005,644.9103657000014,,,,,,,,KR_th,001,2025-03-10_20h56.36.940,MainFlow,2024.2.4,146.08094052312498,2025-03-10 20h57.11.127744 +0700,
1,15,1,word/wordth0151.png,image/True/img15.png,200,200,0,z,0.43789749999996275,None,0,200,200,200,645.5097846000026,,,,,,,647.0095753999994,646.5105598000009,646.5140196000029,646.5140196000029,647.0037446999995,648.1447767000027,648.1447767000027,z,0.43789749999996275,None,647.0095753999994,647.0095753999994,,,,,,,,,KR_th,001,2025-03-10_20h56.36.940,MainFlow,2024.2.4,146.08094052312498,2025-03-10 20h57.11.127744 +0700,
1,16,0,word/wordth0161.png,image/False/imgf16.png,201,201,0,x,0.519270000000688,None,0,201,201,201,648.5936967000016,,,,,,,650.0922492000027,649.5953960000006,649.5986265000029,649.5986265000029,650.0866967000002,651.215989100001,651.215989100001,x,0.519270000000688,None,650.0922492000027,650.0922492000027,651.215989100001,,,,,,,,KR_th,001,2025-03-10_20h56.36.940,MainFlow,2024.2.4,146.08094052312498,2025-03-10 20h57.11.127744 +0700,
1,63,0,word/wordth0631.png,image/False/imgf63.png,202,202,0,x,0.6987650000010035,None,0,202,202,202,651.7461513000017,,,,,,,653.2443807000018,652.7488593000016,652.7516883000026,652.7516883000026,653.2386100000003,654.366582900002,654.366582900002,x,0.6987650000010035,None,653.2443807000018,653.2443807000018,654.366582900002,,,,,,,,KR_th,001,2025-03-10_20h56.36.940,MainFlow,2024.2.4,146.08094052312498,2025-03-10 20h57.11.127744 +0700,
1,28,1,word/wordth0281.png,image/True/img28.png,203,203,0,z,0.5404257000009238,None,0,203,203,203,655.0796338,,,,,,,656.5772595000017,656.0815336000014,656.0855861000018,656.0855861000018,656.5720230000006,657.7093643000007,657.7093643000007,z,0.5404257000009238,None,656.5772595000017,656.5772595000017,657.7093643000007,,,,,,,,KR_th,001,2025-03-10_20h56.36.940,MainFlow,2024.2.4,146.08094052312498,2025-03-10 20h57.11.127744 +0700,
1,89,1,word/wordth0891.png,image/True/img89.png,204,204,0,z,0.4093280000015511,None,0,204,204,204,658.2573359000016,,,,,,,659.7501712000012,659.2550317999994,659.2585897999998,659.2585897999998,659.7439594000025,660.8453754000002,660.8453754000002,z,0.4093280000015511,None,659.7501712000012,659.7501712000012,660.8453754000002,,,,,,,,KR_th,001,2025-03-10_20h56.36.940,MainFlow,2024.2.4,146.08094052312498,2025-03-10 20h57.11.127744 +0700,
1,76,0,word/wordth0761.png,image/False/imgf76.png,205,205,0,x,0.5174081000004662,None,0,205,205,205,661.2636824000001,,,,,,,662.7635928000018,662.2643442000008,662.2677065000025,662.2677065000025,662.7582647000017,663.8770551000016,663.8770551000016,x,0.5174081000004662,None,662.7635928000018,662.7635928000018,,,,,,,,,KR_th,001,2025-03-10_20h56.36.940,MainFlow,2024.2.4,146.08094052312498,2025-03-10 20h57.11.127744 +0700,
1,51,0,word/wordth0511.png,image/False/imgf51.png,206,206,0,x,0.5845227999998315,None,0,206,206,206,664.4019982000027,,,,,,,665.8879319000007,665.3932658000012,665.3961597000016,665.3961597000016,665.8827490000003,666.9872243000027,666.9872243000027,x,0.5845227999998315,None,665.8879319000007,665.8879319000007,666.9872243000027,,,,,,,,KR_th,001,2025-03-10_20h56.36.940,MainFlow,2024.2.4,146.08094052312498,2025-03-10 20h57.11.127744 +0700,
1,26,0,word/wordth0261.png,image/False/imgf26.png,207,207,0,x,0.5025030999968294,None,0,207,207,207,667.5820758000009,,,,,,,669.0815927000003,668.5830571000006,668.5866071000019,668.5866071000019,669.0760458000004,670.2110840000023,670.2110840000023,x,0.5025030999968294,None,669.0815927000003,669.0815927000003,,,,,,,,,KR_th,001,2025-03-10_20h56.36.940,MainFlow,2024.2.4,146.08094052312498,2025-03-10 20h57.11.127744 +0700,
1,16,1,word/wordth0161.png,image/True/img16.png,208,208,0,z,0.3508046999995713,None,0,208,208,208,670.720636500002,,,,,,,672.2130772000019,671.7166178000007,671.7202040000011,671.7202040000011,672.2076725000006,673.3477311999995,673.3477311999995,z,0.3508046999995713,None,672.2130772000019,672.2130772000019,673.3477311999995,,,,,,,,KR_th,001,2025-03-10_20h56.36.940,MainFlow,2024.2.4,146.08094052312498,2025-03-10 20h57.11.127744 +0700,
1,64,1,word/wordth0641.png,image/True/img64.png,209,209,0,z,0.39182590000200435,None,0,209,209,209,673.7058629000021,,,,,,,675.1987497000009,674.7021544000017,674.7057783000018,674.7057783000018,675.1935501000007,676.2787306999999,676.2787306999999,z,0.39182590000200435,None,675.1987497000009,675.1987497000009,676.2787306999999,,,,,,,,KR_th,001,2025-03-10_20h56.36.940,MainFlow,2024.2.4,146.08094052312498,2025-03-10 20h57.11.127744 +0700,
1,7,1,word/wordth0071.png,image/True/img07.png,210,210,0,z,0.4390966999999364,None,0,210,210,210,676.677383000002,,,,,,,678.1701061000022,677.6748170000028,677.678130100001,677.678130100001,678.1643481000028,679.2863544000029,679.2863544000029,z,0.4390966999999364,None,678.1701061000022,678.1701061000022,679.2863544000029,,,,,,,,KR_th,001,2025-03-10_20h56.36.940,MainFlow,2024.2.4,146.08094052312498,2025-03-10 20h57.11.127744 +0700,
1,10,0,word/wordth0101.png,image/False/imgf10.png,211,211,0,x,0.5319285999976273,None,0,211,211,211,679.7342927999998,,,,,,,681.2390030999995,680.7416518000027,680.7452091000014,680.7452091000014,681.2326309000018,682.3299616000004,682.3299616000004,x,0.5319285999976273,None,,,680.7452091000014,,,,,,,,KR_th,001,2025-03-10_20h56.36.940,MainFlow,2024.2.4,146.08094052312498,2025-03-10 20h57.11.127744 +0700,
1,22,1,word/wordth0221.png,image/True/img22.png,212,212,0,z,1.555005700000038,None,0,212,212,212,682.8706259000028,,,,,,,684.3634436000029,683.8697728000006,683.8732939000001,683.8732939000001,684.3582348000018,685.5529572000014,685.5529572000014,z,1.555005700000038,None,684.3634436000029,684.3634436000029,685.5529572000014,,,,,,,,KR_th,001,2025-03-10_20h56.36.940,MainFlow,2024.2.4,146.08094052312498,2025-03-10 20h57.11.127744 +0700,
1,40,1,word/wordth0401.png,image/True/img40.png,213,213,0,z,0.2822065999971528,None,0,213,213,213,687.1198593000008,,,,,,,688.6127133000009,688.1162337999995,688.1200887000014,688.1200887000014,688.6076283000002,689.7625676999996,689.7625676999996,z,0.2822065999971528,None,688.6127133000009,688.6127133000009,689.7625676999996,,,,,,,,KR_th,001,2025-03-10_20h56.36.940,MainFlow,2024.2.4,146.08094052312498,2025-03-10 20h57.11.127744 +0700,
1,57,0,word/wordth0571.png,image/False/imgf57.png,214,214,0,z,0.890467199998966,None,0,214,214,214,690.0582718000005,,,,,,,691.5565195000017,691.0611279000004,691.0645667999997,691.0645667999997,691.5506757000003,692.6838528000007,692.6838528000007,z,0.890467199998966,None,691.5565195000017,691.5565195000017,692.6838528000007,,,,,,,,KR_th,001,2025-03-10_20h56.36.940,MainFlow,2024.2.4,146.08094052312498,2025-03-10 20h57.11.127744 +0700,
1,50,1,word/wordth0501.png,image/True/img50.png,215,215,0,z,0.40324759999930393,None,0,215,215,215,693.5857333000022,,,,,,,695.0836856000024,694.5862095000011,694.5895313000001,694.5895313000001,695.0783418999999,696.2118723000021,696.2118723000021,z,0.40324759999930393,None,695.0836856000024,695.0836856000024,696.2118723000021,,,,,,,,KR_th,001,2025-03-10_20h56.36.940,MainFlow,2024.2.4,146.08094052312498,2025-03-10 20h57.11.127744 +0700,
1,64,0,word/wordth0641.png,image/False/imgf64.png,216,216,0,x,0.6461669999989681,None,0,216,216,216,696.6248109000007,,,,,,,698.1108270000004,697.6186812000014,697.6219065000005,697.6219065000005,698.1055606000009,699.1885402000007,699.1885402000007,x,0.6461669999989681,None,698.1108270000004,698.1108270000004,699.1885402000007,,,,,,,,KR_th,001,2025-03-10_20h56.36.940,MainFlow,2024.2.4,146.08094052312498,2025-03-10 20h57.11.127744 +0700,
1,42,1,word/wordth0421.png,image/True/img42.png,217,217,0,z,0.5418159000000742,None,0,217,217,217,699.8466141999997,,,,,,,701.3460193000028,700.8513939000004,700.8550189000016,700.8550189000016,701.3398984000014,702.4541845000022,702.4541845000022,z,0.5418159000000742,None,701.3460193000028,701.3460193000028,,,,,,,,,KR_th,001,2025-03-10_20h56.36.940,MainFlow,2024.2.4,146.08094052312498,2025-03-10 20h57.11.127744 +0700,
1,56,0,word/wordth0561.png,image/False/imgf56.png,218,218,0,x,0.8112580999986676,None,0,218,218,218,703.0056005000006,,,,,,,704.5053241000023,704.008075400001,704.0117051000016,704.0117051000016,704.4998174000029,705.6424566999995,705.6424566999995,x,0.8112580999986676,None,704.5053241000023,704.5053241000023,,,,,,,,,KR_th,001,2025-03-10_20h56.36.940,MainFlow,2024.2.4,146.08094052312498,2025-03-10 20h57.11.127744 +0700,
1,22,1,word/wordth0221.png,image/True/img22.png,219,219,0,z,0.6065774999988207,None,0,219,219,219,706.4631196000009,,,,,,,707.9630727000003,707.466385300002,707.4700287000014,707.4700287000014,707.9572870000011,709.1024737000007,709.1024737000007,z,0.6065774999988207,None,707.9630727000003,707.9630727000003,,,,,,,,,KR_th,001,2025-03-10_20h56.36.940,MainFlow,2024.2.4,146.08094052312498,2025-03-10 20h57.11.127744 +0700,
1,82,0,word/wordth0821.png,image/False/imgf82.png,220,220,0,x,0.5927640000008978,None,0,220,220,220,709.719574900002,,,,,,,711.205560800001,710.7132941000018,710.7165630000018,710.7165630000018,711.2002438000018,712.3287563000013,712.3287563000013,x,0.5927640000008978,None,711.205560800001,711.205560800001,712.3287563000013,,,,,,,,KR_th,001,2025-03-10_20h56.36.940,MainFlow,2024.2.4,146.08094052312498,2025-03-10 20h57.11.127744 +0700,
1,54,1,word/wordth0541.png,image/True/img54.png,221,221,0,z,0.5048702999993111,None,0,221,221,221,712.9273759999996,,,,,,,714.4132497000028,713.9190778000011,713.9222062000008,713.9222062000008,714.4079165000003,715.5492250000025,715.5492250000025,z,0.5048702999993111,None,714.4132497000028,714.4132497000028,715.5492250000025,,,,,,,,KR_th,001,2025-03-10_20h56.36.940,MainFlow,2024.2.4,146.08094052312498,2025-03-10 20h57.11.127744 +0700,
1,55,0,word/wordth0551.png,image/False/imgf55.png,222,222,0,z,0.5745406999994884,None,0,222,222,222,716.0656963000001,,,,,,,717.5514982000022,717.0577755000013,717.0605808,717.0605808,717.5453465999999,718.6731109000029,718.6731109000029,z,0.5745406999994884,None,717.5514982000022,717.5514982000022,718.6731109000029,,,,,,,,KR_th,001,2025-03-10_20h56.36.940,MainFlow,2024.2.4,146.08094052312498,2025-03-10 20h57.11.127744 +0700,
1,48,1,word/wordth0481.png,image/True/img48.png,223,223,0,z,0.564047899999423,None,0,223,223,223,719.2593729,,,,,,,720.752249000001,720.2591412000002,720.2626364000025,720.2626364000025,720.7469340000025,721.8791664000018,721.8791664000018,z,0.564047899999423,None,720.752249000001,720.752249000001,721.8791664000018,,,,,,,,KR_th,001,2025-03-10_20h56.36.940,MainFlow,2024.2.4,146.08094052312498,2025-03-10 20h57.11.127744 +0700,
1,44,1,word/wordth0441.png,image/True/img44.png,224,224,0,z,0.509424100000615,None,0,224,224,224,722.4538227000012,,,,,,,723.953217600003,723.4565383000008,723.4603153999997,723.4603153999997,723.9478626000018,725.0531919000023,725.0531919000023,z,0.509424100000615,None,723.953217600003,723.953217600003,725.0531919000023,,,,,,,,KR_th,001,2025-03-10_20h56.36.940,MainFlow,2024.2.4,146.08094052312498,2025-03-10 20h57.11.127744 +0700,
1,87,0,word/wordth0871.png,image/False/imgf87.png,225,225,0,x,0.6143849000000046,None,0,225,225,225,725.5706017000011,,,,,,,727.0634323000013,726.5646038000014,726.5678541000016,726.5678541000016,727.0575721000023,728.1708284000015,728.1708284000015,x,0.6143849000000046,None,727.0634323000013,727.0634323000013,728.1708284000015,,,,,,,,KR_th,001,2025-03-10_20h56.36.940,MainFlow,2024.2.4,146.08094052312498,2025-03-10 20h57.11.127744 +0700,
1,70,1,word/wordth0701.png,image/True/img70.png,226,226,0,z,0.4200909000028332,None,0,226,226,226,728.7938623000009,,,,,,,730.2850591000024,729.7898311999998,729.7931744000016,729.7931744000016,730.2798132000025,731.4037868000014,731.4037868000014,z,0.4200909000028332,None,730.2850591000024,730.2850591000024,731.4037868000014,,,,,,,,KR_th,001,2025-03-10_20h56.36.940,MainFlow,2024.2.4,146.08094052312498,2025-03-10 20h57.11.127744 +0700,
1,33,0,word/wordth0331.png,image/False/imgf33.png,227,227,0,x,0.4989986000000499,None,0,227,227,227,731.8333143000018,,,,,,,733.3330459000026,732.8371688000007,732.840790600003,732.840790600003,733.3274307000029,734.4504797000009,734.4504797000009,x,0.4989986000000499,None,733.3330459000026,733.3330459000026,,,,,,,,,KR_th,001,2025-03-10_20h56.36.940,MainFlow,2024.2.4,146.08094052312498,2025-03-10 20h57.11.127744 +0700,
1,52,1,word/wordth0521.png,image/True/img52.png,228,228,0,z,0.7475051000001258,None,0,228,228,228,734.9575612000008,,,,,,,736.4573901000003,735.9610721000026,735.9649239000028,735.9649239000028,736.4515752000007,737.5750064000022,737.5750064000022,z,0.7475051000001258,None,736.4573901000003,736.4573901000003,,,,,,,,,KR_th,001,2025-03-10_20h56.36.940,MainFlow,2024.2.4,146.08094052312498,2025-03-10 20h57.11.127744 +0700,
1,59,1,word/wordth0591.png,image/True/img59.png,229,229,0,z,0.3843317000028037,None,0,229,229,229,738.3339866000024,,,,,,,739.8251294000002,739.3271771,739.3308122000017,739.3308122000017,739.8199516000022,740.9161762000003,740.9161762000003,z,0.3843317000028037,None,739.8251294000002,739.8251294000002,740.9161762000003,,,,,,,,KR_th,001,2025-03-10_20h56.36.940,MainFlow,2024.2.4,146.08094052312498,2025-03-10 20h57.11.127744 +0700,
1,56,0,word/wordth0561.png,image/False/imgf56.png,230,230,0,x,0.4724108000009437,None,0,230,230,230,741.3107756000027,,,,,,,742.8035299000003,742.3068364999999,742.3101617000029,742.3101617000029,742.7978296000001,743.9441781000023,743.9441781000023,x,0.4724108000009437,None,742.8035299000003,742.8035299000003,743.9441781000023,,,,,,,,KR_th,001,2025-03-10_20h56.36.940,MainFlow,2024.2.4,146.08094052312498,2025-03-10 20h57.11.127744 +0700,
