lang,wordid,truestate,worddir,imgdir,thisN,thisTrialN,thisRepN,key_resp.keys,key_resp.rt,key_resp.duration,trials.thisRepN,trials.thisTrialN,trials.thisN,trials.thisIndex,thisRow.t,notes,tutorial.started,tutorial.stopped,key_instruct.keys,key_instruct.rt,key_instruct.duration,plusblank.started,wordshow.started,image.started,plsuer.started,wordshow.stopped,imageword.started,key_resp.started,trials.key_resp.keys,trials.key_resp.rt,trials.key_resp.duration,image.stopped,plsuer.stopped,plusblank.stopped,ending.started,text_3.started,ending_key.started,ending.stopped,ending_key.keys,ending_key.rt,ending_key.duration,participant,session,date,expName,psychopyVersion,frameRate,expStart,
,,,,,,,,,,,,,,,,,0.0029974000062793493,4.623953800066374,space,4.591837599989958,None,,,,,,,,,,,,,,,,,,,,,MW_eb,001,2025-03-23_17h32.31.186,MainFlow,2024.2.4,144.34701013912212,2025-03-23 17h32.40.454210 +0700,
2,87,0,word/worden0871.png,image/False/imgf87.png,0,0,0,x,1.2077385999727994,None,0,0,0,0,4.681260299985297,,,,,,,6.134223600034602,5.64437039999757,5.668667100020684,5.668667100020684,6.127821400063112,7.253402800066397,7.253402800066397,x,1.2077385999727994,None,,,,,,,,,,,MW_eb,001,2025-03-23_17h32.31.186,MainFlow,2024.2.4,144.34701013912212,2025-03-23 17h32.40.454210 +0700,
2,93,0,word/worden0931.png,image/False/imgf93.png,1,1,0,x,0.9321909000864252,None,0,1,1,1,8.474073000019416,,,,,,,9.966782900039107,9.472968299989589,9.47562799998559,9.47562799998559,9.960838500061072,11.070552699966356,11.070552699966356,x,0.9321909000864252,None,9.966782900039107,9.966782900039107,11.070552699966356,,,,,,,,MW_eb,001,2025-03-23_17h32.31.186,MainFlow,2024.2.4,144.34701013912212,2025-03-23 17h32.40.454210 +0700,
2,23,0,word/worden0231.png,image/False/imgf23.png,2,2,0,x,0.5137589999940246,None,0,2,2,2,12.010982100036927,,,,,,,13.514687399961986,13.02808910002932,13.031668700044975,13.031668700044975,13.508242500014603,14.65837299998384,14.65837299998384,x,0.5137589999940246,None,,,13.031668700044975,,,,,,,,MW_eb,001,2025-03-23_17h32.31.186,MainFlow,2024.2.4,144.34701013912212,2025-03-23 17h32.40.454210 +0700,
2,10,1,word/worden0101.png,image/True/img10.png,3,3,0,z,0.7375652999617159,None,0,3,3,3,15.181149400072172,,,,,,,16.687787399976514,16.19159170007333,16.194797400035895,16.194797400035895,16.68139479996171,17.783701900043525,17.783701900043525,z,0.7375652999617159,None,,,,,,,,,,,MW_eb,001,2025-03-23_17h32.31.186,MainFlow,2024.2.4,144.34701013912212,2025-03-23 17h32.40.454210 +0700,
2,50,0,word/worden0501.png,image/False/imgf50.png,4,4,0,x,1.0346257000928745,None,0,4,4,4,18.52788149996195,,,,,,,20.03456780000124,19.550829100073315,19.554220300051384,19.554220300051384,20.028338400064968,21.131879199994728,21.131879199994728,x,1.0346257000928745,None,,,,,,,,,,,MW_eb,001,2025-03-23_17h32.31.186,MainFlow,2024.2.4,144.34701013912212,2025-03-23 17h32.40.454210 +0700,
2,33,1,word/worden0331.png,image/True/img33.png,5,5,0,z,0.6442854000488296,None,0,5,5,5,22.174734800006263,,,,,,,23.665780100040138,23.17316020000726,23.175919500063173,23.175919500063173,23.660451899981126,24.784595099976286,24.784595099976286,z,0.6442854000488296,None,23.665780100040138,23.665780100040138,24.784595099976286,,,,,,,,MW_eb,001,2025-03-23_17h32.31.186,MainFlow,2024.2.4,144.34701013912212,2025-03-23 17h32.40.454210 +0700,
2,95,0,word/worden0951.png,image/False/imgf95.png,6,6,0,x,0.6629125999752432,None,0,6,6,6,25.435961900046095,,,,,,,26.928939700010233,26.433026700047776,26.435891999979503,26.435891999979503,26.923726700013503,28.061072100070305,28.061072100070305,x,0.6629125999752432,None,26.928939700010233,26.928939700010233,28.061072100070305,,,,,,,,MW_eb,001,2025-03-23_17h32.31.186,MainFlow,2024.2.4,144.34701013912212,2025-03-23 17h32.40.454210 +0700,
2,7,0,word/worden0071.png,image/False/imgf07.png,7,7,0,x,0.6112182999495417,None,0,7,7,7,28.733944699983113,,,,,,,30.240730999968946,29.750350399990566,29.753113600076176,29.753113600076176,30.234310199972242,31.34431429998949,31.34431429998949,x,0.6112182999495417,None,,,,,,,,,,,MW_eb,001,2025-03-23_17h32.31.186,MainFlow,2024.2.4,144.34701013912212,2025-03-23 17h32.40.454210 +0700,
2,28,1,word/worden0281.png,image/True/img28.png,8,8,0,z,0.7167232000501826,None,0,8,8,8,31.962601199978963,,,,,,,33.4694037999725,32.979163700016215,32.98272860003635,32.98272860003635,33.462810400058515,34.581697699963115,34.581697699963115,z,0.7167232000501826,None,,,,,,,,,,,MW_eb,001,2025-03-23_17h32.31.186,MainFlow,2024.2.4,144.34701013912212,2025-03-23 17h32.40.454210 +0700,
2,38,1,word/worden0381.png,image/True/img38.png,9,9,0,z,0.4721915000118315,None,0,9,9,9,35.309119799989276,,,,,,,36.80193409998901,36.30978870007675,36.31273820006754,36.31273820006754,36.79631969996262,37.906832200009376,37.906832200009376,z,0.4721915000118315,None,36.80193409998901,36.80193409998901,37.906832200009376,,,,,,,,MW_eb,001,2025-03-23_17h32.31.186,MainFlow,2024.2.4,144.34701013912212,2025-03-23 17h32.40.454210 +0700,
2,33,0,word/worden0331.png,image/False/imgf33.png,10,10,0,x,0.5665282999398187,None,0,10,10,10,38.391786099993624,,,,,,,39.87769390002359,39.38404839998111,39.38678920001257,39.38678920001257,39.87175739998929,40.99816010007635,40.99816010007635,x,0.5665282999398187,None,39.87769390002359,39.87769390002359,40.99816010007635,,,,,,,,MW_eb,001,2025-03-23_17h32.31.186,MainFlow,2024.2.4,144.34701013912212,2025-03-23 17h32.40.454210 +0700,
2,76,1,word/worden0761.png,image/True/img76.png,11,11,0,z,1.000213099992834,None,0,11,11,11,41.5731853999896,,,,,,,43.078573500039056,42.58885699999519,42.592222500010394,42.592222500010394,43.07236820005346,44.17751910001971,44.17751910001971,z,1.000213099992834,None,,,,,,,,,,,MW_eb,001,2025-03-23_17h32.31.186,MainFlow,2024.2.4,144.34701013912212,2025-03-23 17h32.40.454210 +0700,
2,75,0,word/worden0751.png,image/False/imgf75.png,12,12,0,x,0.5217054000822827,None,0,12,12,12,45.18909110000823,,,,,,,46.69580360001419,46.204622599994764,46.207371399970725,46.207371399970725,46.68942419998348,47.79296460002661,47.79296460002661,x,0.5217054000822827,None,,,,,,,,,,,MW_eb,001,2025-03-23_17h32.31.186,MainFlow,2024.2.4,144.34701013912212,2025-03-23 17h32.40.454210 +0700,
2,7,1,word/worden0071.png,image/True/img07.png,13,13,0,z,0.4519226000411436,None,0,13,13,13,48.32057250000071,,,,,,,49.81332590000238,49.31566980003845,49.318982299999334,49.318982299999334,49.807982100057416,50.934304900001734,50.934304900001734,z,0.4519226000411436,None,49.81332590000238,49.81332590000238,50.934304900001734,,,,,,,,MW_eb,001,2025-03-23_17h32.31.186,MainFlow,2024.2.4,144.34701013912212,2025-03-23 17h32.40.454210 +0700,
2,51,1,word/worden0511.png,image/True/img51.png,14,14,0,x,1.321502299979329,None,0,14,14,14,51.39623010007199,,,,,,,52.89701239997521,52.4012659,52.404128100024536,52.404128100024536,52.8901764000766,54.01021450001281,54.01021450001281,x,1.321502299979329,None,52.89701239997521,52.89701239997521,,,,,,,,,MW_eb,001,2025-03-23_17h32.31.186,MainFlow,2024.2.4,144.34701013912212,2025-03-23 17h32.40.454210 +0700,
2,59,0,word/worden0591.png,image/False/imgf59.png,15,15,0,x,0.6322966999141499,None,0,15,15,15,55.341878900071606,,,,,,,56.83287599997129,56.33682239998598,56.33971610001754,56.33971610001754,56.827753699966706,57.91974150005262,57.91974150005262,x,0.6322966999141499,None,56.83287599997129,56.83287599997129,57.91974150005262,,,,,,,,MW_eb,001,2025-03-23_17h32.31.186,MainFlow,2024.2.4,144.34701013912212,2025-03-23 17h32.40.454210 +0700,
2,54,0,word/worden0541.png,image/False/imgf54.png,16,16,0,x,0.4750847000395879,None,0,16,16,16,58.56148849998135,,,,,,,60.068322899984196,59.573199999984354,59.5766319000395,59.5766319000395,60.062009099987336,61.17372860002797,61.17372860002797,x,0.4750847000395879,None,,,,,,,,,,,MW_eb,001,2025-03-23_17h32.31.186,MainFlow,2024.2.4,144.34701013912212,2025-03-23 17h32.40.454210 +0700,
2,6,1,word/worden0061.png,image/True/img06.png,17,17,0,z,0.49755209998693317,None,0,17,17,17,61.65910080005415,,,,,,,63.1648409999907,62.67527250002604,62.67837259999942,62.67837259999942,63.15846499998588,64.25183690001722,64.25183690001722,z,0.49755209998693317,None,,,,,,,,,,,MW_eb,001,2025-03-23_17h32.31.186,MainFlow,2024.2.4,144.34701013912212,2025-03-23 17h32.40.454210 +0700,
2,41,1,word/worden0411.png,image/True/img41.png,18,18,0,z,0.5088229000102729,None,0,18,18,18,64.76161789998878,,,,,,,66.26847370003816,65.77631159999873,65.77962889999617,65.77962889999617,66.26223630004097,67.38023720006458,67.38023720006458,z,0.5088229000102729,None,,,,,,,,,,,MW_eb,001,2025-03-23_17h32.31.186,MainFlow,2024.2.4,144.34701013912212,2025-03-23 17h32.40.454210 +0700,
2,42,0,word/worden0421.png,image/False/imgf42.png,19,19,0,x,0.525484099984169,None,0,19,19,19,67.90013009996619,,,,,,,69.3858043999644,68.8937710999744,68.8964751000749,68.8964751000749,69.37986930005718,70.5152478000382,70.5152478000382,x,0.525484099984169,None,69.3858043999644,69.3858043999644,70.5152478000382,,,,,,,,MW_eb,001,2025-03-23_17h32.31.186,MainFlow,2024.2.4,144.34701013912212,2025-03-23 17h32.40.454210 +0700,
2,64,0,word/worden0641.png,image/False/imgf64.png,20,20,0,x,0.560358599992469,None,0,20,20,20,71.05220420006663,,,,,,,72.54510890005622,72.04928719997406,72.05216640001163,72.05216640001163,72.53933509998024,73.63284750003368,73.63284750003368,x,0.560358599992469,None,72.54510890005622,72.54510890005622,73.63284750003368,,,,,,,,MW_eb,001,2025-03-23_17h32.31.186,MainFlow,2024.2.4,144.34701013912212,2025-03-23 17h32.40.454210 +0700,
2,96,1,word/worden0961.png,image/True/img96.png,21,21,0,z,0.6213304999982938,None,0,21,21,21,74.2042990999762,,,,,,,75.71114839997608,75.21803170000203,75.22079829999711,75.22079829999711,75.704699599999,76.82722870004363,76.82722870004363,z,0.6213304999982938,None,,,,,,,,,,,MW_eb,001,2025-03-23_17h32.31.186,MainFlow,2024.2.4,144.34701013912212,2025-03-23 17h32.40.454210 +0700,
2,76,0,word/worden0761.png,image/False/imgf76.png,22,22,0,x,0.43160550005268306,None,0,22,22,22,77.46064090006985,,,,,,,78.95353399997111,78.46001639997121,78.46339040005114,78.46339040005114,78.94828410004266,80.08694970002398,80.08694970002398,x,0.43160550005268306,None,78.95353399997111,78.95353399997111,80.08694970002398,,,,,,,,MW_eb,001,2025-03-23_17h32.31.186,MainFlow,2024.2.4,144.34701013912212,2025-03-23 17h32.40.454210 +0700,
2,17,1,word/worden0171.png,image/True/img17.png,23,23,0,z,0.5184303000569344,None,0,23,23,23,80.52961420000065,,,,,,,82.02246770006604,81.52988619997632,81.53267650003545,81.53267650003545,82.01640990003943,83.13663560000714,83.13663560000714,z,0.5184303000569344,None,82.02246770006604,82.02246770006604,83.13663560000714,,,,,,,,MW_eb,001,2025-03-23_17h32.31.186,MainFlow,2024.2.4,144.34701013912212,2025-03-23 17h32.40.454210 +0700,
2,6,1,word/worden0061.png,image/True/img06.png,24,24,0,z,1.0521789999911562,None,0,24,24,24,83.6678236000007,,,,,,,85.16754220006987,84.66851220000535,84.67211729998235,84.67211729998235,85.1616367000388,86.26204750000034,86.26204750000034,z,1.0521789999911562,None,85.16754220006987,85.16754220006987,,,,,,,,,MW_eb,001,2025-03-23_17h32.31.186,MainFlow,2024.2.4,144.34701013912212,2025-03-23 17h32.40.454210 +0700,
2,88,1,word/worden0881.png,image/True/img88.png,25,25,0,z,0.4814805000787601,None,0,25,25,25,87.32674030005,,,,,,,88.83350900001824,88.34158690006007,88.34514400002081,88.34514400002081,88.8271288999822,89.94131190003827,89.94131190003827,z,0.4814805000787601,None,,,,,,,,,,,MW_eb,001,2025-03-23_17h32.31.186,MainFlow,2024.2.4,144.34701013912212,2025-03-23 17h32.40.454210 +0700,
2,44,1,word/worden0441.png,image/True/img44.png,26,26,0,z,0.42752470006234944,None,0,26,26,26,90.43035310006235,,,,,,,91.92321330006234,91.43029609997757,91.43309810000937,91.43309810000937,91.91740540007595,93.0351335000014,93.0351335000014,z,0.42752470006234944,None,91.92321330006234,91.92321330006234,93.0351335000014,,,,,,,,MW_eb,001,2025-03-23_17h32.31.186,MainFlow,2024.2.4,144.34701013912212,2025-03-23 17h32.40.454210 +0700,
2,27,0,word/worden0271.png,image/False/imgf27.png,27,27,0,z,0.5180392999900505,None,0,27,27,27,93.47140310006216,,,,,,,94.97832320001908,94.48281419998966,94.48636239999905,94.48636239999905,94.97245010000188,96.06827320007142,96.06827320007142,z,0.5180392999900505,None,,,,,,,,,,,MW_eb,001,2025-03-23_17h32.31.186,MainFlow,2024.2.4,144.34701013912212,2025-03-23 17h32.40.454210 +0700,
2,14,0,word/worden0141.png,image/False/imgf14.png,28,28,0,x,0.6168981000082567,None,0,28,28,28,96.59595310001168,,,,,,,98.10261900001206,97.60698270006105,97.61044489999767,97.61044489999767,98.09597030002624,99.20784370007459,99.20784370007459,x,0.6168981000082567,None,,,,,,,,,,,MW_eb,001,2025-03-23_17h32.31.186,MainFlow,2024.2.4,144.34701013912212,2025-03-23 17h32.40.454210 +0700,
2,40,0,word/worden0401.png,image/False/imgf40.png,29,29,0,x,0.46403979999013245,None,0,29,29,29,99.83316589996684,,,,,,,101.33806940005161,100.84431499999482,100.84781050006859,100.84781050006859,101.33176119998097,102.43437919998541,102.43437919998541,x,0.46403979999013245,None,,,,,,,,,,,MW_eb,001,2025-03-23_17h32.31.186,MainFlow,2024.2.4,144.34701013912212,2025-03-23 17h32.40.454210 +0700,
2,1,0,word/worden0011.png,image/False/imgf01.png,30,30,0,x,0.9282087999163195,None,0,30,30,30,102.90705410006922,,,,,,,104.4071219000034,103.91164249996655,103.91450399998575,103.91450399998575,104.40184170007706,105.49203119997401,105.49203119997401,x,0.9282087999163195,None,104.4071219000034,104.4071219000034,,,,,,,,,MW_eb,001,2025-03-23_17h32.31.186,MainFlow,2024.2.4,144.34701013912212,2025-03-23 17h32.40.454210 +0700,
2,3,0,word/worden0031.png,image/False/imgf03.png,31,31,0,x,0.5748437000438571,None,0,31,31,31,106.42723160004243,,,,,,,107.9340230000671,107.4405107999919,107.44362520007417,107.44362520007417,107.92762119998224,109.02163890004158,109.02163890004158,x,0.5748437000438571,None,,,,,,,,,,,MW_eb,001,2025-03-23_17h32.31.186,MainFlow,2024.2.4,144.34701013912212,2025-03-23 17h32.40.454210 +0700,
2,57,1,word/worden0571.png,image/True/img57.png,32,32,0,z,0.5354800999630243,None,0,32,32,32,109.60718900000211,,,,,,,111.09328679996543,110.60066860006191,110.60351739998441,110.60351739998441,111.0879794000648,112.21464320004452,112.21464320004452,z,0.5354800999630243,None,111.09328679996543,111.09328679996543,112.21464320004452,,,,,,,,MW_eb,001,2025-03-23_17h32.31.186,MainFlow,2024.2.4,144.34701013912212,2025-03-23 17h32.40.454210 +0700,
2,88,0,word/worden0881.png,image/False/imgf88.png,33,33,0,x,0.6194027999881655,None,0,33,33,33,112.75935229996685,,,,,,,114.25232760002837,113.75939789996482,113.76285319996532,113.76285319996532,114.24631760001648,115.36702620005235,115.36702620005235,x,0.6194027999881655,None,114.25232760002837,114.25232760002837,115.36702620005235,,,,,,,,MW_eb,001,2025-03-23_17h32.31.186,MainFlow,2024.2.4,144.34701013912212,2025-03-23 17h32.40.454210 +0700,
2,52,0,word/worden0521.png,image/False/imgf52.png,34,34,0,x,0.5266729999566451,None,0,34,34,34,115.99488420004491,,,,,,,117.49457179999445,116.99830069998279,117.00100869999733,117.00100869999733,117.4887435999699,118.59040470002219,118.59040470002219,x,0.5266729999566451,None,117.49457179999445,117.49457179999445,,,,,,,,,MW_eb,001,2025-03-23_17h32.31.186,MainFlow,2024.2.4,144.34701013912212,2025-03-23 17h32.40.454210 +0700,
2,50,0,word/worden0501.png,image/False/imgf50.png,35,35,0,x,0.6970356000820175,None,0,35,35,35,119.12629839999136,,,,,,,120.61915240006056,120.12309740006458,120.12660219997633,120.12660219997633,120.61376149998978,121.73212439997587,121.73212439997587,x,0.6970356000820175,None,120.61915240006056,120.61915240006056,121.73212439997587,,,,,,,,MW_eb,001,2025-03-23_17h32.31.186,MainFlow,2024.2.4,144.34701013912212,2025-03-23 17h32.40.454210 +0700,
2,78,1,word/worden0781.png,image/True/img78.png,36,36,0,z,0.4502417000476271,None,0,36,36,36,122.43805870006327,,,,,,,123.94482119998429,123.45533440005966,123.4585425000405,123.4585425000405,123.9384648000123,125.04080459999386,125.04080459999386,z,0.4502417000476271,None,,,,,,,,,,,MW_eb,001,2025-03-23_17h32.31.186,MainFlow,2024.2.4,144.34701013912212,2025-03-23 17h32.40.454210 +0700,
2,61,0,word/worden0611.png,image/False/imgf61.png,37,37,0,z,1.522961699985899,None,0,37,37,37,125.50195890001487,,,,,,,127.00664500007406,126.5195794000756,126.5228497000644,126.5228497000644,127.0002228000667,128.12487870000768,128.12487870000768,z,1.522961699985899,None,,,,,,,,,,,MW_eb,001,2025-03-23_17h32.31.186,MainFlow,2024.2.4,144.34701013912212,2025-03-23 17h32.40.454210 +0700,
2,36,0,word/worden0361.png,image/False/imgf36.png,38,38,0,x,1.7075702999718487,None,0,38,38,38,129.6588541000383,,,,,,,131.15870989998803,130.66127839998808,130.66395159997046,130.66395159997046,131.1530496000778,132.25080889998935,132.25080889998935,x,1.7075702999718487,None,131.15870989998803,131.15870989998803,,,,,,,,,MW_eb,001,2025-03-23_17h32.31.186,MainFlow,2024.2.4,144.34701013912212,2025-03-23 17h32.40.454210 +0700,
2,10,1,word/worden0101.png,image/True/img10.png,39,39,0,z,0.4541243000421673,None,0,39,39,39,133.97052580001764,,,,,,,135.46322030003648,134.97033490007743,134.97370740002953,134.97370740002953,135.4570587000344,136.58797770005185,136.58797770005185,z,0.4541243000421673,None,135.46322030003648,135.46322030003648,136.58797770005185,,,,,,,,MW_eb,001,2025-03-23_17h32.31.186,MainFlow,2024.2.4,144.34701013912212,2025-03-23 17h32.40.454210 +0700,
2,75,1,word/worden0751.png,image/True/img75.png,40,40,0,z,0.7138052000664175,None,0,40,40,40,137.05493660003413,,,,,,,138.54625480005052,138.0517991000088,138.05506559996866,138.05506559996866,138.54086209996603,139.6604556000093,139.6604556000093,z,0.7138052000664175,None,138.54625480005052,138.54625480005052,139.6604556000093,,,,,,,,MW_eb,001,2025-03-23_17h32.31.186,MainFlow,2024.2.4,144.34701013912212,2025-03-23 17h32.40.454210 +0700,
2,1,1,word/worden0011.png,image/True/img01.png,41,41,0,z,0.4408360000234097,None,0,41,41,41,140.38599129999056,,,,,,,141.87889200006612,141.38557789998595,141.38899810006842,141.38899810006842,141.87309340003412,143.0082214999711,143.0082214999711,z,0.4408360000234097,None,141.87889200006612,141.87889200006612,143.0082214999711,,,,,,,,MW_eb,001,2025-03-23_17h32.31.186,MainFlow,2024.2.4,144.34701013912212,2025-03-23 17h32.40.454210 +0700,
2,37,1,word/worden0371.png,image/True/img37.png,42,42,0,z,0.5750336999772117,None,0,42,42,42,143.46172949997708,,,,,,,144.96855950006284,144.47557430004235,144.47884560003877,144.47884560003877,144.962318600039,146.09534590004478,146.09534590004478,z,0.5750336999772117,None,,,,,,,,,,,MW_eb,001,2025-03-23_17h32.31.186,MainFlow,2024.2.4,144.34701013912212,2025-03-23 17h32.40.454210 +0700,
2,66,0,word/worden0661.png,image/False/imgf66.png,43,43,0,x,0.880597100011073,None,0,43,43,43,146.67641030007508,,,,,,,148.1832085000351,147.68892420001794,147.69252050004434,147.69252050004434,148.17713139997795,149.28238310001325,149.28238310001325,x,0.880597100011073,None,,,,,,,,,,,MW_eb,001,2025-03-23_17h32.31.186,MainFlow,2024.2.4,144.34701013912212,2025-03-23 17h32.40.454210 +0700,
2,55,1,word/worden0551.png,image/True/img55.png,44,44,0,z,0.6470775000052527,None,0,44,44,44,150.1756514000008,,,,,,,151.68260509998072,151.18686939997133,151.19021899998188,151.19021899998188,151.67622120003216,152.80432080000173,152.80432080000173,z,0.6470775000052527,None,,,,,,,,,,,MW_eb,001,2025-03-23_17h32.31.186,MainFlow,2024.2.4,144.34701013912212,2025-03-23 17h32.40.454210 +0700,
2,70,0,word/worden0701.png,image/False/imgf70.png,45,45,0,x,0.5074875000864267,None,0,45,45,45,153.46165850001853,,,,,,,154.96658210002352,154.475981399999,154.47933740005828,154.47933740005828,154.96028350002598,156.0613549000118,156.0613549000118,x,0.5074875000864267,None,,,,,,,,,,,MW_eb,001,2025-03-23_17h32.31.186,MainFlow,2024.2.4,144.34701013912212,2025-03-23 17h32.40.454210 +0700,
2,68,0,word/worden0681.png,image/False/imgf68.png,46,46,0,x,0.6511903000064194,None,0,46,46,46,156.5774259000318,,,,,,,158.08389670006,157.59401660005096,157.59728149999864,157.59728149999864,158.07746459997725,159.15907559997868,159.15907559997868,x,0.6511903000064194,None,,,,,,,,,,,MW_eb,001,2025-03-23_17h32.31.186,MainFlow,2024.2.4,144.34701013912212,2025-03-23 17h32.40.454210 +0700,
2,75,1,word/worden0751.png,image/True/img75.png,47,47,0,z,0.5359858999727294,None,0,47,47,47,159.81974599999376,,,,,,,161.31955800007563,160.82063289999496,160.82391619996633,160.82391619996633,161.31418410001788,162.4307541999733,162.4307541999733,z,0.5359858999727294,None,161.31955800007563,161.31955800007563,,,,,,,,,MW_eb,001,2025-03-23_17h32.31.186,MainFlow,2024.2.4,144.34701013912212,2025-03-23 17h32.40.454210 +0700,
2,38,1,word/worden0381.png,image/True/img38.png,48,48,0,z,0.4719686000607908,None,0,48,48,48,162.9787865000544,,,,,,,164.47169829998165,163.97678689996246,163.98013709997758,163.98013709997758,164.46588989999145,165.5686468000058,165.5686468000058,z,0.4719686000607908,None,164.47169829998165,164.47169829998165,165.5686468000058,,,,,,,,MW_eb,001,2025-03-23_17h32.31.186,MainFlow,2024.2.4,144.34701013912212,2025-03-23 17h32.40.454210 +0700,
2,42,1,word/worden0421.png,image/True/img42.png,49,49,0,z,0.7069039000198245,None,0,49,49,49,166.04762880003545,,,,,,,167.5337061000755,167.03478410001844,167.0374852999812,167.0374852999812,167.521421500016,168.64470679999795,168.64470679999795,z,0.7069039000198245,None,167.52678060007747,167.52678060007747,168.64470679999795,,,,,,,,MW_eb,001,2025-03-23_17h32.31.186,MainFlow,2024.2.4,144.34701013912212,2025-03-23 17h32.40.454210 +0700,
2,11,0,word/worden0111.png,image/False/imgf11.png,50,50,0,x,0.8782334999414161,None,0,50,50,50,169.35946770000737,,,,,,,170.8593049000483,170.3670253000455,170.36972279998008,170.36972279998008,170.85344660002738,171.98496040003374,171.98496040003374,x,0.8782334999414161,None,170.8593049000483,170.8593049000483,,,,,,,,,MW_eb,001,2025-03-23_17h32.31.186,MainFlow,2024.2.4,144.34701013912212,2025-03-23 17h32.40.454210 +0700,
2,41,0,word/worden0411.png,image/False/imgf41.png,51,51,0,x,0.6567888999124989,None,0,51,51,51,172.87260870006867,,,,,,,174.3654525000602,173.870303099975,173.8736680999864,173.8736680999864,174.35970869997982,175.44877520005684,175.44877520005684,x,0.6567888999124989,None,174.3654525000602,174.3654525000602,175.44877520005684,,,,,,,,MW_eb,001,2025-03-23_17h32.31.186,MainFlow,2024.2.4,144.34701013912212,2025-03-23 17h32.40.454210 +0700,
2,82,1,word/worden0821.png,image/True/img82.png,52,52,0,x,0.5338160999817774,None,0,52,52,52,176.11620030004997,,,,,,,177.60810810001567,177.1122444999637,177.11495010007638,177.11495010007638,177.60275009996258,178.6916435000021,178.6916435000021,x,0.5338160999817774,None,177.60810810001567,177.60810810001567,178.6916435000021,,,,,,,,MW_eb,001,2025-03-23_17h32.31.186,MainFlow,2024.2.4,144.34701013912212,2025-03-23 17h32.40.454210 +0700,
2,88,0,word/worden0881.png,image/False/imgf88.png,53,53,0,x,0.6524731999961659,None,0,53,53,53,179.23261820001062,,,,,,,180.73236120003276,180.2343257999746,180.23798129998613,180.23798129998613,180.72646360006183,181.8460114999907,181.8460114999907,x,0.6524731999961659,None,180.73236120003276,180.73236120003276,,,,,,,,,MW_eb,001,2025-03-23_17h32.31.186,MainFlow,2024.2.4,144.34701013912212,2025-03-23 17h32.40.454210 +0700,
2,8,1,word/worden0081.png,image/True/img08.png,54,54,0,z,0.7956686000106856,None,0,54,54,54,182.50972930004355,,,,,,,184.01667759998236,183.5183599999873,183.52215800003614,183.52215800003614,184.010474300012,185.08887590002269,185.08887590002269,z,0.7956686000106856,None,,,,,,,,,,,MW_eb,001,2025-03-23_17h32.31.186,MainFlow,2024.2.4,144.34701013912212,2025-03-23 17h32.40.454210 +0700,
2,16,0,word/worden0161.png,image/False/imgf16.png,55,55,0,x,0.5401825000299141,None,0,55,55,55,185.8910213999916,,,,,,,187.39794960001018,186.90274370007683,186.90643079997972,186.90643079997972,187.3914392000297,188.50581840006635,188.50581840006635,x,0.5401825000299141,None,,,,,,,,,,,MW_eb,001,2025-03-23_17h32.31.186,MainFlow,2024.2.4,144.34701013912212,2025-03-23 17h32.40.454210 +0700,
2,10,0,word/worden0101.png,image/False/imgf10.png,56,56,0,x,0.5117595000192523,None,0,56,56,56,189.05703719996382,,,,,,,190.55007330002263,190.05611010000575,190.05935140000656,190.05935140000656,190.54474769998342,191.65983230003621,191.65983230003621,x,0.5117595000192523,None,190.55007330002263,190.55007330002263,191.65983230003621,,,,,,,,MW_eb,001,2025-03-23_17h32.31.186,MainFlow,2024.2.4,144.34701013912212,2025-03-23 17h32.40.454210 +0700,
2,76,0,word/worden0761.png,image/False/imgf76.png,57,57,0,x,1.344089200021699,None,0,57,57,57,192.1815537000075,,,,,,,193.67411899997387,193.18045900005382,193.18372690002434,193.18372690002434,193.66793630004395,194.8063454000512,194.8063454000512,x,1.344089200021699,None,193.67411899997387,193.67411899997387,194.8063454000512,,,,,,,,MW_eb,001,2025-03-23_17h32.31.186,MainFlow,2024.2.4,144.34701013912212,2025-03-23 17h32.40.454210 +0700,
2,42,1,word/worden0421.png,image/True/img42.png,58,58,0,z,0.4573017000220716,None,0,58,58,58,196.15995460003614,,,,,,,197.64583689998835,197.15358000004198,197.15691400005016,197.15691400005016,197.64052340004127,198.74503850005567,198.74503850005567,z,0.4573017000220716,None,197.64583689998835,197.64583689998835,198.74503850005567,,,,,,,,MW_eb,001,2025-03-23_17h32.31.186,MainFlow,2024.2.4,144.34701013912212,2025-03-23 17h32.40.454210 +0700,
2,26,0,word/worden0261.png,image/False/imgf26.png,59,59,0,x,0.5555920999031514,None,0,59,59,59,199.2148383000167,,,,,,,200.72177569998894,200.23038740002085,200.23326500004623,200.23326500004623,200.71551919996273,201.84091939998325,201.84091939998325,x,0.5555920999031514,None,,,,,,,,,,,MW_eb,001,2025-03-23_17h32.31.186,MainFlow,2024.2.4,144.34701013912212,2025-03-23 17h32.40.454210 +0700,
2,26,1,word/worden0261.png,image/True/img26.png,60,60,0,z,0.6601145999738947,None,0,60,60,60,202.40858429996297,,,,,,,203.90870819997508,203.40911130001768,203.41273039998487,203.41273039998487,203.90326220006682,205.03460430004634,205.03460430004634,z,0.6601145999738947,None,203.90870819997508,203.90870819997508,,,,,,,,,MW_eb,001,2025-03-23_17h32.31.186,MainFlow,2024.2.4,144.34701013912212,2025-03-23 17h32.40.454210 +0700,
2,48,1,word/worden0481.png,image/True/img48.png,61,61,0,z,0.4231738999951631,None,0,61,61,61,205.70661400002427,,,,,,,207.21341099997517,206.7243904999923,206.72766279999632,206.72766279999632,207.20699810003862,208.31940030003898,208.31940030003898,z,0.4231738999951631,None,,,,,,,,,,,MW_eb,001,2025-03-23_17h32.31.186,MainFlow,2024.2.4,144.34701013912212,2025-03-23 17h32.40.454210 +0700,
2,71,0,word/worden0711.png,image/False/imgf71.png,62,62,0,x,0.8609523000195622,None,0,62,62,62,208.7547645000741,,,,,,,210.26148270000704,209.77337379998062,209.776636900031,209.776636900031,210.25514799996745,211.38332380005158,211.38332380005158,x,0.8609523000195622,None,,,,,,,,,,,MW_eb,001,2025-03-23_17h32.31.186,MainFlow,2024.2.4,144.34701013912212,2025-03-23 17h32.40.454210 +0700,
2,93,1,word/worden0931.png,image/True/img93.png,63,63,0,z,0.5302384999813512,None,0,63,63,63,212.25404090003576,,,,,,,213.7467610000167,213.2540334999794,213.25758450001013,213.25758450001013,213.74109150003642,214.83560360001866,214.83560360001866,z,0.5302384999813512,None,213.7467610000167,213.7467610000167,214.83560360001866,,,,,,,,MW_eb,001,2025-03-23_17h32.31.186,MainFlow,2024.2.4,144.34701013912212,2025-03-23 17h32.40.454210 +0700,
2,51,1,word/worden0511.png,image/True/img51.png,64,64,0,x,0.9369700000388548,None,0,64,64,64,215.3783600999741,,,,,,,216.87120960000902,216.37242560007144,216.3758968000766,216.3758968000766,216.86559249996208,217.9923342000693,217.9923342000693,x,0.9369700000388548,None,216.87120960000902,216.87120960000902,217.9923342000693,,,,,,,,MW_eb,001,2025-03-23_17h32.31.186,MainFlow,2024.2.4,144.34701013912212,2025-03-23 17h32.40.454210 +0700,
2,78,0,word/worden0781.png,image/False/imgf78.png,65,65,0,x,0.5336167000932619,None,0,65,65,65,218.9401428999845,,,,,,,220.43324879999273,219.93536800006405,219.93877290003002,219.93877290003002,220.4274878000142,221.5094752999721,221.5094752999721,x,0.5336167000932619,None,220.43324879999273,220.43324879999273,221.5094752999721,,,,,,,,MW_eb,001,2025-03-23_17h32.31.186,MainFlow,2024.2.4,144.34701013912212,2025-03-23 17h32.40.454210 +0700,
2,64,0,word/worden0641.png,image/False/imgf64.png,66,66,0,x,0.5606457000831142,None,0,66,66,66,222.05218840006273,,,,,,,223.54396340006497,223.04777479998302,223.05116769997403,223.05116769997403,223.53788830002304,224.62101970007643,224.62101970007643,x,0.5606457000831142,None,223.54396340006497,223.54396340006497,224.62101970007643,,,,,,,,MW_eb,001,2025-03-23_17h32.31.186,MainFlow,2024.2.4,144.34701013912212,2025-03-23 17h32.40.454210 +0700,
2,68,1,word/worden0681.png,image/True/img68.png,67,67,0,z,0.5416016000090167,None,0,67,67,67,225.18896020005923,,,,,,,226.67479129997082,226.1803462000098,226.1831111999927,226.1831111999927,226.66901329997927,227.75986250001006,227.75986250001006,z,0.5416016000090167,None,226.67479129997082,226.67479129997082,227.75986250001006,,,,,,,,MW_eb,001,2025-03-23_17h32.31.186,MainFlow,2024.2.4,144.34701013912212,2025-03-23 17h32.40.454210 +0700,
2,57,0,word/worden0571.png,image/False/imgf57.png,68,68,0,x,0.5733553000027314,None,0,68,68,68,228.31343570002355,,,,,,,229.80613160005305,229.3106553000398,229.31395940005314,229.31395940005314,229.79988960002083,230.92831350001507,230.92831350001507,x,0.5733553000027314,None,229.80613160005305,229.80613160005305,230.92831350001507,,,,,,,,MW_eb,001,2025-03-23_17h32.31.186,MainFlow,2024.2.4,144.34701013912212,2025-03-23 17h32.40.454210 +0700,
2,31,0,word/worden0311.png,image/False/imgf31.png,69,69,0,x,0.6877395999617875,None,0,69,69,69,231.51412349997554,,,,,,,233.02083230006974,232.5368283999851,232.54004120000172,232.54004120000172,233.0143798000645,234.08128619997296,234.08128619997296,x,0.6877395999617875,None,,,,,,,,,,,MW_eb,001,2025-03-23_17h32.31.186,MainFlow,2024.2.4,144.34701013912212,2025-03-23 17h32.40.454210 +0700,
2,31,0,word/worden0311.png,image/False/imgf31.png,70,70,0,x,0.5470444000093266,None,0,70,70,70,234.77890649996698,,,,,,,236.27037270006258,235.7755503000226,235.7789840999758,235.7789840999758,236.26473070005886,237.346530299983,237.346530299983,x,0.5470444000093266,None,236.27037270006258,236.27037270006258,237.346530299983,,,,,,,,MW_eb,001,2025-03-23_17h32.31.186,MainFlow,2024.2.4,144.34701013912212,2025-03-23 17h32.40.454210 +0700,
2,55,1,word/worden0551.png,image/True/img55.png,71,71,0,z,0.4848752000834793,None,0,71,71,71,237.90177650004625,,,,,,,239.39464780001435,238.9006776000606,238.90407140005846,238.90407140005846,239.38875090004876,240.51650689996313,240.51650689996313,z,0.4848752000834793,None,239.39464780001435,239.39464780001435,240.51650689996313,,,,,,,,MW_eb,001,2025-03-23_17h32.31.186,MainFlow,2024.2.4,144.34701013912212,2025-03-23 17h32.40.454210 +0700,
2,36,1,word/worden0361.png,image/True/img36.png,72,72,0,z,0.46341120009310544,None,0,72,72,72,241.01232380000874,,,,,,,242.49820010003168,242.0012198999757,242.00386439997237,242.00386439997237,242.49301560001913,243.59578169998713,243.59578169998713,z,0.46341120009310544,None,242.49820010003168,242.49820010003168,243.59578169998713,,,,,,,,MW_eb,001,2025-03-23_17h32.31.186,MainFlow,2024.2.4,144.34701013912212,2025-03-23 17h32.40.454210 +0700,
2,8,0,word/worden0081.png,image/False/imgf08.png,73,73,0,x,0.5840220999671146,None,0,73,73,73,244.06957369996235,,,,,,,245.5670637000585,245.0685194999678,245.0720549999969,245.0720549999969,245.56133319996297,246.6655510000419,246.6655510000419,x,0.5840220999671146,None,245.5670637000585,245.5670637000585,246.6655510000419,,,,,,,,MW_eb,001,2025-03-23_17h32.31.186,MainFlow,2024.2.4,144.34701013912212,2025-03-23 17h32.40.454210 +0700,
2,82,0,word/worden0821.png,image/False/imgf82.png,74,74,0,z,0.9417390000307932,None,0,74,74,74,247.2610796999652,,,,,,,248.7541121999966,248.25717720005196,248.26066050003283,248.26066050003283,248.74828970001545,249.86941829998977,249.86941829998977,z,0.9417390000307932,None,248.7541121999966,248.7541121999966,249.86941829998977,,,,,,,,MW_eb,001,2025-03-23_17h32.31.186,MainFlow,2024.2.4,144.34701013912212,2025-03-23 17h32.40.454210 +0700,
2,14,0,word/worden0141.png,image/False/imgf14.png,75,75,0,x,1.7289537000469863,None,0,75,75,75,250.82289890001994,,,,,,,252.31587210006546,251.82161009998526,251.82495989999734,251.82495989999734,252.3102276000427,253.42950610001571,253.42950610001571,x,1.7289537000469863,None,252.31587210006546,252.31587210006546,253.42950610001571,,,,,,,,MW_eb,001,2025-03-23_17h32.31.186,MainFlow,2024.2.4,144.34701013912212,2025-03-23 17h32.40.454210 +0700,
2,71,1,word/worden0711.png,image/True/img71.png,76,76,0,z,0.431870499975048,None,0,76,76,76,255.16926390002482,,,,,,,256.6552350000711,256.1561978000682,256.1589907000307,256.1589907000307,256.6432257000124,257.776457900065,257.776457900065,z,0.431870499975048,None,256.6483938000165,256.6483938000165,257.776457900065,,,,,,,,MW_eb,001,2025-03-23_17h32.31.186,MainFlow,2024.2.4,144.34701013912212,2025-03-23 17h32.40.454210 +0700,
2,22,0,word/worden0221.png,image/False/imgf22.png,77,77,0,x,0.6482140999287367,None,0,77,77,77,258.2173408999806,,,,,,,259.724146499997,259.2306476000231,259.23343470005784,259.23343470005784,259.71792299998924,260.8384726999793,260.8384726999793,x,0.6482140999287367,None,,,,,,,,,,,MW_eb,001,2025-03-23_17h32.31.186,MainFlow,2024.2.4,144.34701013912212,2025-03-23 17h32.40.454210 +0700,
2,78,1,word/worden0781.png,image/True/img78.png,78,78,0,z,0.747336900094524,None,0,78,78,78,261.4961178000085,,,,,,,262.99427610007115,262.49742560007144,262.50089640007354,262.50089640007354,262.98832170001697,264.0891780999955,264.0891780999955,z,0.747336900094524,None,262.99427610007115,262.99427610007115,,,,,,,,,MW_eb,001,2025-03-23_17h32.31.186,MainFlow,2024.2.4,144.34701013912212,2025-03-23 17h32.40.454210 +0700,
2,51,0,word/worden0511.png,image/False/imgf51.png,79,79,0,x,0.7283516000024974,None,0,79,79,79,264.84805689996574,,,,,,,266.34078069997486,265.8455067999894,265.84896730002947,265.84896730002947,266.3351031000493,267.4432875000639,267.4432875000639,x,0.7283516000024974,None,266.34078069997486,266.34078069997486,267.4432875000639,,,,,,,,MW_eb,001,2025-03-23_17h32.31.186,MainFlow,2024.2.4,144.34701013912212,2025-03-23 17h32.40.454210 +0700,
2,56,1,word/worden0561.png,image/True/img56.png,80,80,0,z,0.505610299995169,None,0,80,80,80,268.18074890004937,,,,,,,269.6804173999699,269.18315040005837,269.1858734000707,269.1858734000707,269.67473980004434,270.776694900007,270.776694900007,z,0.505610299995169,None,269.6804173999699,269.6804173999699,,,,,,,,,MW_eb,001,2025-03-23_17h32.31.186,MainFlow,2024.2.4,144.34701013912212,2025-03-23 17h32.40.454210 +0700,
2,60,1,word/worden0601.png,image/True/img60.png,81,81,0,z,0.3692919999593869,None,0,81,81,81,271.29114069999196,,,,,,,272.7978650999721,272.30674320005346,272.3102132000495,272.3102132000495,272.79138730000705,273.88509200001135,273.88509200001135,z,0.3692919999593869,None,,,,,,,,,,,MW_eb,001,2025-03-23_17h32.31.186,MainFlow,2024.2.4,144.34701013912212,2025-03-23 17h32.40.454210 +0700,
2,96,0,word/worden0961.png,image/False/imgf96.png,82,82,0,z,0.3425103999907151,None,0,82,82,82,274.2627580000553,,,,,,,275.75560080003925,275.2605140999658,275.2638124000514,275.2638124000514,275.749840100063,276.8768898000708,276.8768898000708,z,0.3425103999907151,None,275.75560080003925,275.75560080003925,276.8768898000708,,,,,,,,MW_eb,001,2025-03-23_17h32.31.186,MainFlow,2024.2.4,144.34701013912212,2025-03-23 17h32.40.454210 +0700,
2,3,0,word/worden0031.png,image/False/imgf03.png,83,83,0,x,0.6578657000791281,None,0,83,83,83,277.2274712000508,,,,,,,278.72046810004395,278.22582910000347,278.22907330002636,278.22907330002636,278.7150754000759,279.82280109997373,279.82280109997373,x,0.6578657000791281,None,278.72046810004395,278.72046810004395,279.82280109997373,,,,,,,,MW_eb,001,2025-03-23_17h32.31.186,MainFlow,2024.2.4,144.34701013912212,2025-03-23 17h32.40.454210 +0700,
2,55,0,word/worden0551.png,image/False/imgf55.png,84,84,0,x,0.5353388999355957,None,0,84,84,84,280.49083709996194,,,,,,,281.99048030003905,281.493543199962,281.49708870006725,281.49708870006725,281.9845847999677,283.08903500007,283.08903500007,x,0.5353388999355957,None,281.99048030003905,281.99048030003905,,,,,,,,,MW_eb,001,2025-03-23_17h32.31.186,MainFlow,2024.2.4,144.34701013912212,2025-03-23 17h32.40.454210 +0700,
2,71,1,word/worden0711.png,image/True/img71.png,85,85,0,z,0.7315297999884933,None,0,85,85,85,283.63600820000283,,,,,,,285.1288571000332,284.6319157000398,284.63531350006815,284.63531350006815,285.12321340001654,286.2419141000137,286.2419141000137,z,0.7315297999884933,None,285.1288571000332,285.1288571000332,286.2419141000137,,,,,,,,MW_eb,001,2025-03-23_17h32.31.186,MainFlow,2024.2.4,144.34701013912212,2025-03-23 17h32.40.454210 +0700,
2,3,1,word/worden0031.png,image/True/img03.png,86,86,0,z,0.9136742999544367,None,0,86,86,86,286.98478860000614,,,,,,,288.4756520000519,287.97753100004047,287.9808952000458,287.9808952000458,288.47038369998336,289.5742506000679,289.5742506000679,z,0.9136742999544367,None,288.4756520000519,288.4756520000519,289.5742506000679,,,,,,,,MW_eb,001,2025-03-23_17h32.31.186,MainFlow,2024.2.4,144.34701013912212,2025-03-23 17h32.40.454210 +0700,
2,52,1,word/worden0521.png,image/True/img52.png,87,87,0,z,1.045098099973984,None,0,87,87,87,290.4957645999966,,,,,,,291.98875770007726,291.4960149000399,291.4992864000378,291.4992864000378,291.98286210000515,293.1111017999938,293.1111017999938,z,1.045098099973984,None,291.98875770007726,291.98875770007726,293.1111017999938,,,,,,,,MW_eb,001,2025-03-23_17h32.31.186,MainFlow,2024.2.4,144.34701013912212,2025-03-23 17h32.40.454210 +0700,
2,95,0,word/worden0951.png,image/False/imgf95.png,88,88,0,x,0.7227849999908358,None,0,88,88,88,294.16861930000596,,,,,,,295.6685478000436,295.1689131000312,295.1728508999804,295.1728508999804,295.6633426999906,296.78643970005214,296.78643970005214,x,0.7227849999908358,None,295.6685478000436,295.6685478000436,,,,,,,,,MW_eb,001,2025-03-23_17h32.31.186,MainFlow,2024.2.4,144.34701013912212,2025-03-23 17h32.40.454210 +0700,
2,6,0,word/worden0061.png,image/False/imgf06.png,89,89,0,x,0.7835354999406263,None,0,89,89,89,297.5173975999933,,,,,,,299.00810650002677,298.51070700003766,298.51404510007706,298.51404510007706,299.00271550007164,300.10252770001534,300.10252770001534,x,0.7835354999406263,None,299.00810650002677,299.00810650002677,300.10252770001534,,,,,,,,MW_eb,001,2025-03-23_17h32.31.186,MainFlow,2024.2.4,144.34701013912212,2025-03-23 17h32.40.454210 +0700,
2,79,1,word/worden0791.png,image/True/img79.png,90,90,0,z,0.4790723000187427,None,0,90,90,90,300.8965961000649,,,,,,,302.3893342000665,301.8960061999969,301.8987441000063,301.8987441000063,302.3835225000512,303.50871690001804,303.50871690001804,z,0.4790723000187427,None,302.3893342000665,302.3893342000665,303.50871690001804,,,,,,,,MW_eb,001,2025-03-23_17h32.31.186,MainFlow,2024.2.4,144.34701013912212,2025-03-23 17h32.40.454210 +0700,
2,61,0,word/worden0611.png,image/False/imgf61.png,91,91,0,z,0.6264022999675944,None,0,91,91,91,304.0000782000134,,,,,,,305.49294680007733,305.00024409999605,305.0035119999666,305.0035119999666,305.48757580004167,306.61680499999784,306.61680499999784,z,0.6264022999675944,None,305.49294680007733,305.49294680007733,306.61680499999784,,,,,,,,MW_eb,001,2025-03-23_17h32.31.186,MainFlow,2024.2.4,144.34701013912212,2025-03-23 17h32.40.454210 +0700,
2,46,0,word/worden0461.png,image/False/imgf46.png,92,92,0,x,0.6268359000096098,None,0,92,92,92,307.2517990999622,,,,,,,308.7493715999881,308.25187310006004,308.25471490004566,308.25471490004566,308.7439187000273,309.8845152000431,309.8845152000431,x,0.6268359000096098,None,308.7493715999881,308.7493715999881,309.8845152000431,,,,,,,,MW_eb,001,2025-03-23_17h32.31.186,MainFlow,2024.2.4,144.34701013912212,2025-03-23 17h32.40.454210 +0700,
2,89,1,word/worden0891.png,image/True/img89.png,93,93,0,z,0.6233065000269562,None,0,93,93,93,310.51965250005014,,,,,,,312.02656150003895,311.5365841999883,311.5397525000153,311.5397525000153,312.02028609998524,313.10147680004593,313.10147680004593,z,0.6233065000269562,None,,,,,,,,,,,MW_eb,001,2025-03-23_17h32.31.186,MainFlow,2024.2.4,144.34701013912212,2025-03-23 17h32.40.454210 +0700,
2,26,0,word/worden0261.png,image/False/imgf26.png,94,94,0,x,0.7440439000492916,None,0,94,94,94,313.7342715000268,,,,,,,315.2271391999675,314.72853620001115,314.7318612000672,314.7318612000672,315.22136510000564,316.3578028000193,316.3578028000193,x,0.7440439000492916,None,315.2271391999675,315.2271391999675,316.3578028000193,,,,,,,,MW_eb,001,2025-03-23_17h32.31.186,MainFlow,2024.2.4,144.34701013912212,2025-03-23 17h32.40.454210 +0700,
2,44,0,word/worden0441.png,image/False/imgf44.png,95,95,0,x,0.6707344999304041,None,0,95,95,95,317.10862590000033,,,,,,,318.60826210002415,318.10931870003697,318.1127692000009,318.1127692000009,318.60208209999837,319.7192031000741,319.7192031000741,x,0.6707344999304041,None,318.60826210002415,318.60826210002415,,,,,,,,,MW_eb,001,2025-03-23_17h32.31.186,MainFlow,2024.2.4,144.34701013912212,2025-03-23 17h32.40.454210 +0700,
2,82,1,word/worden0821.png,image/True/img82.png,96,96,0,z,0.3561553000472486,None,0,96,96,96,320.399720299989,,,,,,,321.8924984000623,321.399645700003,321.4030896000331,321.4030896000331,321.88660059997346,322.97292259999085,322.97292259999085,z,0.3561553000472486,None,321.8924984000623,321.8924984000623,322.97292259999085,,,,,,,,MW_eb,001,2025-03-23_17h32.31.186,MainFlow,2024.2.4,144.34701013912212,2025-03-23 17h32.40.454210 +0700,
2,16,1,word/worden0161.png,image/True/img16.png,97,97,0,z,0.6633709999732673,None,0,97,97,97,323.3366556999972,,,,,,,324.829612200032,324.3343683000421,324.3379528999794,324.3379528999794,324.82435130001977,325.97586979996413,325.97586979996413,z,0.6633709999732673,None,324.829612200032,324.829612200032,325.97586979996413,,,,,,,,MW_eb,001,2025-03-23_17h32.31.186,MainFlow,2024.2.4,144.34701013912212,2025-03-23 17h32.40.454210 +0700,
2,20,1,word/worden0201.png,image/True/img20.png,98,98,0,z,0.6085654000053182,None,0,98,98,98,326.64857139997184,,,,,,,328.1483832000522,327.6500830000732,327.6528299000347,327.6528299000347,328.1427691000281,329.2639995999634,329.2639995999634,z,0.6085654000053182,None,328.1483832000522,328.1483832000522,,,,,,,,,MW_eb,001,2025-03-23_17h32.31.186,MainFlow,2024.2.4,144.34701013912212,2025-03-23 17h32.40.454210 +0700,
2,20,1,word/worden0201.png,image/True/img20.png,99,99,0,z,0.54446799994912,None,0,99,99,99,329.88396810006816,,,,,,,331.36988250003196,330.874760500039,330.87754810007755,330.87754810007755,331.3643224000698,332.4987693000585,332.4987693000585,z,0.54446799994912,None,331.36988250003196,331.36988250003196,332.4987693000585,,,,,,,,MW_eb,001,2025-03-23_17h32.31.186,MainFlow,2024.2.4,144.34701013912212,2025-03-23 17h32.40.454210 +0700,
2,96,1,word/worden0961.png,image/True/img96.png,100,100,0,z,0.43971820001024753,None,0,100,100,100,333.0520688999677,,,,,,,334.54301620007027,334.0442705000751,334.0475048000226,334.0475048000226,334.537142300047,335.66322380001657,335.66322380001657,z,0.43971820001024753,None,334.54301620007027,334.54301620007027,335.66322380001657,,,,,,,,MW_eb,001,2025-03-23_17h32.31.186,MainFlow,2024.2.4,144.34701013912212,2025-03-23 17h32.40.454210 +0700,
2,64,1,word/worden0641.png,image/True/img64.png,101,101,0,x,2.4492481000488624,None,0,101,101,101,336.1120025999844,,,,,,,337.60484689997975,337.1107390000252,337.11397870001383,337.11397870001383,337.59945870004594,338.69215770007577,338.69215770007577,x,2.4492481000488624,None,337.60484689997975,337.60484689997975,338.69215770007577,,,,,,,,MW_eb,001,2025-03-23_17h32.31.186,MainFlow,2024.2.4,144.34701013912212,2025-03-23 17h32.40.454210 +0700,
2,78,0,word/worden0781.png,image/False/imgf78.png,102,102,0,x,1.710701100062579,None,0,102,102,102,341.15263260004576,,,,,,,342.6454335000599,342.1510090000229,342.1542277999688,342.1542277999688,342.63941020006314,343.7233166999649,343.7233166999649,x,1.710701100062579,None,342.6454335000599,342.6454335000599,343.7233166999649,,,,,,,,MW_eb,001,2025-03-23_17h32.31.186,MainFlow,2024.2.4,144.34701013912212,2025-03-23 17h32.40.454210 +0700,
2,20,0,word/worden0201.png,image/False/imgf20.png,103,103,0,x,0.6745113999349996,None,0,103,103,103,345.4440258999821,,,,,,,346.9432286999654,346.4451240999624,346.4484710000688,346.4484710000688,346.93804300006013,348.0816347000655,348.0816347000655,x,0.6745113999349996,None,346.9432286999654,346.9432286999654,,,,,,,,,MW_eb,001,2025-03-23_17h32.31.186,MainFlow,2024.2.4,144.34701013912212,2025-03-23 17h32.40.454210 +0700,
2,89,1,word/worden0891.png,image/True/img89.png,104,104,0,z,0.7103083000984043,None,0,104,104,104,348.7638675000053,,,,,,,350.26211060001515,349.7693101000041,349.77272020000964,349.77272020000964,350.2568270000629,351.3549540999811,351.3549540999811,z,0.7103083000984043,None,350.26211060001515,350.26211060001515,351.3549540999811,,,,,,,,MW_eb,001,2025-03-23_17h32.31.186,MainFlow,2024.2.4,144.34701013912212,2025-03-23 17h32.40.454210 +0700,
2,59,0,word/worden0591.png,image/False/imgf59.png,105,105,0,x,0.4961289999773726,None,0,105,105,105,352.0741857000394,,,,,,,353.5738706999691,353.07446969999,353.07849800004624,353.07849800004624,353.5683657999616,354.64939420006704,354.64939420006704,x,0.4961289999773726,None,353.5738706999691,353.5738706999691,,,,,,,,,MW_eb,001,2025-03-23_17h32.31.186,MainFlow,2024.2.4,144.34701013912212,2025-03-23 17h32.40.454210 +0700,
2,24,0,word/worden0241.png,image/False/imgf24.png,106,106,0,x,0.9166968000354245,None,0,106,106,106,355.15691090002656,,,,,,,356.64974030002486,356.15537849999964,356.15825320000295,356.15825320000295,356.643889100058,357.76085389999207,357.76085389999207,x,0.9166968000354245,None,356.64974030002486,356.64974030002486,357.76085389999207,,,,,,,,MW_eb,001,2025-03-23_17h32.31.186,MainFlow,2024.2.4,144.34701013912212,2025-03-23 17h32.40.454210 +0700,
2,28,0,word/worden0281.png,image/False/imgf28.png,107,107,0,x,0.8610091999871656,None,0,107,107,107,358.6839299000567,,,,,,,360.17664990003686,359.6813721000217,359.6846186000621,359.6846186000621,360.1704516999889,361.2894125999883,361.2894125999883,x,0.8610091999871656,None,360.17664990003686,360.17664990003686,361.2894125999883,,,,,,,,MW_eb,001,2025-03-23_17h32.31.186,MainFlow,2024.2.4,144.34701013912212,2025-03-23 17h32.40.454210 +0700,
2,15,0,word/worden0151.png,image/False/imgf15.png,108,108,0,x,0.7623603000538424,None,0,108,108,108,362.16303499997593,,,,,,,363.65534280007705,363.16189630003646,363.1645849000197,363.1645849000197,363.64976629999,364.7669690999901,364.7669690999901,x,0.7623603000538424,None,363.65534280007705,363.65534280007705,364.7669690999901,,,,,,,,MW_eb,001,2025-03-23_17h32.31.186,MainFlow,2024.2.4,144.34701013912212,2025-03-23 17h32.40.454210 +0700,
2,30,1,word/worden0301.png,image/True/img30.png,109,109,0,z,0.6390678000170738,None,0,109,109,109,365.5368601999944,,,,,,,367.03657500003465,366.54346750001423,366.54696439998224,366.54696439998224,367.0309092999669,368.1275091000134,368.1275091000134,z,0.6390678000170738,None,367.03657500003465,367.03657500003465,,,,,,,,,MW_eb,001,2025-03-23_17h32.31.186,MainFlow,2024.2.4,144.34701013912212,2025-03-23 17h32.40.454210 +0700,
2,64,1,word/worden0641.png,image/True/img64.png,110,110,0,x,0.520831499947235,None,0,110,110,110,368.7724336000392,,,,,,,370.26507429999765,369.7709949000273,369.77424930001143,369.77424930001143,370.2592368000187,371.34847680001985,371.34847680001985,x,0.520831499947235,None,370.26507429999765,370.26507429999765,371.34847680001985,,,,,,,,MW_eb,001,2025-03-23_17h32.31.186,MainFlow,2024.2.4,144.34701013912212,2025-03-23 17h32.40.454210 +0700,
2,52,0,word/worden0521.png,image/False/imgf52.png,111,111,0,x,0.6876852998975664,None,0,111,111,111,371.87597300007474,,,,,,,373.3686253000051,372.8729995000176,372.87651910004206,372.87651910004206,373.36302370007616,374.4658637000248,374.4658637000248,x,0.6876852998975664,None,373.3686253000051,373.3686253000051,374.4658637000248,,,,,,,,MW_eb,001,2025-03-23_17h32.31.186,MainFlow,2024.2.4,144.34701013912212,2025-03-23 17h32.40.454210 +0700,
2,33,1,word/worden0331.png,image/True/img33.png,112,112,0,z,0.6462318999692798,None,0,112,112,112,375.15997270005755,,,,,,,376.65280829998665,376.15999780001584,376.16341320006177,376.16341320006177,376.6470447999891,377.76754929998424,377.76754929998424,z,0.6462318999692798,None,376.65280829998665,376.65280829998665,377.76754929998424,,,,,,,,MW_eb,001,2025-03-23_17h32.31.186,MainFlow,2024.2.4,144.34701013912212,2025-03-23 17h32.40.454210 +0700,
2,23,1,word/worden0231.png,image/True/img23.png,113,113,0,z,0.3227026999229565,None,0,113,113,113,378.4232106000418,,,,,,,379.91598469996825,379.42038440005854,379.4236624999903,379.4236624999903,379.91041330003645,381.03028100007214,381.03028100007214,z,0.3227026999229565,None,379.91598469996825,379.91598469996825,381.03028100007214,,,,,,,,MW_eb,001,2025-03-23_17h32.31.186,MainFlow,2024.2.4,144.34701013912212,2025-03-23 17h32.40.454210 +0700,
2,11,1,word/worden0111.png,image/True/img11.png,114,114,0,z,0.499378600041382,None,0,114,114,114,381.36008720006794,,,,,,,382.85291190003045,382.36066050000954,382.3638471000595,382.3638471000595,382.8473163000308,383.98310020007193,383.98310020007193,z,0.499378600041382,None,382.85291190003045,382.85291190003045,383.98310020007193,,,,,,,,MW_eb,001,2025-03-23_17h32.31.186,MainFlow,2024.2.4,144.34701013912212,2025-03-23 17h32.40.454210 +0700,
2,22,1,word/worden0221.png,image/True/img22.png,115,115,0,z,0.5562856000615284,None,0,115,115,115,384.4915829000529,,,,,,,385.98422019998543,385.4875992999878,385.49088549998123,385.49088549998123,385.97829250001814,387.1207083000336,387.1207083000336,z,0.5562856000615284,None,385.98422019998543,385.98422019998543,387.1207083000336,,,,,,,,MW_eb,001,2025-03-23_17h32.31.186,MainFlow,2024.2.4,144.34701013912212,2025-03-23 17h32.40.454210 +0700,
2,37,0,word/worden0371.png,image/False/imgf37.png,116,116,0,x,0.5968720999080688,None,0,116,116,116,387.6853243999649,,,,,,,389.17805840005167,388.6813512999797,388.68510040000547,388.68510040000547,389.17224019998685,390.32939109997824,390.32939109997824,x,0.5968720999080688,None,389.17805840005167,389.17805840005167,390.32939109997824,,,,,,,,MW_eb,001,2025-03-23_17h32.31.186,MainFlow,2024.2.4,144.34701013912212,2025-03-23 17h32.40.454210 +0700,
2,79,0,word/worden0791.png,image/False/imgf79.png,117,117,0,x,0.6845824000192806,None,0,117,117,117,390.934646800044,,,,,,,392.427652399987,391.9286678000353,391.9319817000069,391.9319817000069,392.4219883000478,393.5419635999715,393.5419635999715,x,0.6845824000192806,None,392.427652399987,392.427652399987,393.5419635999715,,,,,,,,MW_eb,001,2025-03-23_17h32.31.186,MainFlow,2024.2.4,144.34701013912212,2025-03-23 17h32.40.454210 +0700,
2,56,1,word/worden0561.png,image/True/img56.png,118,118,0,z,0.7006311999866739,None,0,118,118,118,394.23266179999337,,,,,,,395.72551480005495,395.2310775000369,395.23429880000185,395.23429880000185,395.71983079996426,396.8319621999981,396.8319621999981,z,0.7006311999866739,None,395.72551480005495,395.72551480005495,396.8319621999981,,,,,,,,MW_eb,001,2025-03-23_17h32.31.186,MainFlow,2024.2.4,144.34701013912212,2025-03-23 17h32.40.454210 +0700,
2,68,1,word/worden0681.png,image/True/img68.png,119,119,0,z,0.9868604000657797,None,0,119,119,119,397.5445095000323,,,,,,,399.0372626000317,398.54446969996206,398.5478442000458,398.5478442000458,399.0314803000074,400.11613700003363,400.11613700003363,z,0.9868604000657797,None,399.0372626000317,399.0372626000317,400.11613700003363,,,,,,,,MW_eb,001,2025-03-23_17h32.31.186,MainFlow,2024.2.4,144.34701013912212,2025-03-23 17h32.40.454210 +0700,
2,27,0,word/worden0271.png,image/False/imgf27.png,120,120,0,x,0.7246145000681281,None,0,120,120,120,401.1136163000483,,,,,,,402.6062225999776,402.1099305000389,402.11326790007297,402.11326790007297,402.60079579998273,403.69566369999666,403.69566369999666,x,0.7246145000681281,None,402.6062225999776,402.6062225999776,403.69566369999666,,,,,,,,MW_eb,001,2025-03-23_17h32.31.186,MainFlow,2024.2.4,144.34701013912212,2025-03-23 17h32.40.454210 +0700,
2,3,1,word/worden0031.png,image/True/img03.png,121,121,0,z,0.5340558000607416,None,0,121,121,121,404.4322667999659,,,,,,,405.9246707999846,405.4297340000048,405.4330838000169,405.4330838000169,405.9184762999648,407.0399067000253,407.0399067000253,z,0.5340558000607416,None,405.9246707999846,405.9246707999846,407.0399067000253,,,,,,,,MW_eb,001,2025-03-23_17h32.31.186,MainFlow,2024.2.4,144.34701013912212,2025-03-23 17h32.40.454210 +0700,
2,38,0,word/worden0381.png,image/False/imgf38.png,122,122,0,x,0.6078998000593856,None,0,122,122,122,407.58425409998745,,,,,,,409.0772239000071,408.58137859997805,408.58480800001416,408.58480800001416,409.07197569997516,410.2082285999786,410.2082285999786,x,0.6078998000593856,None,409.0772239000071,409.0772239000071,410.2082285999786,,,,,,,,MW_eb,001,2025-03-23_17h32.31.186,MainFlow,2024.2.4,144.34701013912212,2025-03-23 17h32.40.454210 +0700,
2,59,1,word/worden0591.png,image/True/img59.png,123,123,0,z,0.6075902000302449,None,0,123,123,123,410.82668579998426,,,,,,,412.3196850999957,411.82448100007605,411.82844539999496,411.82844539999496,412.3144735000096,413.4079316999996,413.4079316999996,z,0.6075902000302449,None,412.3196850999957,412.3196850999957,413.4079316999996,,,,,,,,MW_eb,001,2025-03-23_17h32.31.186,MainFlow,2024.2.4,144.34701013912212,2025-03-23 17h32.40.454210 +0700,
2,18,1,word/worden0181.png,image/True/img18.png,124,124,0,z,0.6879339000442997,None,0,124,124,124,414.02743710007053,,,,,,,415.53400690003764,415.04526739998255,415.04839390004054,415.04839390004054,415.5276747000171,416.60985070001334,416.60985070001334,z,0.6879339000442997,None,,,,,,,,,,,MW_eb,001,2025-03-23_17h32.31.186,MainFlow,2024.2.4,144.34701013912212,2025-03-23 17h32.40.454210 +0700,
2,60,1,word/worden0601.png,image/True/img60.png,125,125,0,z,0.5793985999189317,None,0,125,125,125,417.30452540004626,,,,,,,418.79731140006334,418.2999857000541,418.3031535000773,418.3031535000773,418.7915068999864,419.903905000072,419.903905000072,z,0.5793985999189317,None,418.79731140006334,418.79731140006334,419.903905000072,,,,,,,,MW_eb,001,2025-03-23_17h32.31.186,MainFlow,2024.2.4,144.34701013912212,2025-03-23 17h32.40.454210 +0700,
2,9,1,word/worden0091.png,image/True/img09.png,126,126,0,x,0.46369850006885827,None,0,126,126,126,420.49292940006126,,,,,,,421.9912200999679,421.4951796999667,421.49824880005326,421.49824880005326,421.9856081000762,423.0584172999952,423.0584172999952,x,0.46369850006885827,None,421.9912200999679,421.9912200999679,423.0584172999952,,,,,,,,MW_eb,001,2025-03-23_17h32.31.186,MainFlow,2024.2.4,144.34701013912212,2025-03-23 17h32.40.454210 +0700,
2,9,0,word/worden0091.png,image/False/imgf09.png,127,127,0,x,0.8488182999426499,None,0,127,127,127,423.53349459997844,,,,,,,425.025385200046,424.5274483000394,424.5308915000642,424.5308915000642,425.0198259999743,426.10907580005005,426.10907580005005,x,0.8488182999426499,None,425.025385200046,425.025385200046,426.10907580005005,,,,,,,,MW_eb,001,2025-03-23_17h32.31.186,MainFlow,2024.2.4,144.34701013912212,2025-03-23 17h32.40.454210 +0700,
2,94,0,word/worden0941.png,image/False/imgf94.png,128,128,0,x,0.6054749999893829,None,0,128,128,128,426.97079050005414,,,,,,,428.4691410000669,427.97218699997757,427.9748923999723,427.9748923999723,428.4633440000471,429.5999286000151,429.5999286000151,x,0.6054749999893829,None,428.4691410000669,428.4691410000669,,,,,,,,,MW_eb,001,2025-03-23_17h32.31.186,MainFlow,2024.2.4,144.34701013912212,2025-03-23 17h32.40.454210 +0700,
2,66,1,word/worden0661.png,image/True/img66.png,129,129,0,z,1.0065258999820799,None,0,129,129,129,430.2132592999842,,,,,,,431.71150109998416,431.2157407000195,431.21896430000197,431.21896430000197,431.7056864000624,432.81300570000894,432.81300570000894,z,1.0065258999820799,None,431.71150109998416,431.71150109998416,432.81300570000894,,,,,,,,MW_eb,001,2025-03-23_17h32.31.186,MainFlow,2024.2.4,144.34701013912212,2025-03-23 17h32.40.454210 +0700,
2,1,0,word/worden0011.png,image/False/imgf01.png,130,130,0,x,0.58021899999585,None,0,130,130,130,433.82916179997846,,,,,,,435.32188459997997,434.8238275999902,434.8270806999644,434.8270806999644,435.3160129999742,436.43483629997354,436.43483629997354,x,0.58021899999585,None,435.32188459997997,435.32188459997997,436.43483629997354,,,,,,,,MW_eb,001,2025-03-23_17h32.31.186,MainFlow,2024.2.4,144.34701013912212,2025-03-23 17h32.40.454210 +0700,
2,89,0,word/worden0891.png,image/False/imgf89.png,131,131,0,x,0.8342988999793306,None,0,131,131,131,437.0231550000608,,,,,,,438.515742000076,438.02101779996883,438.02430200006347,438.02430200006347,438.5099335999694,439.6214580000378,439.6214580000378,x,0.8342988999793306,None,438.515742000076,438.515742000076,439.6214580000378,,,,,,,,MW_eb,001,2025-03-23_17h32.31.186,MainFlow,2024.2.4,144.34701013912212,2025-03-23 17h32.40.454210 +0700,
2,48,1,word/worden0481.png,image/True/img48.png,132,132,0,z,1.2076065998990089,None,0,132,132,132,440.46687540004496,,,,,,,441.9525849999627,441.45318080007564,441.45597190002445,441.45597190002445,441.94036220002454,443.0722039999673,443.0722039999673,z,1.2076065998990089,None,441.94569480000064,441.94569480000064,443.0722039999673,,,,,,,,MW_eb,001,2025-03-23_17h32.31.186,MainFlow,2024.2.4,144.34701013912212,2025-03-23 17h32.40.454210 +0700,
2,63,0,word/worden0631.png,image/False/imgf63.png,133,133,0,x,0.9437857000157237,None,0,133,133,133,444.2924775000429,,,,,,,445.79211250005756,445.29806940001436,445.30091130000073,445.30091130000073,445.78631500003394,446.90730520000216,446.90730520000216,x,0.9437857000157237,None,445.79211250005756,445.79211250005756,,,,,,,,,MW_eb,001,2025-03-23_17h32.31.186,MainFlow,2024.2.4,144.34701013912212,2025-03-23 17h32.40.454210 +0700,
2,23,1,word/worden0231.png,image/True/img23.png,134,134,0,z,0.71694829990156,None,0,134,134,134,447.86193320003804,,,,,,,449.3540829999838,448.8595576999942,448.8631942999782,448.8631942999782,449.34804129996337,450.458169599995,450.458169599995,z,0.71694829990156,None,449.3540829999838,449.3540829999838,450.458169599995,,,,,,,,MW_eb,001,2025-03-23_17h32.31.186,MainFlow,2024.2.4,144.34701013912212,2025-03-23 17h32.40.454210 +0700,
2,40,0,word/worden0401.png,image/False/imgf40.png,135,135,0,x,0.5745145999826491,None,0,135,135,135,451.1869490999961,,,,,,,452.67991299997084,452.18436539999675,452.1878672000021,452.1878672000021,452.67426060000435,453.7970349000534,453.7970349000534,x,0.5745145999826491,None,452.67991299997084,452.67991299997084,453.7970349000534,,,,,,,,MW_eb,001,2025-03-23_17h32.31.186,MainFlow,2024.2.4,144.34701013912212,2025-03-23 17h32.40.454210 +0700,
2,52,1,word/worden0521.png,image/True/img52.png,136,136,0,z,4.221681399969384,None,0,136,136,136,454.3806909000268,,,,,,,455.8733927999856,455.3797096000053,455.38300250004977,455.38300250004977,455.8674325000029,457.00250850000884,457.00250850000884,z,4.221681399969384,None,455.8733927999856,455.8733927999856,457.00250850000884,,,,,,,,MW_eb,001,2025-03-23_17h32.31.186,MainFlow,2024.2.4,144.34701013912212,2025-03-23 17h32.40.454210 +0700,
2,30,1,word/worden0301.png,image/True/img30.png,137,137,0,z,0.497222000034526,None,0,137,137,137,461.23366390005685,,,,,,,462.7265138999792,462.230786500033,462.2340889000334,462.2340889000334,462.7210534000769,463.8338249999797,463.8338249999797,z,0.497222000034526,None,462.7265138999792,462.7265138999792,463.8338249999797,,,,,,,,MW_eb,001,2025-03-23_17h32.31.186,MainFlow,2024.2.4,144.34701013912212,2025-03-23 17h32.40.454210 +0700,
2,15,1,word/worden0151.png,image/True/img15.png,138,138,0,z,0.6049677999690175,None,0,138,138,138,464.34403809998184,,,,,,,465.8437638999894,465.34694770001806,465.3509535000194,465.3509535000194,465.838112300029,466.9752813000232,466.9752813000232,z,0.6049677999690175,None,465.8437638999894,465.8437638999894,,,,,,,,,MW_eb,001,2025-03-23_17h32.31.186,MainFlow,2024.2.4,144.34701013912212,2025-03-23 17h32.40.454210 +0700,
2,46,1,word/worden0461.png,image/True/img46.png,139,139,0,z,0.5807937999488786,None,0,139,139,139,467.5864399999846,,,,,,,469.0795190000208,468.5850594000658,468.5885219000047,468.5885219000047,469.07424400001764,470.2199663000647,470.2199663000647,z,0.5807937999488786,None,469.0795190000208,469.0795190000208,470.2199663000647,,,,,,,,MW_eb,001,2025-03-23_17h32.31.186,MainFlow,2024.2.4,144.34701013912212,2025-03-23 17h32.40.454210 +0700,
2,14,1,word/worden0141.png,image/True/img14.png,140,140,0,z,0.5424923000391573,None,0,140,140,140,470.80807869997807,,,,,,,472.3009028000524,471.80623039999045,471.80960370006505,471.80960370006505,472.29513730003964,473.4237596000312,473.4237596000312,z,0.5424923000391573,None,472.3009028000524,472.3009028000524,473.4237596000312,,,,,,,,MW_eb,001,2025-03-23_17h32.31.186,MainFlow,2024.2.4,144.34701013912212,2025-03-23 17h32.40.454210 +0700,
2,66,0,word/worden0661.png,image/False/imgf66.png,141,141,0,x,0.6259132999693975,None,0,141,141,141,473.9741541000549,,,,,,,475.4669681000523,474.970864300034,474.9742143000476,474.9742143000476,475.4617510000244,476.57557690003887,476.57557690003887,x,0.6259132999693975,None,475.4669681000523,475.4669681000523,476.57557690003887,,,,,,,,MW_eb,001,2025-03-23_17h32.31.186,MainFlow,2024.2.4,144.34701013912212,2025-03-23 17h32.40.454210 +0700,
2,46,0,word/worden0461.png,image/False/imgf46.png,142,142,0,x,1.8480946999043226,None,0,142,142,142,477.20963260007557,,,,,,,478.7024193999823,478.2090676999651,478.2125809000572,478.2125809000572,478.69725229998585,479.8325543999672,479.8325543999672,x,1.8480946999043226,None,478.7024193999823,478.7024193999823,479.8325543999672,,,,,,,,MW_eb,001,2025-03-23_17h32.31.186,MainFlow,2024.2.4,144.34701013912212,2025-03-23 17h32.40.454210 +0700,
2,18,1,word/worden0181.png,image/True/img18.png,143,143,0,z,0.4641910999780521,None,0,143,143,143,481.6878767000744,,,,,,,483.1737059999723,482.6796212999616,482.6824598000385,482.6824598000385,483.16803409997374,484.2671390000032,484.2671390000032,z,0.4641910999780521,None,483.1737059999723,483.1737059999723,484.2671390000032,,,,,,,,MW_eb,001,2025-03-23_17h32.31.186,MainFlow,2024.2.4,144.34701013912212,2025-03-23 17h32.40.454210 +0700,
2,51,0,word/worden0511.png,image/False/imgf51.png,144,144,0,x,0.8055722999852151,None,0,144,144,144,484.7429839000106,,,,,,,486.22865239996463,485.7364407000132,485.739636000013,485.739636000013,486.22269910003524,487.3317562000593,487.3317562000593,x,0.8055722999852151,None,486.22865239996463,486.22865239996463,487.3317562000593,,,,,,,,MW_eb,001,2025-03-23_17h32.31.186,MainFlow,2024.2.4,144.34701013912212,2025-03-23 17h32.40.454210 +0700,
2,76,1,word/worden0761.png,image/True/img76.png,145,145,0,z,0.9578739000717178,None,0,145,145,145,488.14653989998624,,,,,,,489.63095600006636,489.1390651999973,489.14203029999044,489.14203029999044,489.6256771000335,490.74203239998315,490.74203239998315,z,0.9578739000717178,None,489.63095600006636,489.63095600006636,490.74203239998315,,,,,,,,MW_eb,001,2025-03-23_17h32.31.186,MainFlow,2024.2.4,144.34701013912212,2025-03-23 17h32.40.454210 +0700,
2,57,1,word/worden0571.png,image/True/img57.png,146,146,0,z,0.955913900048472,None,0,146,146,146,491.70791960007045,,,,,,,493.1998928000685,492.705470600049,492.7088849999709,492.7088849999709,493.1944729000097,494.31121219997294,494.31121219997294,z,0.955913900048472,None,493.1998928000685,493.1998928000685,494.31121219997294,,,,,,,,MW_eb,001,2025-03-23_17h32.31.186,MainFlow,2024.2.4,144.34701013912212,2025-03-23 17h32.40.454210 +0700,
2,48,0,word/worden0481.png,image/False/imgf48.png,147,147,0,x,0.7266614000545815,None,0,147,147,147,495.27555120002944,,,,,,,496.768462200067,496.27034709998406,496.27374370000325,496.27374370000325,496.76321800006554,497.9036018999759,497.9036018999759,x,0.7266614000545815,None,496.768462200067,496.768462200067,497.9036018999759,,,,,,,,MW_eb,001,2025-03-23_17h32.31.186,MainFlow,2024.2.4,144.34701013912212,2025-03-23 17h32.40.454210 +0700,
2,37,0,word/worden0371.png,image/False/imgf37.png,148,148,0,x,0.6845928999828175,None,0,148,148,148,498.64309600007255,,,,,,,500.1359082000563,499.64077210007235,499.6441732000094,499.6441732000094,500.1306568,501.28070920007303,501.28070920007303,x,0.6845928999828175,None,500.1359082000563,500.1359082000563,501.28070920007303,,,,,,,,MW_eb,001,2025-03-23_17h32.31.186,MainFlow,2024.2.4,144.34701013912212,2025-03-23 17h32.40.454210 +0700,
2,60,0,word/worden0601.png,image/False/imgf60.png,149,149,0,x,0.5132294999202713,None,0,149,149,149,501.97568270005286,,,,,,,503.4685801999876,502.97492379997857,502.9783178999787,502.9783178999787,503.46320800005924,504.5836796000367,504.5836796000367,x,0.5132294999202713,None,503.4685801999876,503.4685801999876,504.5836796000367,,,,,,,,MW_eb,001,2025-03-23_17h32.31.186,MainFlow,2024.2.4,144.34701013912212,2025-03-23 17h32.40.454210 +0700,
2,24,1,word/worden0241.png,image/True/img24.png,150,150,0,x,0.7860735999420285,None,0,150,150,150,505.10824420000426,,,,,,,506.5998710000422,506.10230570007116,506.10565390007105,506.10565390007105,506.5946555000264,507.6749707000563,507.6749707000563,x,0.7860735999420285,None,506.5998710000422,506.5998710000422,507.6749707000563,,,,,,,,MW_eb,001,2025-03-23_17h32.31.186,MainFlow,2024.2.4,144.34701013912212,2025-03-23 17h32.40.454210 +0700,
2,40,1,word/worden0401.png,image/True/img40.png,151,151,0,z,0.48760620004031807,None,0,151,151,151,508.46757810004056,,,,,,,509.96009519998915,509.46460870001465,509.46811290003825,509.46811290003825,509.9539777999744,511.1128899999894,511.1128899999894,z,0.48760620004031807,None,509.96009519998915,509.96009519998915,511.1128899999894,,,,,,,,MW_eb,001,2025-03-23_17h32.31.186,MainFlow,2024.2.4,144.34701013912212,2025-03-23 17h32.40.454210 +0700,
2,54,1,word/worden0541.png,image/True/img54.png,152,152,0,z,0.7474640998989344,None,0,152,152,152,511.6126668000361,,,,,,,513.105557300034,512.6083655999973,512.6119757000124,512.6119757000124,513.0997758000158,514.2299885000102,514.2299885000102,z,0.7474640998989344,None,513.105557300034,513.105557300034,514.2299885000102,,,,,,,,MW_eb,001,2025-03-23_17h32.31.186,MainFlow,2024.2.4,144.34701013912212,2025-03-23 17h32.40.454210 +0700,
2,44,0,word/worden0441.png,image/False/imgf44.png,153,153,0,x,0.6385090999538079,None,0,153,153,153,514.9870102000423,,,,,,,516.4798094000435,515.9857485999819,515.9892831000034,515.9892831000034,516.4738866999978,517.6092744000489,517.6092744000489,x,0.6385090999538079,None,516.4798094000435,516.4798094000435,517.6092744000489,,,,,,,,MW_eb,001,2025-03-23_17h32.31.186,MainFlow,2024.2.4,144.34701013912212,2025-03-23 17h32.40.454210 +0700,
2,79,1,word/worden0791.png,image/True/img79.png,154,154,0,z,0.7349657999584451,None,0,154,154,154,518.2582439000253,,,,,,,519.7499838999938,519.2550072000595,519.2583753999788,519.2583753999788,519.744455600041,520.872793000075,520.872793000075,z,0.7349657999584451,None,519.7499838999938,519.7499838999938,520.872793000075,,,,,,,,MW_eb,001,2025-03-23_17h32.31.186,MainFlow,2024.2.4,144.34701013912212,2025-03-23 17h32.40.454210 +0700,
2,95,1,word/worden0951.png,image/True/img95.png,155,155,0,z,0.6287995000602677,None,0,155,155,155,521.6177130000433,,,,,,,523.1104350000387,522.6143980000634,522.6179357999936,522.6179357999936,523.1045967000537,524.247147200047,524.247147200047,z,0.6287995000602677,None,523.1104350000387,523.1104350000387,524.247147200047,,,,,,,,MW_eb,001,2025-03-23_17h32.31.186,MainFlow,2024.2.4,144.34701013912212,2025-03-23 17h32.40.454210 +0700,
2,37,1,word/worden0371.png,image/True/img37.png,156,156,0,z,0.7956495999824256,None,0,156,156,156,524.8892561000539,,,,,,,526.3806246999884,525.8848908999935,525.888272000011,525.888272000011,526.3748350000242,527.5251198000042,527.5251198000042,z,0.7956495999824256,None,526.3806246999884,526.3806246999884,527.5251198000042,,,,,,,,MW_eb,001,2025-03-23_17h32.31.186,MainFlow,2024.2.4,144.34701013912212,2025-03-23 17h32.40.454210 +0700,
2,70,1,word/worden0701.png,image/True/img70.png,157,157,0,z,0.32628119993023574,None,0,157,157,157,528.3316982999677,,,,,,,529.8242867999943,529.3307597000385,529.3342645000666,529.3342645000666,529.818192100036,530.9236704000505,530.9236704000505,z,0.32628119993023574,None,529.8242867999943,529.8242867999943,530.9236704000505,,,,,,,,MW_eb,001,2025-03-23_17h32.31.186,MainFlow,2024.2.4,144.34701013912212,2025-03-23 17h32.40.454210 +0700,
2,40,1,word/worden0401.png,image/True/img40.png,158,158,0,z,0.47973679995629936,None,0,158,158,158,531.2616342999972,,,,,,,532.7546557000605,532.2566722000483,532.2600486000301,532.2600486000301,532.7493861999828,533.9069223999977,533.9069223999977,z,0.47973679995629936,None,532.7546557000605,532.7546557000605,533.9069223999977,,,,,,,,MW_eb,001,2025-03-23_17h32.31.186,MainFlow,2024.2.4,144.34701013912212,2025-03-23 17h32.40.454210 +0700,
2,30,0,word/worden0301.png,image/False/imgf30.png,159,159,0,x,0.8584154000272974,None,0,159,159,159,534.3949355999939,,,,,,,535.8927583000623,535.3970851000631,535.4006919000531,535.4006919000531,535.887082100031,536.993916700012,536.993916700012,x,0.8584154000272974,None,535.8927583000623,535.8927583000623,,,,,,,,,MW_eb,001,2025-03-23_17h32.31.186,MainFlow,2024.2.4,144.34701013912212,2025-03-23 17h32.40.454210 +0700,
2,88,1,word/worden0881.png,image/True/img88.png,160,160,0,z,0.42923569993581623,None,0,160,160,160,537.8575490000658,,,,,,,539.3503650999628,538.8559714000439,538.8592911000596,538.8592911000596,539.3444859000156,540.4769249999663,540.4769249999663,z,0.42923569993581623,None,539.3503650999628,539.3503650999628,540.4769249999663,,,,,,,,MW_eb,001,2025-03-23_17h32.31.186,MainFlow,2024.2.4,144.34701013912212,2025-03-23 17h32.40.454210 +0700,
2,15,1,word/worden0151.png,image/True/img15.png,161,161,0,z,0.5242564999498427,None,0,161,161,161,540.912625500001,,,,,,,542.3983680000529,541.9032245000126,541.90607310005,541.90607310005,542.3928425000049,543.5235172000248,543.5235172000248,z,0.5242564999498427,None,542.3983680000529,542.3983680000529,543.5235172000248,,,,,,,,MW_eb,001,2025-03-23_17h32.31.186,MainFlow,2024.2.4,144.34701013912212,2025-03-23 17h32.40.454210 +0700,
2,54,1,word/worden0541.png,image/True/img54.png,162,162,0,z,0.7661854999605566,None,0,162,162,162,544.0583101999946,,,,,,,545.550667500007,545.0554537000135,545.0589432000415,545.0589432000415,545.5454360999865,546.6853504000464,546.6853504000464,z,0.7661854999605566,None,545.550667500007,545.550667500007,546.6853504000464,,,,,,,,MW_eb,001,2025-03-23_17h32.31.186,MainFlow,2024.2.4,144.34701013912212,2025-03-23 17h32.40.454210 +0700,
2,11,0,word/worden0111.png,image/False/imgf11.png,163,163,0,x,0.686481099925004,None,0,163,163,163,547.4597470000153,,,,,,,548.9528173999861,548.4599216000643,548.4633589000441,548.4633589000441,548.9477235999657,550.0923063000664,550.0923063000664,x,0.686481099925004,None,548.9528173999861,548.9528173999861,550.0923063000664,,,,,,,,MW_eb,001,2025-03-23_17h32.31.186,MainFlow,2024.2.4,144.34701013912212,2025-03-23 17h32.40.454210 +0700,
2,16,1,word/worden0161.png,image/True/img16.png,164,164,0,z,0.7546618999913335,None,0,164,164,164,550.7856658999808,,,,,,,552.2784610000672,551.7849108000519,551.7884003999643,551.7884003999643,552.2729511000216,553.4142005000031,553.4142005000031,z,0.7546618999913335,None,552.2784610000672,552.2784610000672,553.4142005000031,,,,,,,,MW_eb,001,2025-03-23_17h32.31.186,MainFlow,2024.2.4,144.34701013912212,2025-03-23 17h32.40.454210 +0700,
2,1,1,word/worden0011.png,image/True/img01.png,165,165,0,z,0.48428750003222376,None,0,165,165,165,554.1823210000293,,,,,,,555.6804968999932,555.1857515000738,555.1891121000517,555.1891121000517,555.6744546999689,556.8109992999816,556.8109992999816,z,0.48428750003222376,None,555.6804968999932,555.6804968999932,556.8109992999816,,,,,,,,MW_eb,001,2025-03-23_17h32.31.186,MainFlow,2024.2.4,144.34701013912212,2025-03-23 17h32.40.454210 +0700,
2,22,0,word/worden0221.png,image/False/imgf22.png,166,166,0,x,1.3425776999210939,None,0,166,166,166,557.3053059000522,,,,,,,558.7979551000753,558.3010844000382,558.3044224000769,558.3044224000769,558.7921055000043,559.9290533000603,559.9290533000603,x,1.3425776999210939,None,558.7979551000753,558.7979551000753,559.9290533000603,,,,,,,,MW_eb,001,2025-03-23_17h32.31.186,MainFlow,2024.2.4,144.34701013912212,2025-03-23 17h32.40.454210 +0700,
2,63,1,word/worden0631.png,image/True/img63.png,167,167,0,z,0.49382129998411983,None,0,167,167,167,561.2850551999873,,,,,,,562.7763779000379,562.2785937000299,562.2821875000373,562.2821875000373,562.7705378000392,563.89046470006,563.89046470006,z,0.49382129998411983,None,562.7763779000379,562.7763779000379,563.89046470006,,,,,,,,MW_eb,001,2025-03-23_17h32.31.186,MainFlow,2024.2.4,144.34701013912212,2025-03-23 17h32.40.454210 +0700,
2,87,1,word/worden0871.png,image/True/img87.png,168,168,0,z,0.6680455000605434,None,0,168,168,168,564.394173800014,,,,,,,565.8938433000585,565.3943073999835,565.3981266999617,565.3981266999617,565.8880141000263,567.0184278000379,567.0184278000379,z,0.6680455000605434,None,565.8938433000585,565.8938433000585,,,,,,,,,MW_eb,001,2025-03-23_17h32.31.186,MainFlow,2024.2.4,144.34701013912212,2025-03-23 17h32.40.454210 +0700,
2,57,0,word/worden0571.png,image/False/imgf57.png,169,169,0,x,0.8166282000020146,None,0,169,169,169,567.699037100072,,,,,,,569.1851076000603,568.6915216000052,568.694816900068,568.694816900068,569.1798189000692,570.3036511000246,570.3036511000246,x,0.8166282000020146,None,569.1851076000603,569.1851076000603,570.3036511000246,,,,,,,,MW_eb,001,2025-03-23_17h32.31.186,MainFlow,2024.2.4,144.34701013912212,2025-03-23 17h32.40.454210 +0700,
2,94,0,word/worden0941.png,image/False/imgf94.png,170,170,0,x,0.9813578999601305,None,0,170,170,170,571.1289461000124,,,,,,,572.6217604000121,572.1268552000402,572.130275500007,572.130275500007,572.6159086000407,573.7672516000457,573.7672516000457,x,0.9813578999601305,None,572.6217604000121,572.6217604000121,573.7672516000457,,,,,,,,MW_eb,001,2025-03-23_17h32.31.186,MainFlow,2024.2.4,144.34701013912212,2025-03-23 17h32.40.454210 +0700,
2,93,0,word/worden0931.png,image/False/imgf93.png,171,171,0,x,0.7555027001071721,None,0,171,171,171,574.7601450000657,,,,,,,576.2530199000612,575.7593395999866,575.7628897000104,575.7628897000104,576.2477787999669,577.3571242999751,577.3571242999751,x,0.7555027001071721,None,576.2530199000612,576.2530199000612,577.3571242999751,,,,,,,,MW_eb,001,2025-03-23_17h32.31.186,MainFlow,2024.2.4,144.34701013912212,2025-03-23 17h32.40.454210 +0700,
2,61,1,word/worden0611.png,image/True/img61.png,172,172,0,z,2.698032300104387,None,0,172,172,172,578.120632300037,,,,,,,579.6133667000104,579.1198142999783,579.1231942999875,579.1231942999875,579.607845999999,580.7293372000568,580.7293372000568,z,2.698032300104387,None,579.6133667000104,579.6133667000104,580.7293372000568,,,,,,,,MW_eb,001,2025-03-23_17h32.31.186,MainFlow,2024.2.4,144.34701013912212,2025-03-23 17h32.40.454210 +0700,
2,28,1,word/worden0281.png,image/True/img28.png,173,173,0,z,0.8488911999156699,None,0,173,173,173,583.4389719000319,,,,,,,584.9317845000187,584.4370585000142,584.4404673000099,584.4404673000099,584.9258321999805,586.0722160000587,586.0722160000587,z,0.8488911999156699,None,584.9317845000187,584.9317845000187,586.0722160000587,,,,,,,,MW_eb,001,2025-03-23_17h32.31.186,MainFlow,2024.2.4,144.34701013912212,2025-03-23 17h32.40.454210 +0700,
2,46,1,word/worden0461.png,image/True/img46.png,174,174,0,z,0.44576999999117106,None,0,174,174,174,586.9314526000526,,,,,,,588.4243490999797,587.9259797000559,587.9295330999885,587.9295330999885,588.4186261000577,589.5590933000203,589.5590933000203,z,0.44576999999117106,None,588.4243490999797,588.4243490999797,589.5590933000203,,,,,,,,MW_eb,001,2025-03-23_17h32.31.186,MainFlow,2024.2.4,144.34701013912212,2025-03-23 17h32.40.454210 +0700,
2,22,1,word/worden0221.png,image/True/img22.png,175,175,0,z,0.6732780000893399,None,0,175,175,175,590.0150264999829,,,,,,,591.5069815000752,591.0124729999807,591.0160625000717,591.0160625000717,591.501697700005,592.6486283000559,592.6486283000559,z,0.6732780000893399,None,591.5069815000752,591.5069815000752,592.6486283000559,,,,,,,,MW_eb,001,2025-03-23_17h32.31.186,MainFlow,2024.2.4,144.34701013912212,2025-03-23 17h32.40.454210 +0700,
2,93,1,word/worden0931.png,image/True/img93.png,176,176,0,z,0.4690837000962347,None,0,176,176,176,593.3331135000335,,,,,,,594.8257806000765,594.3276911000721,594.3311055999948,594.3311055999948,594.8205773000373,595.9246104999911,595.9246104999911,z,0.4690837000962347,None,594.8257806000765,594.8257806000765,595.9246104999911,,,,,,,,MW_eb,001,2025-03-23_17h32.31.186,MainFlow,2024.2.4,144.34701013912212,2025-03-23 17h32.40.454210 +0700,
2,95,1,word/worden0951.png,image/True/img95.png,177,177,0,z,0.5805372999748215,None,0,177,177,177,596.401842799969,,,,,,,597.8877690000227,597.3888299000682,597.3917734000133,597.3917734000133,597.8755123000592,599.0255519000348,599.0255519000348,z,0.5805372999748215,None,597.8808083999902,597.8808083999902,599.0255519000348,,,,,,,,MW_eb,001,2025-03-23_17h32.31.186,MainFlow,2024.2.4,144.34701013912212,2025-03-23 17h32.40.454210 +0700,
2,17,0,word/worden0171.png,image/False/imgf17.png,178,178,0,x,0.6211418000748381,None,0,178,178,178,599.6164336999645,,,,,,,601.1025613000384,600.6098766999785,600.6131685000146,600.6131685000146,601.0971494000405,602.2263165999902,602.2263165999902,x,0.6211418000748381,None,601.1025613000384,601.1025613000384,602.2263165999902,,,,,,,,MW_eb,001,2025-03-23_17h32.31.186,MainFlow,2024.2.4,144.34701013912212,2025-03-23 17h32.40.454210 +0700,
2,26,1,word/worden0261.png,image/True/img26.png,179,179,0,z,0.6538549000397325,None,0,179,179,179,602.858862800058,,,,,,,604.3517979000462,603.8538921000436,603.8573842999758,603.8573842999758,604.346232800046,605.4918347999919,605.4918347999919,z,0.6538549000397325,None,604.3517979000462,604.3517979000462,605.4918347999919,,,,,,,,MW_eb,001,2025-03-23_17h32.31.186,MainFlow,2024.2.4,144.34701013912212,2025-03-23 17h32.40.454210 +0700,
2,27,1,word/worden0271.png,image/True/img27.png,180,180,0,z,0.6054082000628114,None,0,180,180,180,606.1568431999767,,,,,,,607.6565830999753,607.1576760000316,607.1613015000476,607.1613015000476,607.6506312000565,608.7447298000334,608.7447298000334,z,0.6054082000628114,None,607.6565830999753,607.6565830999753,,,,,,,,,MW_eb,001,2025-03-23_17h32.31.186,MainFlow,2024.2.4,144.34701013912212,2025-03-23 17h32.40.454210 +0700,
2,31,1,word/worden0311.png,image/True/img31.png,181,181,0,z,0.6172363000223413,None,0,181,181,181,609.3577930000611,,,,,,,610.8434567999793,610.3443242000649,610.3471411999781,610.3471411999781,610.8313106000423,611.9521643000189,611.9521643000189,z,0.6172363000223413,None,610.8365884000668,610.8365884000668,611.9521643000189,,,,,,,,MW_eb,001,2025-03-23_17h32.31.186,MainFlow,2024.2.4,144.34701013912212,2025-03-23 17h32.40.454210 +0700,
2,33,0,word/worden0331.png,image/False/imgf33.png,182,182,0,x,0.9093886000337079,None,0,182,182,182,612.5793284999672,,,,,,,614.0718427000102,613.5745197000215,613.57783319999,613.57783319999,614.0656972000143,615.2036743999925,615.2036743999925,x,0.9093886000337079,None,614.0718427000102,614.0718427000102,615.2036743999925,,,,,,,,MW_eb,001,2025-03-23_17h32.31.186,MainFlow,2024.2.4,144.34701013912212,2025-03-23 17h32.40.454210 +0700,
2,59,1,word/worden0591.png,image/True/img59.png,183,183,0,z,0.7394526000134647,None,0,183,183,183,616.1201889000367,,,,,,,617.6130466000177,617.1151262000203,617.1186584000243,617.1186584000243,617.6077459000517,618.6987249000231,618.6987249000231,z,0.7394526000134647,None,617.6130466000177,617.6130466000177,618.6987249000231,,,,,,,,MW_eb,001,2025-03-23_17h32.31.186,MainFlow,2024.2.4,144.34701013912212,2025-03-23 17h32.40.454210 +0700,
2,8,1,word/worden0081.png,image/True/img08.png,184,184,0,x,1.0882169000105932,None,0,184,184,184,619.4477215000661,,,,,,,620.9319544000318,620.4379200000549,620.4407795000589,620.4407795000589,620.9267951999791,622.0210379000055,622.0210379000055,x,1.0882169000105932,None,620.9319544000318,620.9319544000318,622.0210379000055,,,,,,,,MW_eb,001,2025-03-23_17h32.31.186,MainFlow,2024.2.4,144.34701013912212,2025-03-23 17h32.40.454210 +0700,
2,63,0,word/worden0631.png,image/False/imgf63.png,185,185,0,x,0.7723380000097677,None,0,185,185,185,623.1188576000277,,,,,,,624.611753800069,624.1136417000089,624.1170730000595,624.1170730000595,624.6061922999797,625.7437171000056,625.7437171000056,x,0.7723380000097677,None,624.611753800069,624.611753800069,625.7437171000056,,,,,,,,MW_eb,001,2025-03-23_17h32.31.186,MainFlow,2024.2.4,144.34701013912212,2025-03-23 17h32.40.454210 +0700,
2,30,0,word/worden0301.png,image/False/imgf30.png,186,186,0,x,0.7403059999924153,None,0,186,186,186,626.5277980000246,,,,,,,628.0208939000731,627.528017600067,627.5316846000496,627.5316846000496,628.0156064999755,629.1179661999922,629.1179661999922,x,0.7403059999924153,None,628.0208939000731,628.0208939000731,629.1179661999922,,,,,,,,MW_eb,001,2025-03-23_17h32.31.186,MainFlow,2024.2.4,144.34701013912212,2025-03-23 17h32.40.454210 +0700,
2,15,0,word/worden0151.png,image/False/imgf15.png,187,187,0,x,0.7042396999895573,None,0,187,187,187,629.869292599964,,,,,,,631.3533497999888,630.8588019000599,630.8616437000455,630.8616437000455,631.3474408000475,632.4671020000242,632.4671020000242,x,0.7042396999895573,None,631.3533497999888,631.3533497999888,632.4671020000242,,,,,,,,MW_eb,001,2025-03-23_17h32.31.186,MainFlow,2024.2.4,144.34701013912212,2025-03-23 17h32.40.454210 +0700,
2,71,0,word/worden0711.png,image/False/imgf71.png,188,188,0,x,0.9573306000092998,None,0,188,188,188,633.1795650999993,,,,,,,634.6721514000092,634.1790822000476,634.1827290999936,634.1827290999936,634.6662613999797,635.8083870999981,635.8083870999981,x,0.9573306000092998,None,634.6721514000092,634.6721514000092,635.8083870999981,,,,,,,,MW_eb,001,2025-03-23_17h32.31.186,MainFlow,2024.2.4,144.34701013912212,2025-03-23 17h32.40.454210 +0700,
2,10,0,word/worden0101.png,image/False/imgf10.png,189,189,0,x,0.5510408000554889,None,0,189,189,189,636.7760640999768,,,,,,,638.2757063000463,637.7777756999712,637.7817640000721,637.7817640000721,638.27000280004,639.3951525000157,639.3951525000157,x,0.5510408000554889,None,638.2757063000463,638.2757063000463,,,,,,,,,MW_eb,001,2025-03-23_17h32.31.186,MainFlow,2024.2.4,144.34701013912212,2025-03-23 17h32.40.454210 +0700,
2,54,0,word/worden0541.png,image/False/imgf54.png,190,190,0,x,0.6209162999875844,None,0,190,190,190,639.9558719999623,,,,,,,641.4485501999734,640.9515561000444,640.9550145000685,640.9550145000685,641.4425022000214,642.5595703000436,642.5595703000436,x,0.6209162999875844,None,641.4485501999734,641.4485501999734,642.5595703000436,,,,,,,,MW_eb,001,2025-03-23_17h32.31.186,MainFlow,2024.2.4,144.34701013912212,2025-03-23 17h32.40.454210 +0700,
2,60,0,word/worden0601.png,image/False/imgf60.png,191,191,0,x,0.5468818999361247,None,0,191,191,191,643.1912213000469,,,,,,,644.6842547999695,644.1871540000429,644.1905855999794,644.1905855999794,644.6784125000704,645.786171499989,645.786171499989,x,0.5468818999361247,None,644.6842547999695,644.6842547999695,645.786171499989,,,,,,,,MW_eb,001,2025-03-23_17h32.31.186,MainFlow,2024.2.4,144.34701013912212,2025-03-23 17h32.40.454210 +0700,
2,16,0,word/worden0161.png,image/False/imgf16.png,192,192,0,x,0.5259141999995336,None,0,192,192,192,646.3434706999687,,,,,,,647.8293671000283,647.330203199992,647.3329857999925,647.3329857999925,647.8167804999975,648.9538133000024,648.9538133000024,x,0.5259141999995336,None,647.8224054999882,647.8224054999882,648.9538133000024,,,,,,,,MW_eb,001,2025-03-23_17h32.31.186,MainFlow,2024.2.4,144.34701013912212,2025-03-23 17h32.40.454210 +0700,
2,50,1,word/worden0501.png,image/True/img50.png,193,193,0,z,1.0301772999810055,None,0,193,193,193,649.4887672000332,,,,,,,650.9745562999742,650.4802872000728,650.4831346999854,650.4831346999854,650.9689370000269,652.09186340007,652.09186340007,z,1.0301772999810055,None,650.9745562999742,650.9745562999742,652.09186340007,,,,,,,,MW_eb,001,2025-03-23_17h32.31.186,MainFlow,2024.2.4,144.34701013912212,2025-03-23 17h32.40.454210 +0700,
2,63,1,word/worden0631.png,image/True/img63.png,194,194,0,z,0.6082057000603527,None,0,194,194,194,653.1362794999732,,,,,,,654.6341984000755,654.1365411999868,654.1398318000138,654.1398318000138,654.628366000019,655.7351096000057,655.7351096000057,z,0.6082057000603527,None,654.6341984000755,654.6341984000755,655.7351096000057,,,,,,,,MW_eb,001,2025-03-23_17h32.31.186,MainFlow,2024.2.4,144.34701013912212,2025-03-23 17h32.40.454210 +0700,
2,24,0,word/worden0241.png,image/False/imgf24.png,195,195,0,x,0.7690481001045555,None,0,195,195,195,656.3554925000062,,,,,,,657.8483273000456,657.3516095000086,657.3552406000672,657.3552406000672,657.8426230000332,658.9562403999735,658.9562403999735,x,0.7690481001045555,None,657.8483273000456,657.8483273000456,658.9562403999735,,,,,,,,MW_eb,001,2025-03-23_17h32.31.186,MainFlow,2024.2.4,144.34701013912212,2025-03-23 17h32.40.454210 +0700,
2,89,0,word/worden0891.png,image/False/imgf89.png,196,196,0,x,0.7398355000186712,None,0,196,196,196,659.7366635999642,,,,,,,661.2296743000625,660.7355631999671,660.7390249000164,660.7390249000164,661.2239045000169,662.334477400058,662.334477400058,x,0.7398355000186712,None,661.2296743000625,661.2296743000625,662.334477400058,,,,,,,,MW_eb,001,2025-03-23_17h32.31.186,MainFlow,2024.2.4,144.34701013912212,2025-03-23 17h32.40.454210 +0700,
2,6,0,word/worden0061.png,image/False/imgf06.png,197,197,0,x,0.5261763000162318,None,0,197,197,197,663.0833257000195,,,,,,,664.5761439000489,664.0793914999813,664.0829427000135,664.0829427000135,664.5703360000625,665.6708122000564,665.6708122000564,x,0.5261763000162318,None,664.5761439000489,664.5761439000489,665.6708122000564,,,,,,,,MW_eb,001,2025-03-23_17h32.31.186,MainFlow,2024.2.4,144.34701013912212,2025-03-23 17h32.40.454210 +0700,
2,41,0,word/worden0411.png,image/False/imgf41.png,198,198,0,x,0.5638015000149608,None,0,198,198,198,666.2077073999681,,,,,,,667.7006682000356,667.202604399994,667.2059360999847,667.2059360999847,667.6949666000437,668.7749185999855,668.7749185999855,x,0.5638015000149608,None,667.7006682000356,667.7006682000356,668.7749185999855,,,,,,,,MW_eb,001,2025-03-23_17h32.31.186,MainFlow,2024.2.4,144.34701013912212,2025-03-23 17h32.40.454210 +0700,
2,79,0,word/worden0791.png,image/False/imgf79.png,199,199,0,x,0.8211785999592394,None,0,199,199,199,669.3462240999797,,,,,,,670.8319752999814,670.3381755000446,670.3411002999637,670.3411002999637,670.8259834999917,671.9612523000687,671.9612523000687,x,0.8211785999592394,None,670.8319752999814,670.8319752999814,671.9612523000687,,,,,,,,MW_eb,001,2025-03-23_17h32.31.186,MainFlow,2024.2.4,144.34701013912212,2025-03-23 17h32.40.454210 +0700,
2,70,1,word/worden0701.png,image/True/img70.png,200,200,0,z,0.7215594000881538,None,0,200,200,200,672.7897300000768,,,,,,,674.289474899997,673.7952304000501,673.7988926999969,673.7988926999969,674.2837086999789,675.4038646999979,675.4038646999979,z,0.7215594000881538,None,674.289474899997,674.289474899997,,,,,,,,,MW_eb,001,2025-03-23_17h32.31.186,MainFlow,2024.2.4,144.34701013912212,2025-03-23 17h32.40.454210 +0700,
2,31,1,word/worden0311.png,image/True/img31.png,201,201,0,z,2.4326211999868974,None,0,201,201,201,676.1364493999863,,,,,,,677.6291091999738,677.13494550006,677.1384371999884,677.1384371999884,677.6232812000671,678.7225255999947,678.7225255999947,z,2.4326211999868974,None,677.6291091999738,677.6291091999738,678.7225255999947,,,,,,,,MW_eb,001,2025-03-23_17h32.31.186,MainFlow,2024.2.4,144.34701013912212,2025-03-23 17h32.40.454210 +0700,
2,9,1,word/worden0091.png,image/True/img09.png,202,202,0,x,0.5701160999014974,None,0,202,202,202,681.1650742000202,,,,,,,682.6491590000223,682.1509054000489,682.1538851000369,682.1538851000369,682.6437187000411,683.7204704000615,683.7204704000615,x,0.5701160999014974,None,682.6491590000223,682.6491590000223,683.7204704000615,,,,,,,,MW_eb,001,2025-03-23_17h32.31.186,MainFlow,2024.2.4,144.34701013912212,2025-03-23 17h32.40.454210 +0700,
2,27,1,word/worden0271.png,image/True/img27.png,203,203,0,z,0.5946578000439331,None,0,203,203,203,684.3015295000514,,,,,,,685.8012815000257,685.305643400061,685.3097796000075,685.3097796000075,685.7958834000165,686.896310799988,686.896310799988,z,0.5946578000439331,None,685.8012815000257,685.8012815000257,,,,,,,,,MW_eb,001,2025-03-23_17h32.31.186,MainFlow,2024.2.4,144.34701013912212,2025-03-23 17h32.40.454210 +0700,
2,75,0,word/worden0751.png,image/False/imgf75.png,204,204,0,x,0.5284676000010222,None,0,204,204,204,687.5021504000761,,,,,,,688.9949467000552,688.4970026999945,688.5004486000398,688.5004486000398,688.9887730000773,690.0962033000542,690.0962033000542,x,0.5284676000010222,None,688.9949467000552,688.9949467000552,690.0962033000542,,,,,,,,MW_eb,001,2025-03-23_17h32.31.186,MainFlow,2024.2.4,144.34701013912212,2025-03-23 17h32.40.454210 +0700,
2,87,0,word/worden0871.png,image/False/imgf87.png,205,205,0,x,0.7050349999917671,None,0,205,205,205,690.6358226999873,,,,,,,692.1264870000305,691.6312848000089,691.6346140999813,691.6346140999813,692.1211165999994,693.2150472999783,693.2150472999783,x,0.7050349999917671,None,692.1264870000305,692.1264870000305,693.2150472999783,,,,,,,,MW_eb,001,2025-03-23_17h32.31.186,MainFlow,2024.2.4,144.34701013912212,2025-03-23 17h32.40.454210 +0700,
2,8,0,word/worden0081.png,image/False/imgf08.png,206,206,0,x,0.5532654999988154,None,0,206,206,206,693.9315078000072,,,,,,,695.4245012999745,694.9290327000199,694.9325406000717,694.9325406000717,695.4190626000054,696.5162150000688,696.5162150000688,x,0.5532654999988154,None,695.4245012999745,695.4245012999745,696.5162150000688,,,,,,,,MW_eb,001,2025-03-23_17h32.31.186,MainFlow,2024.2.4,144.34701013912212,2025-03-23 17h32.40.454210 +0700,
2,24,1,word/worden0241.png,image/True/img24.png,207,207,0,x,0.6759700999828056,None,0,207,207,207,697.0768165000482,,,,,,,698.5764644000446,698.0808940000134,698.0845446999883,698.0845446999883,698.5705618000356,699.648890200071,699.648890200071,x,0.6759700999828056,None,698.5764644000446,698.5764644000446,,,,,,,,,MW_eb,001,2025-03-23_17h32.31.186,MainFlow,2024.2.4,144.34701013912212,2025-03-23 17h32.40.454210 +0700,
2,14,1,word/worden0141.png,image/True/img14.png,208,208,0,z,0.903311200090684,None,0,208,208,208,700.3330791000044,,,,,,,701.8259366999846,701.3277042000555,701.331246900023,701.331246900023,701.8206025999971,702.9441493999911,702.9441493999911,z,0.903311200090684,None,701.8259366999846,701.8259366999846,702.9441493999911,,,,,,,,MW_eb,001,2025-03-23_17h32.31.186,MainFlow,2024.2.4,144.34701013912212,2025-03-23 17h32.40.454210 +0700,
2,87,1,word/worden0871.png,image/True/img87.png,209,209,0,z,0.623656400013715,None,0,209,209,209,703.860145600047,,,,,,,705.3531593000516,704.8537444999674,704.857552499976,704.857552499976,705.3474755999632,706.47609380004,706.47609380004,z,0.623656400013715,None,705.3531593000516,705.3531593000516,706.47609380004,,,,,,,,MW_eb,001,2025-03-23_17h32.31.186,MainFlow,2024.2.4,144.34701013912212,2025-03-23 17h32.40.454210 +0700,
2,42,0,word/worden0421.png,image/False/imgf42.png,210,210,0,x,0.6669230000115931,None,0,210,210,210,707.1095797000453,,,,,,,708.6025321000488,708.1070164999692,708.1104217000538,708.1104217000538,708.5964629000518,709.7298321999842,709.7298321999842,x,0.6669230000115931,None,708.6025321000488,708.6025321000488,709.7298321999842,,,,,,,,MW_eb,001,2025-03-23_17h32.31.186,MainFlow,2024.2.4,144.34701013912212,2025-03-23 17h32.40.454210 +0700,
2,48,0,word/worden0481.png,image/False/imgf48.png,211,211,0,x,0.5359547999687493,None,0,211,211,211,710.4076400999911,,,,,,,711.9003288999666,711.4046049000463,711.4080557000125,711.4080557000125,711.8946904999902,713.0333024000283,713.0333024000283,x,0.5359547999687493,None,711.9003288999666,711.9003288999666,713.0333024000283,,,,,,,,MW_eb,001,2025-03-23_17h32.31.186,MainFlow,2024.2.4,144.34701013912212,2025-03-23 17h32.40.454210 +0700,
2,56,0,word/worden0561.png,image/False/imgf56.png,212,212,0,x,0.595615700003691,None,0,212,212,212,713.5804614999797,,,,,,,715.0733271000208,714.5801293000113,714.5834922000067,714.5834922000067,715.0680724000558,716.2160362000577,716.2160362000577,x,0.595615700003691,None,715.0733271000208,715.0733271000208,716.2160362000577,,,,,,,,MW_eb,001,2025-03-23_17h32.31.186,MainFlow,2024.2.4,144.34701013912212,2025-03-23 17h32.40.454210 +0700,
2,18,0,word/worden0181.png,image/False/imgf18.png,213,213,0,x,0.9812805000692606,None,0,213,213,213,716.8243390000425,,,,,,,718.3158161999891,717.8213232000126,717.8246993999928,717.8246993999928,718.3105164000299,719.4247665000148,719.4247665000148,x,0.9812805000692606,None,718.3158161999891,718.3158161999891,719.4247665000148,,,,,,,,MW_eb,001,2025-03-23_17h32.31.186,MainFlow,2024.2.4,144.34701013912212,2025-03-23 17h32.40.454210 +0700,
2,18,0,word/worden0181.png,image/False/imgf18.png,214,214,0,x,0.7916893999790773,None,0,214,214,214,720.412528200075,,,,,,,721.905234200065,721.4098002000246,721.413369200076,721.413369200076,721.8993960999651,723.0141370999627,723.0141370999627,x,0.7916893999790773,None,721.905234200065,721.905234200065,723.0141370999627,,,,,,,,MW_eb,001,2025-03-23_17h32.31.186,MainFlow,2024.2.4,144.34701013912212,2025-03-23 17h32.40.454210 +0700,
2,9,0,word/worden0091.png,image/False/imgf09.png,215,215,0,x,0.5679062999552116,None,0,215,215,215,723.814578599995,,,,,,,725.3077056000475,724.8095391000388,724.8131261999952,724.8131261999952,725.3023300999776,726.3917329000542,726.3917329000542,x,0.5679062999552116,None,725.3077056000475,725.3077056000475,726.3917329000542,,,,,,,,MW_eb,001,2025-03-23_17h32.31.186,MainFlow,2024.2.4,144.34701013912212,2025-03-23 17h32.40.454210 +0700,
2,55,0,word/worden0551.png,image/False/imgf55.png,216,216,0,x,0.7944367000600323,None,0,216,216,216,726.9686554999789,,,,,,,728.4597802000353,727.9643029000144,727.9678121000761,727.9678121000761,728.4546144000487,729.5709036999615,729.5709036999615,x,0.7944367000600323,None,728.4597802000353,728.4597802000353,729.5709036999615,,,,,,,,MW_eb,001,2025-03-23_17h32.31.186,MainFlow,2024.2.4,144.34701013912212,2025-03-23 17h32.40.454210 +0700,
2,17,0,word/worden0171.png,image/False/imgf17.png,217,217,0,z,0.5802307999692857,None,0,217,217,217,730.375817000051,,,,,,,731.8686150000431,731.3715203000465,731.374870800064,731.374870800064,731.8627983999904,732.9836687999777,732.9836687999777,z,0.5802307999692857,None,731.8686150000431,731.8686150000431,732.9836687999777,,,,,,,,MW_eb,001,2025-03-23_17h32.31.186,MainFlow,2024.2.4,144.34701013912212,2025-03-23 17h32.40.454210 +0700,
2,50,1,word/worden0501.png,image/True/img50.png,218,218,0,z,0.5175996000180021,None,0,218,218,218,733.5766734000063,,,,,,,735.0625574999722,734.5697499000235,734.5731176000554,734.5731176000554,735.0572685999796,736.186775200069,736.186775200069,z,0.5175996000180021,None,735.0625574999722,735.0625574999722,736.186775200069,,,,,,,,MW_eb,001,2025-03-23_17h32.31.186,MainFlow,2024.2.4,144.34701013912212,2025-03-23 17h32.40.454210 +0700,
2,20,0,word/worden0201.png,image/False/imgf20.png,219,219,0,x,0.6528702001087368,None,0,219,219,219,736.7149685000768,,,,,,,738.2076001999667,737.7123230000725,737.7157784000738,737.7157784000738,738.2017083000392,739.3607328999788,739.3607328999788,x,0.6528702001087368,None,738.2076001999667,738.2076001999667,739.3607328999788,,,,,,,,MW_eb,001,2025-03-23_17h32.31.186,MainFlow,2024.2.4,144.34701013912212,2025-03-23 17h32.40.454210 +0700,
2,36,0,word/worden0361.png,image/False/imgf36.png,220,220,0,x,1.1113230999326333,None,0,220,220,220,740.0198546000756,,,,,,,741.5128051000647,741.0161260999739,741.0196419999702,741.0196419999702,741.507733299979,742.6292571000522,742.6292571000522,x,1.1113230999326333,None,741.5128051000647,741.5128051000647,742.6292571000522,,,,,,,,MW_eb,001,2025-03-23_17h32.31.186,MainFlow,2024.2.4,144.34701013912212,2025-03-23 17h32.40.454210 +0700,
2,7,0,word/worden0071.png,image/False/imgf07.png,221,221,0,x,0.6983576999045908,None,0,221,221,221,743.7482324000448,,,,,,,745.2482336000539,744.7486866000108,744.7524522000458,744.7524522000458,745.2428415999748,746.3585142999655,746.3585142999655,x,0.6983576999045908,None,745.2482336000539,745.2482336000539,,,,,,,,,MW_eb,001,2025-03-23_17h32.31.186,MainFlow,2024.2.4,144.34701013912212,2025-03-23 17h32.40.454210 +0700,
2,7,1,word/worden0071.png,image/True/img07.png,222,222,0,z,1.0904687999282032,None,0,222,222,222,747.0690692999633,,,,,,,748.560066999984,748.0647496000165,748.0682212000247,748.0682212000247,748.5548461000435,749.6812675000401,749.6812675000401,z,1.0904687999282032,None,748.560066999984,748.560066999984,749.6812675000401,,,,,,,,MW_eb,001,2025-03-23_17h32.31.186,MainFlow,2024.2.4,144.34701013912212,2025-03-23 17h32.40.454210 +0700,
2,70,0,word/worden0701.png,image/False/imgf70.png,223,223,0,x,0.6894057999597862,None,0,223,223,223,750.7817030000733,,,,,,,752.2743956000777,751.7794323000126,751.7828901000321,751.7828901000321,752.2685599999968,753.3806010000408,753.3806010000408,x,0.6894057999597862,None,752.2743956000777,752.2743956000777,753.3806010000408,,,,,,,,MW_eb,001,2025-03-23_17h32.31.186,MainFlow,2024.2.4,144.34701013912212,2025-03-23 17h32.40.454210 +0700,
2,68,0,word/worden0681.png,image/False/imgf68.png,224,224,0,x,0.8067292000632733,None,0,224,224,224,754.0796134000411,,,,,,,755.5721982000396,755.0746122000273,755.0780689000385,755.0780689000385,755.5660422999645,756.6472601999994,756.6472601999994,x,0.8067292000632733,None,755.5721982000396,755.5721982000396,756.6472601999994,,,,,,,,MW_eb,001,2025-03-23_17h32.31.186,MainFlow,2024.2.4,144.34701013912212,2025-03-23 17h32.40.454210 +0700,
2,23,0,word/worden0231.png,image/False/imgf23.png,225,225,0,x,0.7758335000835359,None,0,225,225,225,757.4610159000149,,,,,,,758.9536538000684,758.456751300022,758.4600786999799,758.4600786999799,758.9477531000739,760.1040634000674,760.1040634000674,x,0.7758335000835359,None,758.9536538000684,758.9536538000684,760.1040634000674,,,,,,,,MW_eb,001,2025-03-23_17h32.31.186,MainFlow,2024.2.4,144.34701013912212,2025-03-23 17h32.40.454210 +0700,
2,56,0,word/worden0561.png,image/False/imgf56.png,226,226,0,x,0.642856499995105,None,0,226,226,226,760.8933546000626,,,,,,,762.3905926999869,761.8921217999887,761.8954148000339,761.8954148000339,762.3849364999915,763.5360221000155,763.5360221000155,x,0.642856499995105,None,762.3905926999869,762.3905926999869,763.5360221000155,,,,,,,,MW_eb,001,2025-03-23_17h32.31.186,MainFlow,2024.2.4,144.34701013912212,2025-03-23 17h32.40.454210 +0700,
2,17,1,word/worden0171.png,image/True/img17.png,227,227,0,z,1.1094771000789478,None,0,227,227,227,764.1888120999793,,,,,,,765.6815544000128,765.1856840000255,765.1891668000026,765.1891668000026,765.6758700000355,766.7964788000099,766.7964788000099,z,1.1094771000789478,None,765.6815544000128,765.6815544000128,766.7964788000099,,,,,,,,MW_eb,001,2025-03-23_17h32.31.186,MainFlow,2024.2.4,144.34701013912212,2025-03-23 17h32.40.454210 +0700,
2,94,1,word/worden0941.png,image/True/img94.png,228,228,0,z,0.837889900081791,None,0,228,228,228,767.9172218000749,,,,,,,769.4033658000408,768.9080978999846,768.9111015000381,768.9111015000381,769.3981329000089,770.5159261999652,770.5159261999652,z,0.837889900081791,None,769.4033658000408,769.4033658000408,770.5159261999652,,,,,,,,MW_eb,001,2025-03-23_17h32.31.186,MainFlow,2024.2.4,144.34701013912212,2025-03-23 17h32.40.454210 +0700,
