lang,wordid,truestate,worddir,imgdir,thisN,thisTrialN,thisRepN,key_resp.keys,key_resp.rt,key_resp.duration,trials.thisRepN,trials.thisTrialN,trials.thisN,trials.thisIndex,thisRow.t,notes,tutorial.started,tutorial.stopped,key_instruct.keys,key_instruct.rt,key_instruct.duration,plusblank.started,wordshow.started,image.started,plsuer.started,wordshow.stopped,imageword.started,key_resp.started,trials.key_resp.keys,trials.key_resp.rt,trials.key_resp.duration,image.stopped,plsuer.stopped,plusblank.stopped,ending.started,text_3.started,ending_key.started,ending.stopped,ending_key.keys,ending_key.rt,ending_key.duration,participant,session,date,expName,psychopyVersion,frameRate,expStart,
,,,,,,,,,,,,,,,,,0.002790599945001304,47.406600999995135,space,47.375800199923106,None,,,,,,,,,,,,,,,,,,,,,MW_th,001,2025-03-23_17h17.12.712,MainFlow,2024.2.4,141.64767415510084,2025-03-23 17h17.23.401951 +0700,
1,51,0,word/wordth0511.png,image/False/imgf51.png,0,0,0,x,1.5013747999910265,None,0,0,0,0,47.46645099995658,,,,,,,48.917518799891695,48.42723529995419,48.45147509989329,48.45147509989329,48.911093699978665,50.018842199933715,50.018842199933715,x,1.5013747999910265,None,,,,,,,,,,,MW_th,001,2025-03-23_17h17.12.712,MainFlow,2024.2.4,141.64767415510084,2025-03-23 17h17.23.401951 +0700,
1,66,1,word/wordth0661.png,image/True/img66.png,1,1,0,z,0.7952383999945596,None,0,1,1,1,51.528224299894646,,,,,,,53.03483699995559,52.5469693999039,52.55052179994527,52.55052179994527,53.028462999965996,54.13991339993663,54.13991339993663,z,0.7952383999945596,None,,,,,,,,,,,MW_th,001,2025-03-23_17h17.12.712,MainFlow,2024.2.4,141.64767415510084,2025-03-23 17h17.23.401951 +0700,
1,60,1,word/wordth0601.png,image/True/img60.png,2,2,0,z,0.7694916999898851,None,0,2,2,2,54.9459367999807,,,,,,,56.44413579988759,55.946209399960935,55.94905359996483,55.94905359996483,56.43779489991721,57.54257869999856,57.54257869999856,z,0.7694916999898851,None,56.44413579988759,56.44413579988759,57.54257869999856,,,,,,,,MW_th,001,2025-03-23_17h17.12.712,MainFlow,2024.2.4,141.64767415510084,2025-03-23 17h17.23.401951 +0700,
1,46,0,word/wordth0461.png,image/False/imgf46.png,3,3,0,x,1.1500955000519753,None,0,3,3,3,58.318526599905454,,,,,,,59.81133559998125,59.31712649995461,59.31983179994859,59.31983179994859,59.80543680000119,60.969745299895294,60.969745299895294,x,1.1500955000519753,None,59.81133559998125,59.81133559998125,60.969745299895294,,,,,,,,MW_th,001,2025-03-23_17h17.12.712,MainFlow,2024.2.4,141.64767415510084,2025-03-23 17h17.23.401951 +0700,
1,24,1,word/wordth0241.png,image/True/img24.png,4,4,0,z,0.5030167000368237,None,0,4,4,4,62.131674899952486,,,,,,,63.63025669998024,63.1354325999273,63.13825919991359,63.13825919991359,63.624943999922834,64.70266389998142,64.70266389998142,z,0.5030167000368237,None,63.63025669998024,63.63025669998024,,,,,,,,,MW_th,001,2025-03-23_17h17.12.712,MainFlow,2024.2.4,141.64767415510084,2025-03-23 17h17.23.401951 +0700,
1,68,1,word/wordth0681.png,image/True/img68.png,5,5,0,z,0.42433049995452166,None,0,5,5,5,65.21305769996252,,,,,,,66.71288459992502,66.2174001999665,66.22009489999618,66.22009489999618,66.70760319998953,67.78932749992236,67.78932749992236,z,0.42433049995452166,None,66.71288459992502,66.71288459992502,,,,,,,,,MW_th,001,2025-03-23_17h17.12.712,MainFlow,2024.2.4,141.64767415510084,2025-03-23 17h17.23.401951 +0700,
1,22,0,word/wordth0221.png,image/False/imgf22.png,6,6,0,x,0.6879649999318644,None,0,6,6,6,68.22640059993137,,,,,,,69.72619159996975,69.23020449990872,69.23295320000034,69.23295320000034,69.72082749998663,70.84871709998697,70.84871709998697,x,0.6879649999318644,None,69.72619159996975,69.72619159996975,,,,,,,,,MW_th,001,2025-03-23_17h17.12.712,MainFlow,2024.2.4,141.64767415510084,2025-03-23 17h17.23.401951 +0700,
1,36,1,word/wordth0361.png,image/True/img36.png,7,7,0,z,0.7338500999612734,None,0,7,7,7,71.54510679992381,,,,,,,73.05248639988713,72.56639699998777,72.56982479989529,72.56982479989529,73.04554119997192,74.13389149995055,74.13389149995055,z,0.7338500999612734,None,,,,,,,,,,,MW_th,001,2025-03-23_17h17.12.712,MainFlow,2024.2.4,141.64767415510084,2025-03-23 17h17.23.401951 +0700,
1,68,0,word/wordth0681.png,image/False/imgf68.png,8,8,0,x,0.6071652999380603,None,0,8,8,8,74.87777389993425,,,,,,,76.36398259992711,75.86851199995726,75.87134399998467,75.87134399998467,76.35869509994518,77.45107219996862,77.45107219996862,x,0.6071652999380603,None,76.36398259992711,76.36398259992711,77.45107219996862,,,,,,,,MW_th,001,2025-03-23_17h17.12.712,MainFlow,2024.2.4,141.64767415510084,2025-03-23 17h17.23.401951 +0700,
1,16,1,word/wordth0161.png,image/True/img16.png,9,9,0,z,0.7891232999972999,None,0,9,9,9,78.06463789998088,,,,,,,79.56450669991318,79.06613079993986,79.0688537999522,79.0688537999522,79.55871129990555,80.71898829995189,80.71898829995189,z,0.7891232999972999,None,79.56450669991318,79.56450669991318,,,,,,,,,MW_th,001,2025-03-23_17h17.12.712,MainFlow,2024.2.4,141.64767415510084,2025-03-23 17h17.23.401951 +0700,
1,94,1,word/wordth0941.png,image/True/img94.png,10,10,0,z,0.7885878999950364,None,0,10,10,10,81.51535369991325,,,,,,,83.0222418999765,82.53360629989766,82.53663319989573,82.53663319989573,83.01605689991266,84.12034909997601,84.12034909997601,z,0.7885878999950364,None,,,,,,,,,,,MW_th,001,2025-03-23_17h17.12.712,MainFlow,2024.2.4,141.64767415510084,2025-03-23 17h17.23.401951 +0700,
1,95,0,word/wordth0951.png,image/False/imgf95.png,11,11,0,x,0.746117900009267,None,0,11,11,11,84.91933199996129,,,,,,,86.42406979994848,85.93750629993156,85.94068069988862,85.94068069988862,86.41762279998511,87.54972719994839,87.54972719994839,x,0.746117900009267,None,,,,,,,,,,,MW_th,001,2025-03-23_17h17.12.712,MainFlow,2024.2.4,141.64767415510084,2025-03-23 17h17.23.401951 +0700,
1,30,0,word/wordth0301.png,image/False/imgf30.png,12,12,0,x,1.4118720999686047,None,0,12,12,12,88.30589129996952,,,,,,,89.812437399989,89.33789969992358,89.34098089998588,89.34098089998588,89.80611209990457,90.91721059998963,90.91721059998963,x,1.4118720999686047,None,,,,,,,,,,,MW_th,001,2025-03-23_17h17.12.712,MainFlow,2024.2.4,141.64767415510084,2025-03-23 17h17.23.401951 +0700,
1,20,1,word/wordth0201.png,image/True/img20.png,13,13,0,z,0.6395715000107884,None,0,13,13,13,92.33977569988929,,,,,,,93.83939499990083,93.34222559991758,93.34485659992788,93.34485659992788,93.83359299995936,94.95375200000126,94.95375200000126,z,0.6395715000107884,None,93.83939499990083,93.83939499990083,,,,,,,,,MW_th,001,2025-03-23_17h17.12.712,MainFlow,2024.2.4,141.64767415510084,2025-03-23 17h17.23.401951 +0700,
1,42,0,word/wordth0421.png,image/False/imgf42.png,14,14,0,x,0.5137626000214368,None,0,14,14,14,95.60307429998647,,,,,,,97.1026974999113,96.60620539996307,96.60977249999996,96.60977249999996,97.09717169997748,98.22415749996435,98.22415749996435,x,0.5137626000214368,None,97.1026974999113,97.1026974999113,,,,,,,,,MW_th,001,2025-03-23_17h17.12.712,MainFlow,2024.2.4,141.64767415510084,2025-03-23 17h17.23.401951 +0700,
1,31,1,word/wordth0311.png,image/True/img31.png,15,15,0,z,1.4598230000119656,None,0,15,15,15,98.7481043000007,,,,,,,100.25514519994613,99.7592628999846,99.76209350000136,99.76209350000136,100.248541799956,101.34333379997406,101.34333379997406,z,1.4598230000119656,None,,,,,,,,,,,MW_th,001,2025-03-23_17h17.12.712,MainFlow,2024.2.4,141.64767415510084,2025-03-23 17h17.23.401951 +0700,
1,55,1,word/wordth0551.png,image/True/img55.png,16,16,0,z,0.6045779000269249,None,0,16,16,16,102.80987799994182,,,,,,,104.31677599996328,103.82409109990112,103.82721599994693,103.82721599994693,104.31062599993311,105.44790489994921,105.44790489994921,z,0.6045779000269249,None,,,,,,,,,,,MW_th,001,2025-03-23_17h17.12.712,MainFlow,2024.2.4,141.64767415510084,2025-03-23 17h17.23.401951 +0700,
1,36,1,word/wordth0361.png,image/True/img36.png,17,17,0,z,0.4771933000301942,None,0,17,17,17,106.05938959994819,,,,,,,107.55905589996837,107.0662320998963,107.06982919992879,107.06982919992879,107.55329709989019,108.65591909992509,108.65591909992509,z,0.4771933000301942,None,107.55905589996837,107.55905589996837,,,,,,,,,MW_th,001,2025-03-23_17h17.12.712,MainFlow,2024.2.4,141.64767415510084,2025-03-23 17h17.23.401951 +0700,
1,9,1,word/wordth0091.png,image/True/img09.png,18,18,0,z,0.6434650999726728,None,0,18,18,18,109.14213539997581,,,,,,,110.64176159992348,110.14696589997038,110.14962999999989,110.14962999999989,110.63587949995417,111.7140046999557,111.7140046999557,z,0.6434650999726728,None,110.64176159992348,110.64176159992348,,,,,,,,,MW_th,001,2025-03-23_17h17.12.712,MainFlow,2024.2.4,141.64767415510084,2025-03-23 17h17.23.401951 +0700,
1,64,1,word/wordth0641.png,image/True/img64.png,19,19,0,z,0.6727187000215054,None,0,19,19,19,112.36371649999637,,,,,,,113.86330789991189,113.3681196999969,113.37088559998665,113.37088559998665,113.85737099999096,114.94397259992547,114.94397259992547,z,0.6727187000215054,None,113.86330789991189,113.86330789991189,,,,,,,,,MW_th,001,2025-03-23_17h17.12.712,MainFlow,2024.2.4,141.64767415510084,2025-03-23 17h17.23.401951 +0700,
1,95,1,word/wordth0951.png,image/True/img95.png,20,20,0,z,0.5979952000780031,None,0,20,20,20,115.62676439993083,,,,,,,117.11977879994083,116.6239875999745,116.62734939996153,116.62734939996153,117.11378449993208,118.2571842999896,118.2571842999896,z,0.5979952000780031,None,117.11977879994083,117.11977879994083,118.2571842999896,,,,,,,,MW_th,001,2025-03-23_17h17.12.712,MainFlow,2024.2.4,141.64767415510084,2025-03-23 17h17.23.401951 +0700,
1,41,1,word/wordth0411.png,image/True/img41.png,21,21,0,z,0.6128592999884859,None,0,21,21,21,118.86225009988993,,,,,,,120.36913689994253,119.87364159990102,119.87673799996264,119.87673799996264,120.36276809999254,121.48263899993617,121.48263899993617,z,0.6128592999884859,None,,,,,,,,,,,MW_th,001,2025-03-23_17h17.12.712,MainFlow,2024.2.4,141.64767415510084,2025-03-23 17h17.23.401951 +0700,
1,8,1,word/wordth0081.png,image/True/img08.png,22,22,0,z,0.478309000027366,None,0,22,22,22,122.10594539996237,,,,,,,123.60451839992311,123.10950529994443,123.11220189998858,123.11220189998858,123.59878279990517,124.70683429995552,124.70683429995552,z,0.478309000027366,None,123.60451839992311,123.60451839992311,,,,,,,,,MW_th,001,2025-03-23_17h17.12.712,MainFlow,2024.2.4,141.64767415510084,2025-03-23 17h17.23.401951 +0700,
1,60,1,word/wordth0601.png,image/True/img60.png,23,23,0,z,0.9664032000582665,None,0,23,23,23,125.19438879995141,,,,,,,126.68720960000064,126.19055929989554,126.19381089997478,126.19381089997478,126.68124299996998,127.78721759992186,127.78721759992186,z,0.9664032000582665,None,126.68720960000064,126.68720960000064,127.78721759992186,,,,,,,,MW_th,001,2025-03-23_17h17.12.712,MainFlow,2024.2.4,141.64767415510084,2025-03-23 17h17.23.401951 +0700,
1,48,0,word/wordth0481.png,image/False/imgf48.png,24,24,0,x,1.186954200034961,None,0,24,24,24,128.76329289993737,,,,,,,130.2629248999292,129.7671089998912,129.76984289998654,129.76984289998654,130.25748549995478,131.4073381999042,131.4073381999042,x,1.186954200034961,None,130.2629248999292,130.2629248999292,,,,,,,,,MW_th,001,2025-03-23_17h17.12.712,MainFlow,2024.2.4,141.64767415510084,2025-03-23 17h17.23.401951 +0700,
1,41,0,word/wordth0411.png,image/False/imgf41.png,25,25,0,x,0.5828461999772117,None,0,25,25,25,132.6027794999536,,,,,,,134.09566489991266,133.59794969996437,133.60129879997112,133.60129879997112,134.09051569993608,135.18298639997374,135.18298639997374,x,0.5828461999772117,None,134.09566489991266,134.09566489991266,135.18298639997374,,,,,,,,MW_th,001,2025-03-23_17h17.12.712,MainFlow,2024.2.4,141.64767415510084,2025-03-23 17h17.23.401951 +0700,
1,54,0,word/wordth0541.png,image/False/imgf54.png,26,26,0,x,1.0648897999199107,None,0,26,26,26,135.77719579997938,,,,,,,137.26863349997438,136.77521859994158,136.77820499998052,136.77820499998052,137.2633372999262,138.37912439997308,138.37912439997308,x,1.0648897999199107,None,137.26863349997438,137.26863349997438,138.37912439997308,,,,,,,,MW_th,001,2025-03-23_17h17.12.712,MainFlow,2024.2.4,141.64767415510084,2025-03-23 17h17.23.401951 +0700,
1,54,1,word/wordth0541.png,image/True/img54.png,27,27,0,z,0.48107670003082603,None,0,27,27,27,139.45563969993964,,,,,,,140.94830729998648,140.45111919997726,140.45460729999468,140.45460729999468,140.94252269994467,142.08558219997212,142.08558219997212,z,0.48107670003082603,None,140.94830729998648,140.94830729998648,142.08558219997212,,,,,,,,MW_th,001,2025-03-23_17h17.12.712,MainFlow,2024.2.4,141.64767415510084,2025-03-23 17h17.23.401951 +0700,
1,63,0,word/wordth0631.png,image/False/imgf63.png,28,28,0,x,1.781419500010088,None,0,28,28,28,142.57294459990226,,,,,,,144.07991629990283,143.5902866999386,143.5937271999428,143.5937271999428,144.07381259999238,145.20750869996846,145.20750869996846,x,1.781419500010088,None,,,,,,,,,,,MW_th,001,2025-03-23_17h17.12.712,MainFlow,2024.2.4,141.64767415510084,2025-03-23 17h17.23.401951 +0700,
1,37,0,word/wordth0371.png,image/False/imgf37.png,29,29,0,x,1.4390841000713408,None,0,29,29,29,146.99579139996786,,,,,,,148.49581749993376,147.99701239995193,147.9998118999647,147.9998118999647,148.48965279990807,149.65574449999258,149.65574449999258,x,1.4390841000713408,None,148.49581749993376,148.49581749993376,,,,,,,,,MW_th,001,2025-03-23_17h17.12.712,MainFlow,2024.2.4,141.64767415510084,2025-03-23 17h17.23.401951 +0700,
1,54,0,word/wordth0541.png,image/False/imgf54.png,30,30,0,x,0.5154634000500664,None,0,30,30,30,151.10604789992794,,,,,,,152.5992067999905,152.1063768999884,152.1100132999709,152.1100132999709,152.59394959989004,153.70906499994453,153.70906499994453,x,0.5154634000500664,None,152.5992067999905,152.5992067999905,153.70906499994453,,,,,,,,MW_th,001,2025-03-23_17h17.12.712,MainFlow,2024.2.4,141.64767415510084,2025-03-23 17h17.23.401951 +0700,
1,48,1,word/wordth0481.png,image/True/img48.png,31,31,0,z,0.6494557000696659,None,0,31,31,31,154.2304765000008,,,,,,,155.72347589989658,155.2292573999148,155.23252709989902,155.23252709989902,155.7178925999906,156.87035369989462,156.87035369989462,z,0.6494557000696659,None,155.72347589989658,155.72347589989658,156.87035369989462,,,,,,,,MW_th,001,2025-03-23_17h17.12.712,MainFlow,2024.2.4,141.64767415510084,2025-03-23 17h17.23.401951 +0700,
1,26,0,word/wordth0261.png,image/False/imgf26.png,32,32,0,x,2.158388299983926,None,0,32,32,32,157.5302592999069,,,,,,,159.03525649989024,158.54116299992893,158.5446454999037,158.5446454999037,159.02876469993498,160.15359859995078,160.15359859995078,x,2.158388299983926,None,,,,,,,,,,,MW_th,001,2025-03-23_17h17.12.712,MainFlow,2024.2.4,141.64767415510084,2025-03-23 17h17.23.401951 +0700,
1,59,0,word/wordth0591.png,image/False/imgf59.png,33,33,0,x,1.172288000001572,None,0,33,33,33,162.31922959990334,,,,,,,163.81914339994546,163.32173299998976,163.32448399998248,163.32448399998248,163.813834499917,164.91749389993493,164.91749389993493,x,1.172288000001572,None,163.81914339994546,163.81914339994546,,,,,,,,,MW_th,001,2025-03-23_17h17.12.712,MainFlow,2024.2.4,141.64767415510084,2025-03-23 17h17.23.401951 +0700,
1,8,1,word/wordth0081.png,image/True/img08.png,34,34,0,z,0.8330801000120118,None,0,34,34,34,166.09622819989454,,,,,,,167.58910779992584,167.09144029999152,167.09479529992677,167.09479529992677,167.5834055999294,168.66687239997555,168.66687239997555,z,0.8330801000120118,None,167.58910779992584,167.58910779992584,168.66687239997555,,,,,,,,MW_th,001,2025-03-23_17h17.12.712,MainFlow,2024.2.4,141.64767415510084,2025-03-23 17h17.23.401951 +0700,
1,66,1,word/wordth0661.png,image/True/img66.png,35,35,0,z,3.364477999974042,None,0,35,35,35,169.5121168999467,,,,,,,170.998091599904,170.4991018999135,170.5018032999942,170.5018032999942,170.98640870000236,172.11020699993242,172.11020699993242,z,3.364477999974042,None,170.9911690999288,170.9911690999288,172.11020699993242,,,,,,,,MW_th,001,2025-03-23_17h17.12.712,MainFlow,2024.2.4,141.64767415510084,2025-03-23 17h17.23.401951 +0700,
1,24,0,word/wordth0241.png,image/False/imgf24.png,36,36,0,x,5.007349100080319,None,0,36,36,36,175.48330399999395,,,,,,,176.97623969998676,176.47997709992342,176.48380159994122,176.48380159994122,176.9709700999083,178.08593919989653,178.08593919989653,x,5.007349100080319,None,176.97623969998676,176.97623969998676,178.08593919989653,,,,,,,,MW_th,001,2025-03-23_17h17.12.712,MainFlow,2024.2.4,141.64767415510084,2025-03-23 17h17.23.401951 +0700,
1,14,1,word/wordth0141.png,image/True/img14.png,37,37,0,z,0.5769831000361592,None,0,37,37,37,183.0998385999119,,,,,,,184.5997800999321,184.10606289992575,184.10891119996086,184.10891119996086,184.59405769989826,185.7248887999449,185.7248887999449,z,0.5769831000361592,None,184.5997800999321,184.5997800999321,,,,,,,,,MW_th,001,2025-03-23_17h17.12.712,MainFlow,2024.2.4,141.64767415510084,2025-03-23 17h17.23.401951 +0700,
1,20,0,word/wordth0201.png,image/False/imgf20.png,38,38,0,x,0.7928406000137329,None,0,38,38,38,186.31446039990988,,,,,,,187.80754829989746,187.31325459992513,187.31659419997595,187.31659419997595,187.80242429999635,188.95373419998214,188.95373419998214,x,0.7928406000137329,None,187.80754829989746,187.80754829989746,188.95373419998214,,,,,,,,MW_th,001,2025-03-23_17h17.12.712,MainFlow,2024.2.4,141.64767415510084,2025-03-23 17h17.23.401951 +0700,
1,89,0,word/wordth0891.png,image/False/imgf89.png,39,39,0,x,2.358680099947378,None,0,39,39,39,189.7583852999378,,,,,,,191.2651641999837,190.7737256999826,190.77695039997343,190.77695039997343,191.25891099998262,192.36937899992336,192.36937899992336,x,2.358680099947378,None,,,,,,,,,,,MW_th,001,2025-03-23_17h17.12.712,MainFlow,2024.2.4,141.64767415510084,2025-03-23 17h17.23.401951 +0700,
1,64,0,word/wordth0641.png,image/False/imgf64.png,40,40,0,x,1.0784565000794828,None,0,40,40,40,194.7364255998982,,,,,,,196.22935849998612,195.73200259997975,195.735309499898,195.735309499898,196.2234582999954,197.3329310999252,197.3329310999252,x,1.0784565000794828,None,196.22935849998612,196.22935849998612,197.3329310999252,,,,,,,,MW_th,001,2025-03-23_17h17.12.712,MainFlow,2024.2.4,141.64767415510084,2025-03-23 17h17.23.401951 +0700,
1,56,1,word/wordth0561.png,image/True/img56.png,41,41,0,z,0.46518790000118315,None,0,41,41,41,198.42444449989125,,,,,,,199.91613709996454,199.424294599914,199.42696699989028,199.42696699989028,199.91089529998135,201.04682729998603,201.04682729998603,z,0.46518790000118315,None,199.91613709996454,199.91613709996454,201.04682729998603,,,,,,,,MW_th,001,2025-03-23_17h17.12.712,MainFlow,2024.2.4,141.64767415510084,2025-03-23 17h17.23.401951 +0700,
1,15,1,word/wordth0151.png,image/True/img15.png,42,42,0,z,0.46786749991588295,None,0,42,42,42,201.51988549996167,,,,,,,203.02647939999588,202.53916989988647,202.54243489995133,202.54243489995133,203.0200274999952,204.18681220000144,204.18681220000144,z,0.46786749991588295,None,,,,,,,,,,,MW_th,001,2025-03-23_17h17.12.712,MainFlow,2024.2.4,141.64767415510084,2025-03-23 17h17.23.401951 +0700,
1,88,0,word/wordth0881.png,image/False/imgf88.png,43,43,0,x,1.2450404999544844,None,0,43,43,43,204.66525459999684,,,,,,,206.16500359994825,205.66634499991778,205.6692196999211,205.6692196999211,206.1590289999731,207.26916449994314,207.26916449994314,x,1.2450404999544844,None,206.16500359994825,206.16500359994825,,,,,,,,,MW_th,001,2025-03-23_17h17.12.712,MainFlow,2024.2.4,141.64767415510084,2025-03-23 17h17.23.401951 +0700,
1,94,1,word/wordth0941.png,image/True/img94.png,44,44,0,z,0.46252619998995215,None,0,44,44,44,208.5255866999505,,,,,,,210.0183014998911,209.5242539999308,209.52744959993288,209.52744959993288,210.0125230998965,211.12156749994028,211.12156749994028,z,0.46252619998995215,None,210.0183014998911,210.0183014998911,211.12156749994028,,,,,,,,MW_th,001,2025-03-23_17h17.12.712,MainFlow,2024.2.4,141.64767415510084,2025-03-23 17h17.23.401951 +0700,
1,40,0,word/wordth0401.png,image/False/imgf40.png,45,45,0,x,0.6633084000786766,None,0,45,45,45,211.59435679996386,,,,,,,213.09411049995106,212.59898989996873,212.6019510999322,212.6019510999322,213.08824879990425,214.20499179989565,214.20499179989565,x,0.6633084000786766,None,213.09411049995106,213.09411049995106,,,,,,,,,MW_th,001,2025-03-23_17h17.12.712,MainFlow,2024.2.4,141.64767415510084,2025-03-23 17h17.23.401951 +0700,
1,41,0,word/wordth0411.png,image/False/imgf41.png,46,46,0,x,0.48436530004255474,None,0,46,46,46,214.87841059989296,,,,,,,216.36461609997787,215.8690158999525,215.87184749997687,215.87184749997687,216.35934119997546,217.44880409992766,217.44880409992766,x,0.48436530004255474,None,216.36461609997787,216.36461609997787,217.44880409992766,,,,,,,,MW_th,001,2025-03-23_17h17.12.712,MainFlow,2024.2.4,141.64767415510084,2025-03-23 17h17.23.401951 +0700,
1,7,1,word/wordth0071.png,image/True/img07.png,47,47,0,z,1.089036599965766,None,0,47,47,47,217.94036479992792,,,,,,,219.4331947999308,218.94147359998897,218.94417859998066,218.94417859998066,219.42748059995938,220.57704379991628,220.57704379991628,z,1.089036599965766,None,219.4331947999308,219.4331947999308,220.57704379991628,,,,,,,,MW_th,001,2025-03-23_17h17.12.712,MainFlow,2024.2.4,141.64767415510084,2025-03-23 17h17.23.401951 +0700,
1,60,0,word/wordth0601.png,image/False/imgf60.png,48,48,0,x,0.7459140999708325,None,0,48,48,48,221.67578439996578,,,,,,,223.16848569991998,222.6743139999453,222.67754299996886,222.67754299996886,223.1625871999422,224.28515479993075,224.28515479993075,x,0.7459140999708325,None,223.16848569991998,223.16848569991998,224.28515479993075,,,,,,,,MW_th,001,2025-03-23_17h17.12.712,MainFlow,2024.2.4,141.64767415510084,2025-03-23 17h17.23.401951 +0700,
1,23,0,word/wordth0231.png,image/False/imgf23.png,49,49,0,x,0.7959178000455722,None,0,49,49,49,225.04311549989507,,,,,,,226.53595739998855,226.0441236998886,226.04682229994796,226.04682229994796,226.53007029998116,227.68511779990513,227.68511779990513,x,0.7959178000455722,None,226.53595739998855,226.53595739998855,227.68511779990513,,,,,,,,MW_th,001,2025-03-23_17h17.12.712,MainFlow,2024.2.4,141.64767415510084,2025-03-23 17h17.23.401951 +0700,
1,68,0,word/wordth0681.png,image/False/imgf68.png,50,50,0,x,0.6765889000380412,None,0,50,50,50,228.48941709997598,,,,,,,229.9866791999666,229.49260799994227,229.49594429996796,229.49594429996796,229.98082589998376,231.06963029992767,231.06963029992767,x,0.6765889000380412,None,229.9866791999666,229.9866791999666,231.06963029992767,,,,,,,,MW_th,001,2025-03-23_17h17.12.712,MainFlow,2024.2.4,141.64767415510084,2025-03-23 17h17.23.401951 +0700,
1,26,1,word/wordth0261.png,image/True/img26.png,51,51,0,z,2.350587800028734,None,0,51,51,51,231.75830569991376,,,,,,,233.24993819999509,232.75214099988807,232.75557309994474,232.75557309994474,233.24395809997804,234.3872221999336,234.3872221999336,z,2.350587800028734,None,233.24993819999509,233.24993819999509,234.3872221999336,,,,,,,,MW_th,001,2025-03-23_17h17.12.712,MainFlow,2024.2.4,141.64767415510084,2025-03-23 17h17.23.401951 +0700,
1,89,0,word/wordth0891.png,image/False/imgf89.png,52,52,0,x,0.605513499933295,None,0,52,52,52,236.7492483999813,,,,,,,238.24894549988676,237.74973939999472,237.75329779996537,237.75329779996537,238.24320939998142,239.34666899999138,239.34666899999138,x,0.605513499933295,None,238.24894549988676,238.24894549988676,,,,,,,,,MW_th,001,2025-03-23_17h17.12.712,MainFlow,2024.2.4,141.64767415510084,2025-03-23 17h17.23.401951 +0700,
1,3,0,word/wordth0031.png,image/False/imgf03.png,53,53,0,x,0.7992942000273615,None,0,53,53,53,239.9639182999963,,,,,,,241.4637510998873,240.96797499991953,240.97065539995674,240.97065539995674,241.458589799935,242.5818901999155,242.5818901999155,x,0.7992942000273615,None,241.4637510998873,241.4637510998873,,,,,,,,,MW_th,001,2025-03-23_17h17.12.712,MainFlow,2024.2.4,141.64767415510084,2025-03-23 17h17.23.401951 +0700,
1,55,1,word/wordth0551.png,image/True/img55.png,54,54,0,z,0.7377820999827236,None,0,54,54,54,243.3937459998997,,,,,,,244.88654359988868,244.38940799992997,244.39285099995323,244.39285099995323,244.88076659990475,246.01028349995613,246.01028349995613,z,0.7377820999827236,None,244.88654359988868,244.88654359988868,246.01028349995613,,,,,,,,MW_th,001,2025-03-23_17h17.12.712,MainFlow,2024.2.4,141.64767415510084,2025-03-23 17h17.23.401951 +0700,
1,46,1,word/wordth0461.png,image/True/img46.png,55,55,0,z,0.8802009999053553,None,0,55,55,55,246.75410369993187,,,,,,,248.2471529999748,247.75372289994266,247.75705989997368,247.75705989997368,248.24143319996074,249.402429599897,249.402429599897,z,0.8802009999053553,None,248.2471529999748,248.2471529999748,249.402429599897,,,,,,,,MW_th,001,2025-03-23_17h17.12.712,MainFlow,2024.2.4,141.64767415510084,2025-03-23 17h17.23.401951 +0700,
1,1,1,word/wordth0011.png,image/True/img01.png,56,56,0,z,0.6601482999976724,None,0,56,56,56,250.29513599991333,,,,,,,251.7882319999626,251.29602469992824,251.2988707999466,251.2988707999466,251.7829520999221,252.93273979995865,252.93273979995865,z,0.6601482999976724,None,251.7882319999626,251.7882319999626,252.93273979995865,,,,,,,,MW_th,001,2025-03-23_17h17.12.712,MainFlow,2024.2.4,141.64767415510084,2025-03-23 17h17.23.401951 +0700,
1,3,1,word/wordth0031.png,image/True/img03.png,57,57,0,z,1.1546923000132665,None,0,57,57,57,253.60007839999162,,,,,,,255.0930637998972,254.59805159992538,254.60134860000107,254.60134860000107,255.08778989990242,256.20801089995075,256.20801089995075,z,1.1546923000132665,None,255.0930637998972,255.0930637998972,256.20801089995075,,,,,,,,MW_th,001,2025-03-23_17h17.12.712,MainFlow,2024.2.4,141.64767415510084,2025-03-23 17h17.23.401951 +0700,
1,76,1,word/wordth0761.png,image/True/img76.png,58,58,0,z,1.1319815000751987,None,0,58,58,58,257.3712942999555,,,,,,,258.86302419996355,258.36762179993093,258.37034929997753,258.37034929997753,258.8574409999419,259.97668909991626,259.97668909991626,z,1.1319815000751987,None,258.86302419996355,258.86302419996355,259.97668909991626,,,,,,,,MW_th,001,2025-03-23_17h17.12.712,MainFlow,2024.2.4,141.64767415510084,2025-03-23 17h17.23.401951 +0700,
1,52,0,word/wordth0521.png,image/False/imgf52.png,59,59,0,x,1.3292553999926895,None,0,59,59,59,261.1193860999774,,,,,,,262.6261901999824,262.13114979991224,262.1338408999145,262.1338408999145,262.619794899947,263.74677509989124,263.74677509989124,x,1.3292553999926895,None,,,262.1338408999145,,,,,,,,MW_th,001,2025-03-23_17h17.12.712,MainFlow,2024.2.4,141.64767415510084,2025-03-23 17h17.23.401951 +0700,
1,14,0,word/wordth0141.png,image/False/imgf14.png,60,60,0,x,0.6541724000126123,None,0,60,60,60,265.08396899991203,,,,,,,266.5768594999099,266.0791967998957,266.08244119992014,266.08244119992014,266.57118989992887,267.6883787999395,267.6883787999395,x,0.6541724000126123,None,266.5768594999099,266.5768594999099,267.6883787999395,,,,,,,,MW_th,001,2025-03-23_17h17.12.712,MainFlow,2024.2.4,141.64767415510084,2025-03-23 17h17.23.401951 +0700,
1,61,1,word/wordth0611.png,image/True/img61.png,61,61,0,z,1.0775656999321654,None,0,61,61,61,268.35419589991216,,,,,,,269.86087649990804,269.37360119994264,269.37666289997287,269.37666289997287,269.854492799961,270.9763204999035,270.9763204999035,z,1.0775656999321654,None,,,,,,,,,,,MW_th,001,2025-03-23_17h17.12.712,MainFlow,2024.2.4,141.64767415510084,2025-03-23 17h17.23.401951 +0700,
1,93,0,word/wordth0931.png,image/False/imgf93.png,62,62,0,x,0.8363887999439612,None,0,62,62,62,272.0619206998963,,,,,,,273.5547513999045,273.062774799997,273.0654160999693,273.0654160999693,273.5494854999706,274.6646859999746,274.6646859999746,x,0.8363887999439612,None,273.5547513999045,273.5547513999045,274.6646859999746,,,,,,,,MW_th,001,2025-03-23_17h17.12.712,MainFlow,2024.2.4,141.64767415510084,2025-03-23 17h17.23.401951 +0700,
1,37,1,word/wordth0371.png,image/True/img37.png,63,63,0,z,0.8542757999384776,None,0,63,63,63,275.51257189991884,,,,,,,277.005288299988,276.50748189992737,276.5108125999104,276.5108125999104,276.9994009999791,278.14155389997177,278.14155389997177,z,0.8542757999384776,None,277.005288299988,277.005288299988,278.14155389997177,,,,,,,,MW_th,001,2025-03-23_17h17.12.712,MainFlow,2024.2.4,141.64767415510084,2025-03-23 17h17.23.401951 +0700,
1,79,0,word/wordth0791.png,image/False/imgf79.png,64,64,0,z,0.6939360999967903,None,0,64,64,64,279.0065839999588,,,,,,,280.50494179991074,280.00673239992466,280.00952219998,280.00952219998,280.4998102999525,281.65797369997017,281.65797369997017,z,0.6939360999967903,None,280.50494179991074,280.50494179991074,,,,,,,,,MW_th,001,2025-03-23_17h17.12.712,MainFlow,2024.2.4,141.64767415510084,2025-03-23 17h17.23.401951 +0700,
1,37,0,word/wordth0371.png,image/False/imgf37.png,65,65,0,x,0.5949735000031069,None,0,65,65,65,282.35988139989786,,,,,,,283.84449319995474,283.35103509994224,283.35430069989525,283.35430069989525,283.84018719999585,284.9821931999177,284.9821931999177,x,0.5949735000031069,None,283.84449319995474,283.84449319995474,284.9821931999177,,,,,,,,MW_th,001,2025-03-23_17h17.12.712,MainFlow,2024.2.4,141.64767415510084,2025-03-23 17h17.23.401951 +0700,
1,3,1,word/wordth0031.png,image/True/img03.png,66,66,0,z,0.6265833000652492,None,0,66,66,66,285.58694639999885,,,,,,,287.0798612999497,286.5870980999898,286.5905792999547,286.5905792999547,287.07427859993186,288.19297939992975,288.19297939992975,z,0.6265833000652492,None,287.0798612999497,287.0798612999497,288.19297939992975,,,,,,,,MW_th,001,2025-03-23_17h17.12.712,MainFlow,2024.2.4,141.64767415510084,2025-03-23 17h17.23.401951 +0700,
1,93,0,word/wordth0931.png,image/False/imgf93.png,67,67,0,z,0.8708268000045791,None,0,67,67,67,288.82985799992457,,,,,,,290.32220029993914,289.8283645999618,289.8317344998941,289.8317344998941,290.3165831998922,291.41442119993735,291.41442119993735,z,0.8708268000045791,None,290.32220029993914,290.32220029993914,291.41442119993735,,,,,,,,MW_th,001,2025-03-23_17h17.12.712,MainFlow,2024.2.4,141.64767415510084,2025-03-23 17h17.23.401951 +0700,
1,30,1,word/wordth0301.png,image/True/img30.png,68,68,0,z,0.5694131999043748,None,0,68,68,68,292.2956508999923,,,,,,,293.79378439998254,293.296818499919,293.3002479999559,293.3002479999559,293.7879716999596,294.9013441998977,294.9013441998977,z,0.5694131999043748,None,293.79378439998254,293.79378439998254,294.9013441998977,,,,,,,,MW_th,001,2025-03-23_17h17.12.712,MainFlow,2024.2.4,141.64767415510084,2025-03-23 17h17.23.401951 +0700,
1,46,0,word/wordth0461.png,image/False/imgf46.png,69,69,0,x,1.234146700007841,None,0,69,69,69,295.48091589997057,,,,,,,296.97383489995264,296.47679799993057,296.48024119995534,296.48024119995534,296.96839639998507,298.10319649998564,298.10319649998564,x,1.234146700007841,None,296.97383489995264,296.97383489995264,298.10319649998564,,,,,,,,MW_th,001,2025-03-23_17h17.12.712,MainFlow,2024.2.4,141.64767415510084,2025-03-23 17h17.23.401951 +0700,
1,27,0,word/wordth0271.png,image/False/imgf27.png,70,70,0,x,0.9243272999301553,None,0,70,70,70,299.3481914999429,,,,,,,300.8480587999802,300.3501960999565,300.35298149997834,300.35298149997834,300.8422558999155,301.96844219998457,301.96844219998457,x,0.9243272999301553,None,300.8480587999802,300.8480587999802,,,,,,,,,MW_th,001,2025-03-23_17h17.12.712,MainFlow,2024.2.4,141.64767415510084,2025-03-23 17h17.23.401951 +0700,
1,37,1,word/wordth0371.png,image/True/img37.png,71,71,0,z,0.6630558000179008,None,0,71,71,71,302.9029361999128,,,,,,,304.3959259999683,303.90304209990427,303.9063767999178,303.9063767999178,304.3902300999034,305.53895239997655,305.53895239997655,z,0.6630558000179008,None,304.3959259999683,304.3959259999683,305.53895239997655,,,,,,,,MW_th,001,2025-03-23_17h17.12.712,MainFlow,2024.2.4,141.64767415510084,2025-03-23 17h17.23.401951 +0700,
1,20,1,word/wordth0201.png,image/True/img20.png,72,72,0,z,0.5162129999371246,None,0,72,72,72,306.2079328999389,,,,,,,307.69394549995195,307.20143229991663,307.2047655999195,307.2047655999195,307.68822759995237,308.82049369998276,308.82049369998276,z,0.5162129999371246,None,307.69394549995195,307.69394549995195,308.82049369998276,,,,,,,,MW_th,001,2025-03-23_17h17.12.712,MainFlow,2024.2.4,141.64767415510084,2025-03-23 17h17.23.401951 +0700,
1,17,1,word/wordth0171.png,image/True/img17.png,73,73,0,z,0.6214303000597283,None,0,73,73,73,309.34624779992737,,,,,,,310.84597259992734,310.3519259999739,310.3547450999031,310.3547450999031,310.84042989998125,311.9474896999309,311.9474896999309,z,0.6214303000597283,None,310.84597259992734,310.84597259992734,,,,,,,,,MW_th,001,2025-03-23_17h17.12.712,MainFlow,2024.2.4,141.64767415510084,2025-03-23 17h17.23.401951 +0700,
1,10,0,word/wordth0101.png,image/False/imgf10.png,74,74,0,z,0.6718073999509215,None,0,74,74,74,312.5817986999173,,,,,,,314.08151359995827,313.58442329999525,313.5871526999399,313.5871526999399,314.075675399974,315.20361440000124,315.20361440000124,z,0.6718073999509215,None,314.08151359995827,314.08151359995827,,,,,,,,,MW_th,001,2025-03-23_17h17.12.712,MainFlow,2024.2.4,141.64767415510084,2025-03-23 17h17.23.401951 +0700,
1,68,1,word/wordth0681.png,image/True/img68.png,75,75,0,z,0.563728200038895,None,0,75,75,75,315.8866788999876,,,,,,,317.38638719997834,316.88724739989266,316.8907953999005,316.8907953999005,317.3806332999375,318.4650136999553,318.4650136999553,z,0.563728200038895,None,317.38638719997834,317.38638719997834,,,,,,,,,MW_th,001,2025-03-23_17h17.12.712,MainFlow,2024.2.4,141.64767415510084,2025-03-23 17h17.23.401951 +0700,
1,82,0,word/wordth0821.png,image/False/imgf82.png,76,76,0,x,1.2412484999513254,None,0,76,76,76,319.03895469999406,,,,,,,320.5457215999486,320.0506432999391,320.0534442999633,320.0534442999633,320.5393907999387,321.6740055999253,321.6740055999253,x,1.2412484999513254,None,,,,,,,,,,,MW_th,001,2025-03-23_17h17.12.712,MainFlow,2024.2.4,141.64767415510084,2025-03-23 17h17.23.401951 +0700,
1,42,1,word/wordth0421.png,image/True/img42.png,77,77,0,z,1.4476402000291273,None,0,77,77,77,322.9269309999654,,,,,,,324.4198320999276,323.9223558999365,323.9255568999797,323.9255568999797,324.41381810000166,325.5328362999717,325.5328362999717,z,1.4476402000291273,None,324.4198320999276,324.4198320999276,325.5328362999717,,,,,,,,MW_th,001,2025-03-23_17h17.12.712,MainFlow,2024.2.4,141.64767415510084,2025-03-23 17h17.23.401951 +0700,
1,59,1,word/wordth0591.png,image/True/img59.png,78,78,0,z,0.40562340000178665,None,0,78,78,78,326.98868289997336,,,,,,,328.4747948999284,327.97632409993093,327.9790188999614,327.9790188999614,328.46941679995507,329.5677412999794,329.5677412999794,z,0.40562340000178665,None,328.4747948999284,328.4747948999284,329.5677412999794,,,,,,,,MW_th,001,2025-03-23_17h17.12.712,MainFlow,2024.2.4,141.64767415510084,2025-03-23 17h17.23.401951 +0700,
1,18,1,word/wordth0181.png,image/True/img18.png,79,79,0,z,0.41555100004188716,None,0,79,79,79,329.9810891998932,,,,,,,331.4741678999271,330.98045099992305,330.98309179989155,330.98309179989155,331.46881319989916,332.5778071999084,332.5778071999084,z,0.41555100004188716,None,331.4741678999271,331.4741678999271,332.5778071999084,,,,,,,,MW_th,001,2025-03-23_17h17.12.712,MainFlow,2024.2.4,141.64767415510084,2025-03-23 17h17.23.401951 +0700,
1,63,1,word/wordth0631.png,image/True/img63.png,80,80,0,z,0.4952573999762535,None,0,80,80,80,333.00155889999587,,,,,,,334.50121979997493,334.00246339989826,334.0058114998974,334.0058114998974,334.4951187999686,335.6296401999425,335.6296401999425,z,0.4952573999762535,None,334.50121979997493,334.50121979997493,,,,,,,,,MW_th,001,2025-03-23_17h17.12.712,MainFlow,2024.2.4,141.64767415510084,2025-03-23 17h17.23.401951 +0700,
1,40,0,word/wordth0401.png,image/False/imgf40.png,81,81,0,x,0.630624599987641,None,0,81,81,81,336.13276659999974,,,,,,,337.6255507998867,337.12961959990207,337.13236479996704,337.13236479996704,337.6197780999355,338.73872789996676,338.73872789996676,x,0.630624599987641,None,337.6255507998867,337.6255507998867,338.73872789996676,,,,,,,,MW_th,001,2025-03-23_17h17.12.712,MainFlow,2024.2.4,141.64767415510084,2025-03-23 17h17.23.401951 +0700,
1,55,0,word/wordth0551.png,image/False/imgf55.png,82,82,0,x,0.5633210999658331,None,0,82,82,82,339.38207319995854,,,,,,,340.8680926999077,340.3757970998995,340.3786658999743,340.3786658999743,340.86231479991693,341.98045699996874,341.98045699996874,x,0.5633210999658331,None,340.8680926999077,340.8680926999077,341.98045699996874,,,,,,,,MW_th,001,2025-03-23_17h17.12.712,MainFlow,2024.2.4,141.64767415510084,2025-03-23 17h17.23.401951 +0700,
1,26,1,word/wordth0261.png,image/True/img26.png,83,83,0,z,0.5761513999896124,None,0,83,83,83,342.555059999926,,,,,,,344.0411879000021,343.548586799996,343.55172279989347,343.55172279989347,344.03584789996967,345.1760365999071,345.1760365999071,z,0.5761513999896124,None,344.0411879000021,344.0411879000021,345.1760365999071,,,,,,,,MW_th,001,2025-03-23_17h17.12.712,MainFlow,2024.2.4,141.64767415510084,2025-03-23 17h17.23.401951 +0700,
1,28,0,word/wordth0281.png,image/False/imgf28.png,84,84,0,z,0.7767345999600366,None,0,84,84,84,345.76279879990034,,,,,,,347.2627519998932,346.7689415999921,346.77167619997635,346.77167619997635,347.2574639999075,348.3853362998925,348.3853362998925,z,0.7767345999600366,None,347.2627519998932,347.2627519998932,,,,,,,,,MW_th,001,2025-03-23_17h17.12.712,MainFlow,2024.2.4,141.64767415510084,2025-03-23 17h17.23.401951 +0700,
1,8,0,word/wordth0081.png,image/False/imgf08.png,85,85,0,x,0.5684746999759227,None,0,85,85,85,349.1718731999863,,,,,,,350.6646499999333,350.1672890998889,350.1704403999029,350.1704403999029,350.658861599979,351.7662675998872,351.7662675998872,x,0.5684746999759227,None,350.6646499999333,350.6646499999333,351.7662675998872,,,,,,,,MW_th,001,2025-03-23_17h17.12.712,MainFlow,2024.2.4,141.64767415510084,2025-03-23 17h17.23.401951 +0700,
1,9,1,word/wordth0091.png,image/True/img09.png,86,86,0,z,0.41216199996415526,None,0,86,86,86,352.3449749998981,,,,,,,353.83783949993085,353.34050209994894,353.3437766999705,353.3437766999705,353.83245619991794,354.9023938999744,354.9023938999744,z,0.41216199996415526,None,353.83783949993085,353.83783949993085,354.9023938999744,,,,,,,,MW_th,001,2025-03-23_17h17.12.712,MainFlow,2024.2.4,141.64767415510084,2025-03-23 17h17.23.401951 +0700,
1,78,1,word/wordth0781.png,image/True/img78.png,87,87,0,z,1.7726592000108212,None,0,87,87,87,355.32342949998565,,,,,,,356.83040809992235,356.337742799893,356.3414063999662,356.3414063999662,356.82411799998954,357.9212395999348,357.9212395999348,z,1.7726592000108212,None,,,,,,,,,,,MW_th,001,2025-03-23_17h17.12.712,MainFlow,2024.2.4,141.64767415510084,2025-03-23 17h17.23.401951 +0700,
1,1,0,word/wordth0011.png,image/False/imgf01.png,88,88,0,x,0.6115857000695542,None,0,88,88,88,359.7046164999483,,,,,,,361.19726159994025,360.7039862999227,360.7074552999111,360.7074552999111,361.19148189993575,362.3026781999506,362.3026781999506,x,0.6115857000695542,None,361.19726159994025,361.19726159994025,362.3026781999506,,,,,,,,MW_th,001,2025-03-23_17h17.12.712,MainFlow,2024.2.4,141.64767415510084,2025-03-23 17h17.23.401951 +0700,
1,71,1,word/wordth0711.png,image/True/img71.png,89,89,0,z,0.5277482999954373,None,0,89,89,89,362.92607029993087,,,,,,,364.42617309989873,363.93348829995375,363.93630579998717,363.93630579998717,364.4202125999145,365.5550848999992,365.5550848999992,z,0.5277482999954373,None,364.42617309989873,364.42617309989873,,,,,,,,,MW_th,001,2025-03-23_17h17.12.712,MainFlow,2024.2.4,141.64767415510084,2025-03-23 17h17.23.401951 +0700,
1,93,1,word/wordth0931.png,image/True/img93.png,90,90,0,z,0.7943598000565544,None,0,90,90,90,366.0922250999138,,,,,,,367.5851656999439,367.09270489995833,367.09606749995146,367.09606749995146,367.57910569990054,368.70734749990515,368.70734749990515,z,0.7943598000565544,None,367.5851656999439,367.5851656999439,368.70734749990515,,,,,,,,MW_th,001,2025-03-23_17h17.12.712,MainFlow,2024.2.4,141.64767415510084,2025-03-23 17h17.23.401951 +0700,
1,78,0,word/wordth0781.png,image/False/imgf78.png,91,91,0,x,1.1077664999756962,None,0,91,91,91,369.5082256998867,,,,,,,371.00098999997135,370.50239019992296,370.5055341999978,370.5055341999978,370.9954559999751,372.08909719996154,372.08909719996154,x,1.1077664999756962,None,371.00098999997135,371.00098999997135,372.08909719996154,,,,,,,,MW_th,001,2025-03-23_17h17.12.712,MainFlow,2024.2.4,141.64767415510084,2025-03-23 17h17.23.401951 +0700,
1,8,0,word/wordth0081.png,image/False/imgf08.png,92,92,0,x,0.6406239999923855,None,0,92,92,92,373.20892239990644,,,,,,,374.70859769999515,374.2119110999629,374.21526839991566,374.21526839991566,374.7027407999849,375.7944851999637,375.7944851999637,x,0.6406239999923855,None,374.70859769999515,374.70859769999515,,,,,,,,,MW_th,001,2025-03-23_17h17.12.712,MainFlow,2024.2.4,141.64767415510084,2025-03-23 17h17.23.401951 +0700,
1,9,0,word/wordth0091.png,image/False/imgf09.png,93,93,0,x,0.4919163000304252,None,0,93,93,93,376.4444413998863,,,,,,,377.94395869993605,377.44714489998296,377.45048299990594,377.45048299990594,377.937891199952,379.04391609993763,379.04391609993763,x,0.4919163000304252,None,377.94395869993605,377.94395869993605,,,,,,,,,MW_th,001,2025-03-23_17h17.12.712,MainFlow,2024.2.4,141.64767415510084,2025-03-23 17h17.23.401951 +0700,
1,75,1,word/wordth0751.png,image/True/img75.png,94,94,0,z,0.7330106999725103,None,0,94,94,94,379.54800109995995,,,,,,,381.04786789999343,380.55206799996085,380.5548956999555,380.5548956999555,381.0420052999398,382.16086989990436,382.16086989990436,z,0.7330106999725103,None,381.04786789999343,381.04786789999343,,,,,,,,,MW_th,001,2025-03-23_17h17.12.712,MainFlow,2024.2.4,141.64767415510084,2025-03-23 17h17.23.401951 +0700,
1,95,0,word/wordth0951.png,image/False/imgf95.png,95,95,0,x,0.5057302999775857,None,0,95,95,95,382.9014704999281,,,,,,,384.3943446999183,383.89711159991566,383.9003520999104,383.9003520999104,384.3885475998977,385.52226869994774,385.52226869994774,x,0.5057302999775857,None,384.3943446999183,384.3943446999183,385.52226869994774,,,,,,,,MW_th,001,2025-03-23_17h17.12.712,MainFlow,2024.2.4,141.64767415510084,2025-03-23 17h17.23.401951 +0700,
1,70,1,word/wordth0701.png,image/True/img70.png,96,96,0,z,0.49974660004954785,None,0,96,96,96,386.0397514998913,,,,,,,387.54643729992677,387.0525043999078,387.05583889991976,387.05583889991976,387.54018179990817,388.69342569995206,388.69342569995206,z,0.49974660004954785,None,,,,,,,,,,,MW_th,001,2025-03-23_17h17.12.712,MainFlow,2024.2.4,141.64767415510084,2025-03-23 17h17.23.401951 +0700,
1,94,0,word/wordth0941.png,image/False/imgf94.png,97,97,0,x,0.6632941999705508,None,0,97,97,97,389.2058438999811,,,,,,,390.6985966999782,390.20404359989334,390.2073061999399,390.2073061999399,390.6927719999803,391.8548709999304,391.8548709999304,x,0.6632941999705508,None,390.6985966999782,390.6985966999782,391.8548709999304,,,,,,,,MW_th,001,2025-03-23_17h17.12.712,MainFlow,2024.2.4,141.64767415510084,2025-03-23 17h17.23.401951 +0700,
1,9,0,word/wordth0091.png,image/False/imgf09.png,98,98,0,x,0.7258307000156492,None,0,98,98,98,392.5247171999654,,,,,,,394.017517899978,393.52436389995273,393.5276029999368,393.5276029999368,394.0123372999951,395.1014249,395.1014249,x,0.7258307000156492,None,394.017517899978,394.017517899978,395.1014249,,,,,,,,MW_th,001,2025-03-23_17h17.12.712,MainFlow,2024.2.4,141.64767415510084,2025-03-23 17h17.23.401951 +0700,
1,18,0,word/wordth0181.png,image/False/imgf18.png,99,99,0,z,1.7580029999371618,None,0,99,99,99,395.8364963999484,,,,,,,397.3292351999553,396.83338859991636,396.83678469993174,396.83678469993174,397.32336119993124,398.44251449999865,398.44251449999865,z,1.7580029999371618,None,397.3292351999553,397.3292351999553,398.44251449999865,,,,,,,,MW_th,001,2025-03-23_17h17.12.712,MainFlow,2024.2.4,141.64767415510084,2025-03-23 17h17.23.401951 +0700,
1,28,1,word/wordth0281.png,image/True/img28.png,100,100,0,z,0.8951847000280395,None,0,100,100,100,400.2108036999125,,,,,,,401.7034038999118,401.20968019997235,401.2129406000022,401.2129406000022,401.697596999933,402.8548810998909,402.8548810998909,z,0.8951847000280395,None,401.7034038999118,401.7034038999118,402.8548810998909,,,,,,,,MW_th,001,2025-03-23_17h17.12.712,MainFlow,2024.2.4,141.64767415510084,2025-03-23 17h17.23.401951 +0700,
1,23,1,word/wordth0231.png,image/True/img23.png,101,101,0,z,1.0580800999887288,None,0,101,101,101,403.7590936999768,,,,,,,405.25131259998307,404.75446809991263,404.75791849999223,404.75791849999223,405.24549929995555,406.3701221999945,406.3701221999945,z,1.0580800999887288,None,405.25131259998307,405.25131259998307,406.3701221999945,,,,,,,,MW_th,001,2025-03-23_17h17.12.712,MainFlow,2024.2.4,141.64767415510084,2025-03-23 17h17.23.401951 +0700,
1,30,0,word/wordth0301.png,image/False/imgf30.png,102,102,0,x,1.022886999999173,None,0,102,102,102,407.4383506999584,,,,,,,408.9243198999902,408.42587289994117,408.4287050999701,408.4287050999701,408.918603099999,410.03167469997425,410.03167469997425,x,1.022886999999173,None,408.9243198999902,408.9243198999902,410.03167469997425,,,,,,,,MW_th,001,2025-03-23_17h17.12.712,MainFlow,2024.2.4,141.64767415510084,2025-03-23 17h17.23.401951 +0700,
1,11,1,word/wordth0111.png,image/True/img11.png,103,103,0,z,0.8627953000832349,None,0,103,103,103,411.0627459998941,,,,,,,412.56267919996753,412.06519419990946,412.06799929996487,412.06799929996487,412.55740629998036,413.7142894999124,413.7142894999124,z,0.8627953000832349,None,412.56267919996753,412.56267919996753,,,,,,,,,MW_th,001,2025-03-23_17h17.12.712,MainFlow,2024.2.4,141.64767415510084,2025-03-23 17h17.23.401951 +0700,
1,75,0,word/wordth0751.png,image/False/imgf75.png,104,104,0,x,0.6554069999838248,None,0,104,104,104,414.5897686999524,,,,,,,416.082550299936,415.5858121999772,415.5891247999389,415.5891247999389,416.0767190998886,417.2060035999166,417.2060035999166,x,0.6554069999838248,None,416.082550299936,416.082550299936,417.2060035999166,,,,,,,,MW_th,001,2025-03-23_17h17.12.712,MainFlow,2024.2.4,141.64767415510084,2025-03-23 17h17.23.401951 +0700,
1,6,0,word/wordth0061.png,image/False/imgf06.png,105,105,0,x,0.8112493000226095,None,0,105,105,105,417.8738465999486,,,,,,,419.3737534999382,418.8777017999673,418.8804942999268,418.8804942999268,419.3683354998939,420.4679191999603,420.4679191999603,x,0.8112493000226095,None,419.3737534999382,419.3737534999382,,,,,,,,,MW_th,001,2025-03-23_17h17.12.712,MainFlow,2024.2.4,141.64767415510084,2025-03-23 17h17.23.401951 +0700,
1,27,1,word/wordth0271.png,image/True/img27.png,106,106,0,z,0.4751105000032112,None,0,106,106,106,421.29083869990427,,,,,,,422.7827280999627,422.2887610999169,422.29198599990923,422.29198599990923,422.77708179992624,423.88285119994543,423.88285119994543,z,0.4751105000032112,None,422.7827280999627,422.7827280999627,423.88285119994543,,,,,,,,MW_th,001,2025-03-23_17h17.12.712,MainFlow,2024.2.4,141.64767415510084,2025-03-23 17h17.23.401951 +0700,
1,1,1,word/wordth0011.png,image/True/img01.png,107,107,0,z,0.46423249994404614,None,0,107,107,107,424.36570719990414,,,,,,,425.85845639999025,425.36341869994067,425.3666282999329,425.3666282999329,425.85265179991256,426.9915571999736,426.9915571999736,z,0.46423249994404614,None,425.85845639999025,425.85845639999025,426.9915571999736,,,,,,,,MW_th,001,2025-03-23_17h17.12.712,MainFlow,2024.2.4,141.64767415510084,2025-03-23 17h17.23.401951 +0700,
1,44,0,word/wordth0441.png,image/False/imgf44.png,108,108,0,x,0.5905748000368476,None,0,108,108,108,427.4641749999719,,,,,,,428.96211019996554,428.46847639989574,428.4712945999345,428.4712945999345,428.9563892999431,430.11044339998625,430.11044339998625,x,0.5905748000368476,None,428.96211019996554,428.96211019996554,,,,,,,,,MW_th,001,2025-03-23_17h17.12.712,MainFlow,2024.2.4,141.64767415510084,2025-03-23 17h17.23.401951 +0700,
1,48,0,word/wordth0481.png,image/False/imgf48.png,109,109,0,x,0.8916262000566348,None,0,109,109,109,430.7116105000023,,,,,,,432.2046097998973,431.7090688999742,431.7123849999625,431.7123849999625,432.1990745998919,433.333970699925,433.333970699925,x,0.8916262000566348,None,432.2046097998973,432.2046097998973,433.333970699925,,,,,,,,MW_th,001,2025-03-23_17h17.12.712,MainFlow,2024.2.4,141.64767415510084,2025-03-23 17h17.23.401951 +0700,
1,60,0,word/wordth0601.png,image/False/imgf60.png,110,110,0,x,0.5110275999177247,None,0,110,110,110,434.23180359997787,,,,,,,435.7178576999577,435.2254268999677,435.2286917999154,435.2286917999154,435.712623899919,436.8272685999982,436.8272685999982,x,0.5110275999177247,None,435.7178576999577,435.7178576999577,436.8272685999982,,,,,,,,MW_th,001,2025-03-23_17h17.12.712,MainFlow,2024.2.4,141.64767415510084,2025-03-23 17h17.23.401951 +0700,
1,96,1,word/wordth0961.png,image/True/img96.png,111,111,0,z,0.4272594000212848,None,0,111,111,111,437.3501697999891,,,,,,,438.8489583999617,438.35065549996216,438.353364199982,438.353364199982,438.84313689998817,439.984810099937,439.984810099937,z,0.4272594000212848,None,438.8489583999617,438.8489583999617,,,,,,,,,MW_th,001,2025-03-23_17h17.12.712,MainFlow,2024.2.4,141.64767415510084,2025-03-23 17h17.23.401951 +0700,
1,79,0,word/wordth0791.png,image/False/imgf79.png,112,112,0,x,0.6456537999911234,None,0,112,112,112,440.42498709994834,,,,,,,441.9178131999215,441.423214099952,441.4264637999004,441.4264637999004,441.9118940999033,443.04458849993534,443.04458849993534,x,0.6456537999911234,None,441.9178131999215,441.9178131999215,443.04458849993534,,,,,,,,MW_th,001,2025-03-23_17h17.12.712,MainFlow,2024.2.4,141.64767415510084,2025-03-23 17h17.23.401951 +0700,
1,7,0,word/wordth0071.png,image/False/imgf07.png,113,113,0,x,0.7496224999194965,None,0,113,113,113,443.702216799953,,,,,,,445.1881599999033,444.6944529999746,444.69738469994627,444.69738469994627,445.1823481998872,446.30064859997947,446.30064859997947,x,0.7496224999194965,None,445.1881599999033,445.1881599999033,446.30064859997947,,,,,,,,MW_th,001,2025-03-23_17h17.12.712,MainFlow,2024.2.4,141.64767415510084,2025-03-23 17h17.23.401951 +0700,
1,36,0,word/wordth0361.png,image/False/imgf36.png,114,114,0,x,1.8392946999520063,None,0,114,114,114,447.0627295000013,,,,,,,448.5484423999442,448.04996119998395,448.0526789999567,448.0526789999567,448.5423376999097,449.66302129998803,449.66302129998803,x,1.8392946999520063,None,448.5484423999442,448.5484423999442,449.66302129998803,,,,,,,,MW_th,001,2025-03-23_17h17.12.712,MainFlow,2024.2.4,141.64767415510084,2025-03-23 17h17.23.401951 +0700,
1,71,0,word/wordth0711.png,image/False/imgf71.png,115,115,0,x,0.9333845999790356,None,0,115,115,115,451.51477749994956,,,,,,,453.00627969997004,452.5095313999336,452.5129375999095,452.5129375999095,453.00109449995216,454.1464044000022,454.1464044000022,x,0.9333845999790356,None,453.00627969997004,453.00627969997004,454.1464044000022,,,,,,,,MW_th,001,2025-03-23_17h17.12.712,MainFlow,2024.2.4,141.64767415510084,2025-03-23 17h17.23.401951 +0700,
1,20,0,word/wordth0201.png,image/False/imgf20.png,116,116,0,x,0.4977011999581009,None,0,116,116,116,455.08888759999536,,,,,,,456.58187139988877,456.0887040999951,456.0920469999546,456.0920469999546,456.57631769997533,457.7277168999426,457.7277168999426,x,0.4977011999581009,None,456.58187139988877,456.58187139988877,457.7277168999426,,,,,,,,MW_th,001,2025-03-23_17h17.12.712,MainFlow,2024.2.4,141.64767415510084,2025-03-23 17h17.23.401951 +0700,
1,87,1,word/wordth0871.png,image/True/img87.png,117,117,0,z,0.5398722999962047,None,0,117,117,117,458.2344341999851,,,,,,,459.7338047999656,459.23669489996973,459.2394586999435,459.2394586999435,459.72806999995373,460.86993529996835,460.86993529996835,z,0.5398722999962047,None,459.7338047999656,459.7338047999656,,,,,,,,,MW_th,001,2025-03-23_17h17.12.712,MainFlow,2024.2.4,141.64767415510084,2025-03-23 17h17.23.401951 +0700,
1,50,0,word/wordth0501.png,image/False/imgf50.png,118,118,0,x,0.9077360000228509,None,0,118,118,118,461.4209401999833,,,,,,,462.920681699994,462.42579579993617,462.4286237999331,462.4286237999331,462.91485329996794,464.0247572999215,464.0247572999215,x,0.9077360000228509,None,462.920681699994,462.920681699994,,,,,,,,,MW_th,001,2025-03-23_17h17.12.712,MainFlow,2024.2.4,141.64767415510084,2025-03-23 17h17.23.401951 +0700,
1,18,1,word/wordth0181.png,image/True/img18.png,119,119,0,z,0.662269499967806,None,0,119,119,119,464.9413701999001,,,,,,,466.42696039995644,465.92854609992355,465.93135119997896,465.93135119997896,466.4214360999176,467.51045989990234,467.51045989990234,z,0.662269499967806,None,466.42696039995644,466.42696039995644,467.51045989990234,,,,,,,,MW_th,001,2025-03-23_17h17.12.712,MainFlow,2024.2.4,141.64767415510084,2025-03-23 17h17.23.401951 +0700,
1,71,0,word/wordth0711.png,image/False/imgf71.png,120,120,0,x,0.8713666999246925,None,0,120,120,120,468.18365539994556,,,,,,,469.68342309992295,469.1866460999008,469.1902165999636,469.1902165999636,469.67811559990514,470.81404389999807,470.81404389999807,x,0.8713666999246925,None,469.68342309992295,469.68342309992295,,,,,,,,,MW_th,001,2025-03-23_17h17.12.712,MainFlow,2024.2.4,141.64767415510084,2025-03-23 17h17.23.401951 +0700,
1,46,1,word/wordth0461.png,image/True/img46.png,121,121,0,z,0.5058060999726877,None,0,121,121,121,471.69676559988875,,,,,,,473.1896373999771,472.69462489988655,472.6983962999657,472.6983962999657,473.1837911999319,474.32709099992644,474.32709099992644,z,0.5058060999726877,None,473.1896373999771,473.1896373999771,474.32709099992644,,,,,,,,MW_th,001,2025-03-23_17h17.12.712,MainFlow,2024.2.4,141.64767415510084,2025-03-23 17h17.23.401951 +0700,
1,10,1,word/wordth0101.png,image/True/img10.png,122,122,0,x,1.942941699991934,None,0,122,122,122,474.84198089991696,,,,,,,476.3348521000007,475.8371146999998,475.84036649996415,475.84036649996415,476.3289782999782,477.4608145999955,477.4608145999955,x,1.942941699991934,None,476.3348521000007,476.3348521000007,477.4608145999955,,,,,,,,MW_th,001,2025-03-23_17h17.12.712,MainFlow,2024.2.4,141.64767415510084,2025-03-23 17h17.23.401951 +0700,
1,16,0,word/wordth0161.png,image/False/imgf16.png,123,123,0,x,1.7511008000001311,None,0,123,123,123,479.4105386999436,,,,,,,480.9034779999638,480.40936209994834,480.4126405999996,480.4126405999996,480.8978961999528,482.0329050999135,482.0329050999135,x,1.7511008000001311,None,480.9034779999638,480.9034779999638,482.0329050999135,,,,,,,,MW_th,001,2025-03-23_17h17.12.712,MainFlow,2024.2.4,141.64767415510084,2025-03-23 17h17.23.401951 +0700,
1,15,0,word/wordth0151.png,image/False/imgf15.png,124,124,0,z,1.0156820999691263,None,0,124,124,124,483.7916972999228,,,,,,,485.2844959999202,484.78683339990675,484.7901845999295,484.7901845999295,485.2792210999178,486.3906383999856,486.3906383999856,z,1.0156820999691263,None,485.2844959999202,485.2844959999202,486.3906383999856,,,,,,,,MW_th,001,2025-03-23_17h17.12.712,MainFlow,2024.2.4,141.64767415510084,2025-03-23 17h17.23.401951 +0700,
1,59,0,word/wordth0591.png,image/False/imgf59.png,125,125,0,x,1.4715108999516815,None,0,125,125,125,487.4159355999436,,,,,,,488.90905679995194,488.41405929997563,488.4174088999862,488.4174088999862,488.9037043999415,489.9910228999797,489.9910228999797,x,1.4715108999516815,None,488.90905679995194,488.90905679995194,489.9910228999797,,,,,,,,MW_th,001,2025-03-23_17h17.12.712,MainFlow,2024.2.4,141.64767415510084,2025-03-23 17h17.23.401951 +0700,
1,11,0,word/wordth0111.png,image/False/imgf11.png,126,126,0,x,1.7227405000012368,None,0,126,126,126,491.47184079990257,,,,,,,492.9637197999982,492.46875,492.4720831000013,492.4720831000013,492.9580805998994,494.0980867999606,494.0980867999606,x,1.7227405000012368,None,492.9637197999982,492.9637197999982,494.0980867999606,,,,,,,,MW_th,001,2025-03-23_17h17.12.712,MainFlow,2024.2.4,141.64767415510084,2025-03-23 17h17.23.401951 +0700,
1,75,1,word/wordth0751.png,image/True/img75.png,127,127,0,z,0.9678847000468522,None,0,127,127,127,495.8310069999425,,,,,,,497.32374489994254,496.82723609998357,496.83058199996594,496.83058199996594,497.3181054999586,498.4373905999819,498.4373905999819,z,0.9678847000468522,None,497.32374489994254,497.32374489994254,498.4373905999819,,,,,,,,MW_th,001,2025-03-23_17h17.12.712,MainFlow,2024.2.4,141.64767415510084,2025-03-23 17h17.23.401951 +0700,
1,33,1,word/wordth0331.png,image/True/img33.png,128,128,0,z,0.9852260999614373,None,0,128,128,128,499.41428869997617,,,,,,,500.91357769991737,500.4156595999375,500.4185011999216,500.4185011999216,500.9083075999515,502.0273959999904,502.0273959999904,z,0.9852260999614373,None,500.91357769991737,500.91357769991737,,,,,,,,,MW_th,001,2025-03-23_17h17.12.712,MainFlow,2024.2.4,141.64767415510084,2025-03-23 17h17.23.401951 +0700,
1,66,0,word/wordth0661.png,image/False/imgf66.png,129,129,0,z,0.7176654000068083,None,0,129,129,129,503.0245846998878,,,,,,,504.50990909989923,504.01084949995857,504.01356309989933,504.01356309989933,504.4972773999907,505.62097899999935,505.62097899999935,z,0.7176654000068083,None,504.50293819990475,504.50293819990475,505.62097899999935,,,,,,,,MW_th,001,2025-03-23_17h17.12.712,MainFlow,2024.2.4,141.64767415510084,2025-03-23 17h17.23.401951 +0700,
1,38,1,word/wordth0381.png,image/True/img38.png,130,130,0,z,0.9056807999731973,None,0,130,130,130,506.34974659990985,,,,,,,507.8567362999311,507.3682867999887,507.37134659988806,507.37134659988806,507.85004489996936,508.9625881999964,508.9625881999964,z,0.9056807999731973,None,,,,,,,,,,,MW_th,001,2025-03-23_17h17.12.712,MainFlow,2024.2.4,141.64767415510084,2025-03-23 17h17.23.401951 +0700,
1,38,1,word/wordth0381.png,image/True/img38.png,131,131,0,z,0.47485300002153963,None,0,131,131,131,509.87687919999007,,,,,,,511.3626232999377,510.86904219991993,510.8717653999338,510.8717653999338,511.35679599992,512.4611941999756,512.4611941999756,z,0.47485300002153963,None,511.3626232999377,511.3626232999377,512.4611941999756,,,,,,,,MW_th,001,2025-03-23_17h17.12.712,MainFlow,2024.2.4,141.64767415510084,2025-03-23 17h17.23.401951 +0700,
1,63,1,word/wordth0631.png,image/True/img63.png,132,132,0,z,0.5262569999322295,None,0,132,132,132,512.9458414999535,,,,,,,514.4454908999614,513.946588599938,513.9500325999688,513.9500325999688,514.4403822999448,515.5365721998969,515.5365721998969,z,0.5262569999322295,None,514.4454908999614,514.4454908999614,,,,,,,,,MW_th,001,2025-03-23_17h17.12.712,MainFlow,2024.2.4,141.64767415510084,2025-03-23 17h17.23.401951 +0700,
1,33,0,word/wordth0331.png,image/False/imgf33.png,133,133,0,x,0.703064400004223,None,0,133,133,133,516.0738139998866,,,,,,,517.5628583999351,517.0685796999605,517.0722164999461,517.0722164999461,517.5568855999736,518.704689099919,518.704689099919,x,0.703064400004223,None,517.5628583999351,517.5628583999351,518.704689099919,,,,,,,,MW_th,001,2025-03-23_17h17.12.712,MainFlow,2024.2.4,141.64767415510084,2025-03-23 17h17.23.401951 +0700,
1,52,1,word/wordth0521.png,image/True/img52.png,134,134,0,z,1.2188923000358045,None,0,134,134,134,519.4166727999691,,,,,,,520.9024825999513,520.4095606999472,520.4127275999635,520.4127275999635,520.8963398999767,522.0286096999189,522.0286096999189,z,1.2188923000358045,None,520.9024825999513,520.9024825999513,522.0286096999189,,,,,,,,MW_th,001,2025-03-23_17h17.12.712,MainFlow,2024.2.4,141.64767415510084,2025-03-23 17h17.23.401951 +0700,
1,11,0,word/wordth0111.png,image/False/imgf11.png,135,135,0,x,0.8014849000610411,None,0,135,135,135,523.2587450999999,,,,,,,524.7490495999809,524.2539018999087,524.2572194999084,524.2572194999084,524.7431350999977,525.8858743999153,525.8858743999153,x,0.8014849000610411,None,524.7490495999809,524.7490495999809,525.8858743999153,,,,,,,,MW_th,001,2025-03-23_17h17.12.712,MainFlow,2024.2.4,141.64767415510084,2025-03-23 17h17.23.401951 +0700,
1,1,0,word/wordth0011.png,image/False/imgf01.png,136,136,0,x,0.7788475999841467,None,0,136,136,136,526.6999890999869,,,,,,,528.1930221999064,527.6950135999359,527.6983155999333,527.6983155999333,528.187681499985,529.2873971998924,529.2873971998924,x,0.7788475999841467,None,528.1930221999064,528.1930221999064,529.2873971998924,,,,,,,,MW_th,001,2025-03-23_17h17.12.712,MainFlow,2024.2.4,141.64767415510084,2025-03-23 17h17.23.401951 +0700,
1,96,0,word/wordth0961.png,image/False/imgf96.png,137,137,0,x,0.9154524999903515,None,0,137,137,137,530.0755953999469,,,,,,,531.567204699968,531.0733002999332,531.0765407999279,531.0765407999279,531.5613266999135,532.714275999926,532.714275999926,x,0.9154524999903515,None,531.567204699968,531.567204699968,532.714275999926,,,,,,,,MW_th,001,2025-03-23_17h17.12.712,MainFlow,2024.2.4,141.64767415510084,2025-03-23 17h17.23.401951 +0700,
1,57,1,word/wordth0571.png,image/True/img57.png,138,138,0,z,0.8815451998962089,None,0,138,138,138,533.6362067000009,,,,,,,535.1427746999543,534.6576088999864,534.661029299954,534.661029299954,535.1363099999726,536.2399454999249,536.2399454999249,z,0.8815451998962089,None,,,,,,,,,,,MW_th,001,2025-03-23_17h17.12.712,MainFlow,2024.2.4,141.64767415510084,2025-03-23 17h17.23.401951 +0700,
1,30,1,word/wordth0301.png,image/True/img30.png,139,139,0,z,0.550167900044471,None,0,139,139,139,537.13010509999,,,,,,,538.6214847998926,538.1273889999138,538.1310154999373,538.1310154999373,538.6161235999316,539.7186349999392,539.7186349999392,z,0.550167900044471,None,538.6214847998926,538.6214847998926,539.7186349999392,,,,,,,,MW_th,001,2025-03-23_17h17.12.712,MainFlow,2024.2.4,141.64767415510084,2025-03-23 17h17.23.401951 +0700,
1,41,1,word/wordth0411.png,image/True/img41.png,140,140,0,z,1.495054299943149,None,0,140,140,140,540.2806484999601,,,,,,,541.7805499999085,541.2818009998882,541.2854269999079,541.2854269999079,541.7753778999904,542.8937624999089,542.8937624999089,z,1.495054299943149,None,541.7805499999085,541.7805499999085,,,,,,,,,MW_th,001,2025-03-23_17h17.12.712,MainFlow,2024.2.4,141.64767415510084,2025-03-23 17h17.23.401951 +0700,
1,50,1,word/wordth0501.png,image/True/img50.png,141,141,0,z,0.6795426999451593,None,0,141,141,141,544.3979403999401,,,,,,,545.8976499999408,545.399501799955,545.403402899974,545.403402899974,545.8917584998999,547.0075524999993,547.0075524999993,z,0.6795426999451593,None,545.8976499999408,545.8976499999408,,,,,,,,,MW_th,001,2025-03-23_17h17.12.712,MainFlow,2024.2.4,141.64767415510084,2025-03-23 17h17.23.401951 +0700,
1,3,0,word/wordth0031.png,image/False/imgf03.png,142,142,0,x,0.7387913999846205,None,0,142,142,142,547.6959388999967,,,,,,,549.1819683999056,548.6829195999308,548.685750399949,548.685750399949,549.1699373999145,550.2903630998917,550.2903630998917,x,0.7387913999846205,None,549.1750607999275,549.1750607999275,550.2903630998917,,,,,,,,MW_th,001,2025-03-23_17h17.12.712,MainFlow,2024.2.4,141.64767415510084,2025-03-23 17h17.23.401951 +0700,
1,78,1,word/wordth0781.png,image/True/img78.png,143,143,0,z,0.9167647999711335,None,0,143,143,143,551.0355568999657,,,,,,,552.5285794999218,552.0307582999812,552.0344816999277,552.0344816999277,552.5232308999402,553.6331091999309,553.6331091999309,z,0.9167647999711335,None,552.5285794999218,552.5285794999218,553.6331091999309,,,,,,,,MW_th,001,2025-03-23_17h17.12.712,MainFlow,2024.2.4,141.64767415510084,2025-03-23 17h17.23.401951 +0700,
1,76,0,word/wordth0761.png,image/False/imgf76.png,144,144,0,x,0.7319913000101224,None,0,144,144,144,554.5626251999056,,,,,,,556.0554173999699,555.5604107999243,555.563722699997,555.563722699997,556.0496359999524,557.1877087999601,557.1877087999601,x,0.7319913000101224,None,556.0554173999699,556.0554173999699,557.1877087999601,,,,,,,,MW_th,001,2025-03-23_17h17.12.712,MainFlow,2024.2.4,141.64767415510084,2025-03-23 17h17.23.401951 +0700,
1,6,1,word/wordth0061.png,image/True/img06.png,145,145,0,z,0.7673692000098526,None,0,145,145,145,557.9300461999374,,,,,,,559.4228797999676,558.9243465999607,558.927629499929,558.927629499929,559.4172020999249,560.5202905999031,560.5202905999031,z,0.7673692000098526,None,559.4228797999676,559.4228797999676,560.5202905999031,,,,,,,,MW_th,001,2025-03-23_17h17.12.712,MainFlow,2024.2.4,141.64767415510084,2025-03-23 17h17.23.401951 +0700,
1,31,0,word/wordth0311.png,image/False/imgf31.png,146,146,0,x,0.664862500037998,None,0,146,146,146,561.2976293999236,,,,,,,562.7902931999415,562.2942344999174,562.2974402999971,562.2974402999971,562.7844847999513,563.871136099915,563.871136099915,x,0.664862500037998,None,562.7902931999415,562.7902931999415,563.871136099915,,,,,,,,MW_th,001,2025-03-23_17h17.12.712,MainFlow,2024.2.4,141.64767415510084,2025-03-23 17h17.23.401951 +0700,
1,22,0,word/wordth0221.png,image/False/imgf22.png,147,147,0,x,0.6299132000422105,None,0,147,147,147,564.548792699934,,,,,,,566.0397535999073,565.5473501998931,565.5506299999543,565.5506299999543,566.0338295999682,567.1624335999368,567.1624335999368,x,0.6299132000422105,None,566.0397535999073,566.0397535999073,567.1624335999368,,,,,,,,MW_th,001,2025-03-23_17h17.12.712,MainFlow,2024.2.4,141.64767415510084,2025-03-23 17h17.23.401951 +0700,
1,28,0,word/wordth0281.png,image/False/imgf28.png,148,148,0,x,0.8089758000569418,None,0,148,148,148,567.8032661998877,,,,,,,569.2963252998888,568.7986732999561,568.8020598998992,568.8020598998992,569.2910806,570.4032276999205,570.4032276999205,x,0.8089758000569418,None,569.2963252998888,569.2963252998888,570.4032276999205,,,,,,,,MW_th,001,2025-03-23_17h17.12.712,MainFlow,2024.2.4,141.64767415510084,2025-03-23 17h17.23.401951 +0700,
1,57,0,word/wordth0571.png,image/False/imgf57.png,149,149,0,x,1.560481799999252,None,0,149,149,149,571.2191363999154,,,,,,,572.7191784998868,572.2207325999625,572.2243683999404,572.2243683999404,572.7139058999019,573.8295268999645,573.8295268999645,x,1.560481799999252,None,572.7191784998868,572.7191784998868,,,,,,,,,MW_th,001,2025-03-23_17h17.12.712,MainFlow,2024.2.4,141.64767415510084,2025-03-23 17h17.23.401951 +0700,
1,7,0,word/wordth0071.png,image/False/imgf07.png,150,150,0,x,0.6096174999838695,None,0,150,150,150,575.4001893999521,,,,,,,576.8987414999865,576.4034060999984,576.4070500999223,576.4070500999223,576.8929129999597,577.9857653999934,577.9857653999934,x,0.6096174999838695,None,576.8987414999865,576.8987414999865,,,,,,,,,MW_th,001,2025-03-23_17h17.12.712,MainFlow,2024.2.4,141.64767415510084,2025-03-23 17h17.23.401951 +0700,
1,56,1,word/wordth0561.png,image/True/img56.png,151,151,0,z,0.5661841999972239,None,0,151,151,151,578.6066084998893,,,,,,,580.1065888999728,579.6073049999541,579.6106735999929,579.6106735999929,580.1012999999803,581.2036883999826,581.2036883999826,z,0.5661841999972239,None,580.1065888999728,580.1065888999728,,,,,,,,,MW_th,001,2025-03-23_17h17.12.712,MainFlow,2024.2.4,141.64767415510084,2025-03-23 17h17.23.401951 +0700,
1,6,0,word/wordth0061.png,image/False/imgf06.png,152,152,0,x,0.578508900012821,None,0,152,152,152,581.7795803999761,,,,,,,583.2655107999453,582.7713223999599,582.7742390999338,582.7742390999338,583.259895099909,584.3560024999315,584.3560024999315,x,0.578508900012821,None,583.2655107999453,583.2655107999453,584.3560024999315,,,,,,,,MW_th,001,2025-03-23_17h17.12.712,MainFlow,2024.2.4,141.64767415510084,2025-03-23 17h17.23.401951 +0700,
1,36,0,word/wordth0361.png,image/False/imgf36.png,153,153,0,x,0.9991559999762103,None,0,153,153,153,584.9457805999555,,,,,,,586.4454947999911,585.9464128999971,585.9499079999514,585.9499079999514,586.439827599912,587.5475926999934,587.5475926999934,x,0.9991559999762103,None,586.4454947999911,586.4454947999911,,,,,,,,,MW_th,001,2025-03-23_17h17.12.712,MainFlow,2024.2.4,141.64767415510084,2025-03-23 17h17.23.401951 +0700,
1,79,1,word/wordth0791.png,image/True/img79.png,154,154,0,z,0.7749075000174344,None,0,154,154,154,588.5560984999174,,,,,,,590.0558473999845,589.5599622000009,589.5635608999291,589.5635608999291,590.0502476999536,591.1677547999425,591.1677547999425,z,0.7749075000174344,None,590.0558473999845,590.0558473999845,,,,,,,,,MW_th,001,2025-03-23_17h17.12.712,MainFlow,2024.2.4,141.64767415510084,2025-03-23 17h17.23.401951 +0700,
1,52,0,word/wordth0521.png,image/False/imgf52.png,155,155,0,x,0.6493106000125408,None,0,155,155,155,591.951302099973,,,,,,,593.4441218998982,592.9487643999746,592.9521821999224,592.9521821999224,593.4379985999549,594.5286867999239,594.5286867999239,x,0.6493106000125408,None,593.4441218998982,593.4441218998982,594.5286867999239,,,,,,,,MW_th,001,2025-03-23_17h17.12.712,MainFlow,2024.2.4,141.64767415510084,2025-03-23 17h17.23.401951 +0700,
1,18,0,word/wordth0181.png,image/False/imgf18.png,156,156,0,x,1.0200339999282733,None,0,156,156,156,595.186735299998,,,,,,,596.6796182999387,596.1816224999493,596.1849804999074,596.1849804999074,596.6743520998862,597.790377899888,597.790377899888,x,1.0200339999282733,None,596.6796182999387,596.6796182999387,597.790377899888,,,,,,,,MW_th,001,2025-03-23_17h17.12.712,MainFlow,2024.2.4,141.64767415510084,2025-03-23 17h17.23.401951 +0700,
1,23,1,word/wordth0231.png,image/True/img23.png,157,157,0,z,0.5522567000007257,None,0,157,157,157,598.8183627999388,,,,,,,600.3109548999928,599.8149114999687,599.8181954999454,599.8181954999454,600.3050736999139,601.4237007999327,601.4237007999327,z,0.5522567000007257,None,600.3109548999928,600.3109548999928,601.4237007999327,,,,,,,,MW_th,001,2025-03-23_17h17.12.712,MainFlow,2024.2.4,141.64767415510084,2025-03-23 17h17.23.401951 +0700,
1,61,1,word/wordth0611.png,image/True/img61.png,158,158,0,z,0.6015895999735221,None,0,158,158,158,601.9841063999338,,,,,,,603.4768095999025,602.9837420999538,602.9869573999895,602.9869573999895,603.4711834999034,604.5937425999437,604.5937425999437,z,0.6015895999735221,None,603.4768095999025,603.4768095999025,604.5937425999437,,,,,,,,MW_th,001,2025-03-23_17h17.12.712,MainFlow,2024.2.4,141.64767415510084,2025-03-23 17h17.23.401951 +0700,
1,44,1,word/wordth0441.png,image/True/img44.png,159,159,0,z,1.0703876999905333,None,0,159,159,159,605.2057729999069,,,,,,,606.6985404998995,606.203207799932,606.2064368999563,606.2064368999563,606.6932170999935,607.7990955999121,607.7990955999121,z,1.0703876999905333,None,606.6985404998995,606.6985404998995,607.7990955999121,,,,,,,,MW_th,001,2025-03-23_17h17.12.712,MainFlow,2024.2.4,141.64767415510084,2025-03-23 17h17.23.401951 +0700,
1,10,1,word/wordth0101.png,image/True/img10.png,160,160,0,z,0.609217599965632,None,0,160,160,160,608.8800889999839,,,,,,,610.3645386999706,609.8718675998971,609.8750359999249,609.8750359999249,610.3592399999034,611.4666508999653,611.4666508999653,z,0.609217599965632,None,610.3645386999706,610.3645386999706,611.4666508999653,,,,,,,,MW_th,001,2025-03-23_17h17.12.712,MainFlow,2024.2.4,141.64767415510084,2025-03-23 17h17.23.401951 +0700,
1,31,1,word/wordth0311.png,image/True/img31.png,161,161,0,z,0.46040989994071424,None,0,161,161,161,612.0862344999332,,,,,,,613.5859442999354,613.0871546999551,613.0908797999145,613.0908797999145,613.5802060998976,614.6822077999823,614.6822077999823,z,0.46040989994071424,None,613.5859442999354,613.5859442999354,,,,,,,,,MW_th,001,2025-03-23_17h17.12.712,MainFlow,2024.2.4,141.64767415510084,2025-03-23 17h17.23.401951 +0700,
1,14,0,word/wordth0141.png,image/False/imgf14.png,162,162,0,x,0.6501637999899685,None,0,162,162,162,615.1550393999787,,,,,,,616.640974399983,616.148149699904,616.151542199892,616.151542199892,616.6351239999058,617.7559118999634,617.7559118999634,x,0.6501637999899685,None,616.640974399983,616.640974399983,617.7559118999634,,,,,,,,MW_th,001,2025-03-23_17h17.12.712,MainFlow,2024.2.4,141.64767415510084,2025-03-23 17h17.23.401951 +0700,
1,15,0,word/wordth0151.png,image/False/imgf15.png,163,163,0,x,0.6996811999706551,None,0,163,163,163,618.4182820999995,,,,,,,619.9041348999599,619.4055758999893,619.4082038999768,619.4082038999768,619.8917385999812,621.0223346999846,621.0223346999846,x,0.6996811999706551,None,619.8971807999769,619.8971807999769,621.0223346999846,,,,,,,,MW_th,001,2025-03-23_17h17.12.712,MainFlow,2024.2.4,141.64767415510084,2025-03-23 17h17.23.401951 +0700,
1,51,1,word/wordth0511.png,image/True/img51.png,164,164,0,z,0.7092745999107137,None,0,164,164,164,621.7301407998893,,,,,,,623.2299866999965,622.7313014999963,622.7347625999246,622.7347625999246,623.2243000000017,624.3697579998989,624.3697579998989,z,0.7092745999107137,None,623.2299866999965,623.2299866999965,,,,,,,,,MW_th,001,2025-03-23_17h17.12.712,MainFlow,2024.2.4,141.64767415510084,2025-03-23 17h17.23.401951 +0700,
1,82,1,word/wordth0821.png,image/True/img82.png,165,165,0,z,0.5904853999381885,None,0,165,165,165,625.0908761998871,,,,,,,626.5903263998916,626.091356299934,626.0948600999545,626.0948600999545,626.5845224999357,627.6662606999744,627.6662606999744,z,0.5904853999381885,None,626.5903263998916,626.5903263998916,,,,,,,,,MW_th,001,2025-03-23_17h17.12.712,MainFlow,2024.2.4,141.64767415510084,2025-03-23 17h17.23.401951 +0700,
1,27,0,word/wordth0271.png,image/False/imgf27.png,166,166,0,x,0.8508104999782518,None,0,166,166,166,628.2636537998915,,,,,,,629.7564849999035,629.262902699993,629.2662970999954,629.2662970999954,629.7506545999786,630.8636194999563,630.8636194999563,x,0.8508104999782518,None,629.7564849999035,629.7564849999035,630.8636194999563,,,,,,,,MW_th,001,2025-03-23_17h17.12.712,MainFlow,2024.2.4,141.64767415510084,2025-03-23 17h17.23.401951 +0700,
1,78,0,word/wordth0781.png,image/False/imgf78.png,167,167,0,x,1.2472648000111803,None,0,167,167,167,631.7213810998946,,,,,,,633.2142104998929,632.719395199907,632.7228440999752,632.7228440999752,633.2082256999565,634.310854399926,634.310854399926,x,1.2472648000111803,None,633.2142104998929,633.2142104998929,634.310854399926,,,,,,,,MW_th,001,2025-03-23_17h17.12.712,MainFlow,2024.2.4,141.64767415510084,2025-03-23 17h17.23.401951 +0700,
1,89,1,word/wordth0891.png,image/True/img89.png,168,168,0,z,0.9053783001145348,None,0,168,168,168,635.5696651999606,,,,,,,637.0608706999337,636.5678286999464,636.5711413999088,636.5711413999088,637.0548029999482,638.1871595999692,638.1871595999692,z,0.9053783001145348,None,637.0608706999337,637.0608706999337,638.1871595999692,,,,,,,,MW_th,001,2025-03-23_17h17.12.712,MainFlow,2024.2.4,141.64767415510084,2025-03-23 17h17.23.401951 +0700,
1,76,1,word/wordth0761.png,image/True/img76.png,169,169,0,z,0.9455086999805644,None,0,169,169,169,639.1017890999792,,,,,,,640.6015775999986,640.1029407999013,640.1061394999269,640.1061394999269,640.5955375999911,641.707614999963,641.707614999963,z,0.9455086999805644,None,640.6015775999986,640.6015775999986,,,,,,,,,MW_th,001,2025-03-23_17h17.12.712,MainFlow,2024.2.4,141.64767415510084,2025-03-23 17h17.23.401951 +0700,
1,17,0,word/wordth0171.png,image/False/imgf17.png,170,170,0,x,1.528959000017494,None,0,170,170,170,642.6643414999126,,,,,,,644.1634255999234,643.6659119999968,643.6695970000001,643.6695970000001,644.1578967999667,645.2860152999638,645.2860152999638,x,1.528959000017494,None,644.1634255999234,644.1634255999234,,,,,,,,,MW_th,001,2025-03-23_17h17.12.712,MainFlow,2024.2.4,141.64767415510084,2025-03-23 17h17.23.401951 +0700,
1,95,1,word/wordth0951.png,image/True/img95.png,171,171,0,z,0.7188851999817416,None,0,171,171,171,646.822623499902,,,,,,,648.315367299947,647.8227924999082,647.8261092999019,647.8261092999019,648.3099849999417,649.4540763999103,649.4540763999103,z,0.7188851999817416,None,648.315367299947,648.315367299947,649.4540763999103,,,,,,,,MW_th,001,2025-03-23_17h17.12.712,MainFlow,2024.2.4,141.64767415510084,2025-03-23 17h17.23.401951 +0700,
1,61,0,word/wordth0611.png,image/False/imgf61.png,172,172,0,z,2.047692700056359,None,0,172,172,172,650.182988799992,,,,,,,651.6758724999381,651.180134999915,651.183367999969,651.183367999969,651.6700311999302,652.8047520999098,652.8047520999098,z,2.047692700056359,None,651.6758724999381,651.6758724999381,652.8047520999098,,,,,,,,MW_th,001,2025-03-23_17h17.12.712,MainFlow,2024.2.4,141.64767415510084,2025-03-23 17h17.23.401951 +0700,
1,82,1,word/wordth0821.png,image/True/img82.png,173,173,0,z,0.6268137000733986,None,0,173,173,173,654.8626267999643,,,,,,,656.3555315999547,655.8624352999032,655.8658086999785,655.8658086999785,656.3498226999072,657.4360504999058,657.4360504999058,z,0.6268137000733986,None,656.3555315999547,656.3555315999547,657.4360504999058,,,,,,,,MW_th,001,2025-03-23_17h17.12.712,MainFlow,2024.2.4,141.64767415510084,2025-03-23 17h17.23.401951 +0700,
1,14,1,word/wordth0141.png,image/True/img14.png,174,174,0,z,0.6531766999978572,None,0,174,174,174,658.0704053998925,,,,,,,659.5632663998986,659.0683468999341,659.0716965999454,659.0716965999454,659.5579815999372,660.671926699928,660.671926699928,z,0.6531766999978572,None,659.5632663998986,659.5632663998986,660.671926699928,,,,,,,,MW_th,001,2025-03-23_17h17.12.712,MainFlow,2024.2.4,141.64767415510084,2025-03-23 17h17.23.401951 +0700,
1,38,0,word/wordth0381.png,image/False/imgf38.png,175,175,0,x,0.7277565998956561,None,0,175,175,175,661.3338329999242,,,,,,,662.8265318999765,662.3302753999596,662.3335486999713,662.3335486999713,662.8212643999141,663.9773061999585,663.9773061999585,x,0.7277565998956561,None,662.8265318999765,662.8265318999765,663.9773061999585,,,,,,,,MW_th,001,2025-03-23_17h17.12.712,MainFlow,2024.2.4,141.64767415510084,2025-03-23 17h17.23.401951 +0700,
1,17,0,word/wordth0171.png,image/False/imgf17.png,176,176,0,z,0.8575285999104381,None,0,176,176,176,664.7164989999728,,,,,,,666.214782099938,665.7167162999976,665.7200943999924,665.7200943999924,666.2094616999384,667.3431991999969,667.3431991999969,z,0.8575285999104381,None,666.214782099938,666.214782099938,667.3431991999969,,,,,,,,MW_th,001,2025-03-23_17h17.12.712,MainFlow,2024.2.4,141.64767415510084,2025-03-23 17h17.23.401951 +0700,
1,42,0,word/wordth0421.png,image/False/imgf42.png,177,177,0,x,0.5948580000549555,None,0,177,177,177,668.2073626999045,,,,,,,669.7000588999363,669.2024107999168,669.2056847999338,669.2056847999338,669.6942814999493,670.8412813999457,670.8412813999457,x,0.5948580000549555,None,669.7000588999363,669.7000588999363,670.8412813999457,,,,,,,,MW_th,001,2025-03-23_17h17.12.712,MainFlow,2024.2.4,141.64767415510084,2025-03-23 17h17.23.401951 +0700,
1,24,1,word/wordth0241.png,image/True/img24.png,178,178,0,z,0.7418592000612989,None,0,178,178,178,671.4428067998961,,,,,,,672.9357000999153,672.4389436999336,672.4422834999859,672.4422834999859,672.9301251999568,674.0163172999164,674.0163172999164,z,0.7418592000612989,None,672.9357000999153,672.9357000999153,674.0163172999164,,,,,,,,MW_th,001,2025-03-23_17h17.12.712,MainFlow,2024.2.4,141.64767415510084,2025-03-23 17h17.23.401951 +0700,
1,51,1,word/wordth0511.png,image/True/img51.png,179,179,0,z,1.0822902000509202,None,0,179,179,179,674.7685475999024,,,,,,,676.2615110999905,675.7687955999281,675.7723093999084,675.7723093999084,676.256180999917,677.3791377999587,677.3791377999587,z,1.0822902000509202,None,676.2615110999905,676.2615110999905,677.3791377999587,,,,,,,,MW_th,001,2025-03-23_17h17.12.712,MainFlow,2024.2.4,141.64767415510084,2025-03-23 17h17.23.401951 +0700,
1,24,0,word/wordth0241.png,image/False/imgf24.png,180,180,0,x,0.961870800005272,None,0,180,180,180,678.4707217999967,,,,,,,679.9619356999174,679.4642319999402,679.4675464999164,679.4675464999164,679.9561524000019,681.0648967999732,681.0648967999732,x,0.961870800005272,None,679.9619356999174,679.9619356999174,681.0648967999732,,,,,,,,MW_th,001,2025-03-23_17h17.12.712,MainFlow,2024.2.4,141.64767415510084,2025-03-23 17h17.23.401951 +0700,
1,23,0,word/wordth0231.png,image/False/imgf23.png,181,181,0,x,0.6566897999728099,None,0,181,181,181,682.0379087999463,,,,,,,683.5307685999433,683.0381548999576,683.0414051999105,683.0414051999105,683.5249033999862,684.6802803999744,684.6802803999744,x,0.6566897999728099,None,683.5307685999433,683.5307685999433,684.6802803999744,,,,,,,,MW_th,001,2025-03-23_17h17.12.712,MainFlow,2024.2.4,141.64767415510084,2025-03-23 17h17.23.401951 +0700,
1,6,1,word/wordth0061.png,image/True/img06.png,182,182,0,z,0.9391486999811605,None,0,182,182,182,685.3429893999128,,,,,,,686.8357422999106,686.3390176999383,686.3422835998936,686.3422835998936,686.8301096999785,687.9342467999086,687.9342467999086,z,0.9391486999811605,None,686.8357422999106,686.8357422999106,687.9342467999086,,,,,,,,MW_th,001,2025-03-23_17h17.12.712,MainFlow,2024.2.4,141.64767415510084,2025-03-23 17h17.23.401951 +0700,
1,93,1,word/wordth0931.png,image/True/img93.png,183,183,0,z,0.49606100004166365,None,0,183,183,183,688.8838962999871,,,,,,,690.369821799919,689.8757462999783,689.87842549989,689.87842549989,690.3643821999431,691.4641876999522,691.4641876999522,z,0.49606100004166365,None,690.369821799919,690.369821799919,691.4641876999522,,,,,,,,MW_th,001,2025-03-23_17h17.12.712,MainFlow,2024.2.4,141.64767415510084,2025-03-23 17h17.23.401951 +0700,
1,38,0,word/wordth0381.png,image/False/imgf38.png,184,184,0,x,0.6824377999873832,None,0,184,184,184,691.9686068999581,,,,,,,693.459679099964,692.9631347999675,692.9664415000007,692.9664415000007,693.4543498998974,694.5961443999549,694.5961443999549,x,0.6824377999873832,None,693.459679099964,693.459679099964,694.5961443999549,,,,,,,,MW_th,001,2025-03-23_17h17.12.712,MainFlow,2024.2.4,141.64767415510084,2025-03-23 17h17.23.401951 +0700,
1,57,1,word/wordth0571.png,image/True/img57.png,185,185,0,z,0.7118845999939367,None,0,185,185,185,695.2853564999532,,,,,,,696.7782346999738,696.2830119999126,696.2862898999592,696.2862898999592,696.7722698999569,697.891491599963,697.891491599963,z,0.7118845999939367,None,696.7782346999738,696.7782346999738,697.891491599963,,,,,,,,MW_th,001,2025-03-23_17h17.12.712,MainFlow,2024.2.4,141.64767415510084,2025-03-23 17h17.23.401951 +0700,
1,40,1,word/wordth0401.png,image/True/img40.png,186,186,0,z,0.7388394000008702,None,0,186,186,186,698.6110048999544,,,,,,,700.1041254999582,699.6052706999471,699.6086615999229,699.6086615999229,700.0987623999827,701.2714787999867,701.2714787999867,z,0.7388394000008702,None,700.1041254999582,700.1041254999582,701.2714787999867,,,,,,,,MW_th,001,2025-03-23_17h17.12.712,MainFlow,2024.2.4,141.64767415510084,2025-03-23 17h17.23.401951 +0700,
1,50,0,word/wordth0501.png,image/False/imgf50.png,187,187,0,x,0.802722999942489,None,0,187,187,187,702.0202243999811,,,,,,,703.5200840999605,703.0216948000016,703.0251951999962,703.0251951999962,703.5146869999589,704.6164208999835,704.6164208999835,x,0.802722999942489,None,703.5200840999605,703.5200840999605,,,,,,,,,MW_th,001,2025-03-23_17h17.12.712,MainFlow,2024.2.4,141.64767415510084,2025-03-23 17h17.23.401951 +0700,
1,66,0,word/wordth0661.png,image/False/imgf66.png,188,188,0,x,1.0996582999359816,None,0,188,188,188,705.4293564999243,,,,,,,706.9218917998951,706.4239968999755,706.4272822999628,706.4272822999628,706.9157651999267,708.0346574999858,708.0346574999858,x,1.0996582999359816,None,706.9218917998951,706.9218917998951,708.0346574999858,,,,,,,,MW_th,001,2025-03-23_17h17.12.712,MainFlow,2024.2.4,141.64767415510084,2025-03-23 17h17.23.401951 +0700,
1,44,0,word/wordth0441.png,image/False/imgf44.png,189,189,0,x,0.6406444000313058,None,0,189,189,189,709.1442726999521,,,,,,,710.6296283999691,710.1309560999507,710.1336313999491,710.1336313999491,710.6175259999,711.7809549999656,711.7809549999656,x,0.6406444000313058,None,710.6227950999746,710.6227950999746,711.7809549999656,,,,,,,,MW_th,001,2025-03-23_17h17.12.712,MainFlow,2024.2.4,141.64767415510084,2025-03-23 17h17.23.401951 +0700,
1,75,0,word/wordth0751.png,image/False/imgf75.png,190,190,0,x,0.6768361999420449,None,0,190,190,190,712.4305955999298,,,,,,,713.9206715999171,713.4255318999058,713.4290442999918,713.4290442999918,713.9148571999976,715.0418637999101,715.0418637999101,x,0.6768361999420449,None,713.9206715999171,713.9206715999171,715.0418637999101,,,,,,,,MW_th,001,2025-03-23_17h17.12.712,MainFlow,2024.2.4,141.64767415510084,2025-03-23 17h17.23.401951 +0700,
1,31,0,word/wordth0311.png,image/False/imgf31.png,191,191,0,x,0.7735225000651553,None,0,191,191,191,715.7258694999618,,,,,,,717.2187895999523,716.7240695999935,716.7273845999734,716.7273845999734,717.2129991999827,718.2911325999303,718.2911325999303,x,0.7735225000651553,None,717.2187895999523,717.2187895999523,718.2911325999303,,,,,,,,MW_th,001,2025-03-23_17h17.12.712,MainFlow,2024.2.4,141.64767415510084,2025-03-23 17h17.23.401951 +0700,
1,87,1,word/wordth0871.png,image/True/img87.png,192,192,0,z,0.830102700041607,None,0,192,192,192,719.0724678999977,,,,,,,720.5652589999372,720.0691598999547,720.0724163999548,720.0724163999548,720.5593552999198,721.694312699954,721.694312699954,z,0.830102700041607,None,720.5652589999372,720.5652589999372,721.694312699954,,,,,,,,MW_th,001,2025-03-23_17h17.12.712,MainFlow,2024.2.4,141.64767415510084,2025-03-23 17h17.23.401951 +0700,
1,33,1,word/wordth0331.png,image/True/img33.png,193,193,0,x,0.7291907999897376,None,0,193,193,193,722.5378806999652,,,,,,,724.0229033998912,723.5240968998987,723.5267812999664,723.5267812999664,724.010230399901,725.140354199917,725.140354199917,x,0.7291907999897376,None,724.015903399908,724.015903399908,725.140354199917,,,,,,,,MW_th,001,2025-03-23_17h17.12.712,MainFlow,2024.2.4,141.64767415510084,2025-03-23 17h17.23.401951 +0700,
1,70,0,word/wordth0701.png,image/False/imgf70.png,194,194,0,x,0.5615424000425264,None,0,194,194,194,725.8766536999028,,,,,,,727.3764118999243,726.8773019999499,726.8805922999745,726.8805922999745,727.3705094999168,728.4933581999503,728.4933581999503,x,0.5615424000425264,None,727.3764118999243,727.3764118999243,,,,,,,,,MW_th,001,2025-03-23_17h17.12.712,MainFlow,2024.2.4,141.64767415510084,2025-03-23 17h17.23.401951 +0700,
1,27,1,word/wordth0271.png,image/True/img27.png,195,195,0,z,0.6525525000179186,None,0,195,195,195,729.0637004999444,,,,,,,730.5495234999107,730.0572082999861,730.0605549999746,730.0605549999746,730.5443066000007,731.6556248998968,731.6556248998968,z,0.6525525000179186,None,730.5495234999107,730.5495234999107,731.6556248998968,,,,,,,,MW_th,001,2025-03-23_17h17.12.712,MainFlow,2024.2.4,141.64767415510084,2025-03-23 17h17.23.401951 +0700,
1,88,1,word/wordth0881.png,image/True/img88.png,196,196,0,z,0.6388218998908997,None,0,196,196,196,732.3198547998909,,,,,,,733.8058411999373,733.3128900999436,733.3161048999755,733.3161048999755,733.8005400999682,734.955594399944,734.955594399944,z,0.6388218998908997,None,733.8058411999373,733.8058411999373,734.955594399944,,,,,,,,MW_th,001,2025-03-23_17h17.12.712,MainFlow,2024.2.4,141.64767415510084,2025-03-23 17h17.23.401951 +0700,
1,87,0,word/wordth0871.png,image/False/imgf87.png,197,197,0,x,0.7511669000377879,None,0,197,197,197,735.6041323998943,,,,,,,737.0898816999979,736.5960900998907,736.5992298999336,736.5992298999336,737.0841133999638,738.2022929999512,738.2022929999512,x,0.7511669000377879,None,737.0898816999979,737.0898816999979,738.2022929999512,,,,,,,,MW_th,001,2025-03-23_17h17.12.712,MainFlow,2024.2.4,141.64767415510084,2025-03-23 17h17.23.401951 +0700,
1,11,1,word/wordth0111.png,image/True/img11.png,198,198,0,z,0.7005205999594182,None,0,198,198,198,738.9645002998877,,,,,,,740.464382099919,739.9694604999386,739.9730622998904,739.9730622998904,740.4582283999771,741.601989799994,741.601989799994,z,0.7005205999594182,None,740.464382099919,740.464382099919,,,,,,,,,MW_th,001,2025-03-23_17h17.12.712,MainFlow,2024.2.4,141.64767415510084,2025-03-23 17h17.23.401951 +0700,
1,61,0,word/wordth0611.png,image/False/imgf61.png,199,199,0,z,0.6279013999737799,None,0,199,199,199,742.3110070999246,,,,,,,743.8037836999865,743.3061321999412,743.3093476999784,743.3093476999784,743.7980041999836,744.9309513999615,744.9309513999615,z,0.6279013999737799,None,743.8037836999865,743.8037836999865,744.9309513999615,,,,,,,,MW_th,001,2025-03-23_17h17.12.712,MainFlow,2024.2.4,141.64767415510084,2025-03-23 17h17.23.401951 +0700,
1,15,1,word/wordth0151.png,image/True/img15.png,200,200,0,z,0.860120499972254,None,0,200,200,200,745.5675061999355,,,,,,,747.0601277999813,746.5642910999013,746.5675188999157,746.5675188999157,747.0545358998934,748.1963069998892,748.1963069998892,z,0.860120499972254,None,747.0601277999813,747.0601277999813,748.1963069998892,,,,,,,,MW_th,001,2025-03-23_17h17.12.712,MainFlow,2024.2.4,141.64767415510084,2025-03-23 17h17.23.401951 +0700,
1,16,0,word/wordth0161.png,image/False/imgf16.png,201,201,0,x,0.7903131000930443,None,0,201,201,201,749.0666340999305,,,,,,,750.5663455999456,750.0716842999682,750.0750888999319,750.0750888999319,750.5605013999157,751.694016699912,751.694016699912,x,0.7903131000930443,None,750.5663455999456,750.5663455999456,,,,,,,,,MW_th,001,2025-03-23_17h17.12.712,MainFlow,2024.2.4,141.64767415510084,2025-03-23 17h17.23.401951 +0700,
1,63,0,word/wordth0631.png,image/False/imgf63.png,202,202,0,x,0.6533844000659883,None,0,202,202,202,752.4966046999907,,,,,,,753.9824826999102,753.4838156999322,753.4867554999655,753.4867554999655,753.9771339999279,755.1091305000009,755.1091305000009,x,0.6533844000659883,None,753.9824826999102,753.9824826999102,755.1091305000009,,,,,,,,MW_th,001,2025-03-23_17h17.12.712,MainFlow,2024.2.4,141.64767415510084,2025-03-23 17h17.23.401951 +0700,
1,28,1,word/wordth0281.png,image/True/img28.png,203,203,0,z,0.9524299000622705,None,0,203,203,203,755.7736119999317,,,,,,,757.266597299953,756.7733509999234,756.7767178999493,756.7767178999493,757.2607946998905,758.4015437999042,758.4015437999042,z,0.9524299000622705,None,757.266597299953,757.266597299953,758.4015437999042,,,,,,,,MW_th,001,2025-03-23_17h17.12.712,MainFlow,2024.2.4,141.64767415510084,2025-03-23 17h17.23.401951 +0700,
1,89,1,word/wordth0891.png,image/True/img89.png,204,204,0,z,0.48073460010346025,None,0,204,204,204,759.3649375999812,,,,,,,760.8561639999971,760.36336879991,760.366582699935,760.366582699935,760.8503335999558,761.9430217999034,761.9430217999034,z,0.48073460010346025,None,760.8561639999971,760.8561639999971,761.9430217999034,,,,,,,,MW_th,001,2025-03-23_17h17.12.712,MainFlow,2024.2.4,141.64767415510084,2025-03-23 17h17.23.401951 +0700,
1,76,0,word/wordth0761.png,image/False/imgf76.png,205,205,0,x,0.5499671000288799,None,0,205,205,205,762.4338322998956,,,,,,,763.9318989999592,763.4338555999566,763.4374029999599,763.4374029999599,763.9259605999105,765.0592065999517,765.0592065999517,x,0.5499671000288799,None,763.9318989999592,763.9318989999592,,,,,,,,,MW_th,001,2025-03-23_17h17.12.712,MainFlow,2024.2.4,141.64767415510084,2025-03-23 17h17.23.401951 +0700,
1,51,0,word/wordth0511.png,image/False/imgf51.png,206,206,0,x,0.6595157999545336,None,0,206,206,206,765.6192198999925,,,,,,,767.1118790999753,766.6151130999206,766.6184562999988,766.6184562999988,767.1066228999989,768.2159926999593,768.2159926999593,x,0.6595157999545336,None,767.1118790999753,767.1118790999753,768.2159926999593,,,,,,,,MW_th,001,2025-03-23_17h17.12.712,MainFlow,2024.2.4,141.64767415510084,2025-03-23 17h17.23.401951 +0700,
1,26,0,word/wordth0261.png,image/False/imgf26.png,207,207,0,x,0.9276663999771699,None,0,207,207,207,768.8823375999928,,,,,,,770.3750054999255,769.8793130998965,769.8825634999666,769.8825634999666,770.3690749999369,771.5164278999437,771.5164278999437,x,0.9276663999771699,None,770.3750054999255,770.3750054999255,771.5164278999437,,,,,,,,MW_th,001,2025-03-23_17h17.12.712,MainFlow,2024.2.4,141.64767415510084,2025-03-23 17h17.23.401951 +0700,
1,16,1,word/wordth0161.png,image/True/img16.png,208,208,0,z,1.432785699958913,None,0,208,208,208,772.4520980999805,,,,,,,773.943778899964,773.4490877999924,773.4519706999417,773.4519706999417,773.9380488999886,775.0742199999513,775.0742199999513,z,1.432785699958913,None,773.943778899964,773.943778899964,775.0742199999513,,,,,,,,MW_th,001,2025-03-23_17h17.12.712,MainFlow,2024.2.4,141.64767415510084,2025-03-23 17h17.23.401951 +0700,
1,64,1,word/wordth0641.png,image/True/img64.png,209,209,0,z,0.4852094000671059,None,0,209,209,209,776.5204769999254,,,,,,,778.0123478999594,777.5140468999743,777.5174755998887,777.5174755998887,778.0065635999199,779.1076714999508,779.1076714999508,z,0.4852094000671059,None,778.0123478999594,778.0123478999594,779.1076714999508,,,,,,,,MW_th,001,2025-03-23_17h17.12.712,MainFlow,2024.2.4,141.64767415510084,2025-03-23 17h17.23.401951 +0700,
1,7,1,word/wordth0071.png,image/True/img07.png,210,210,0,z,0.6038599000312388,None,0,210,210,210,779.6024272999493,,,,,,,781.0954191999044,780.602251199889,780.6056584999897,780.6056584999897,781.0900655000005,782.2232681999449,782.2232681999449,z,0.6038599000312388,None,781.0954191999044,781.0954191999044,782.2232681999449,,,,,,,,MW_th,001,2025-03-23_17h17.12.712,MainFlow,2024.2.4,141.64767415510084,2025-03-23 17h17.23.401951 +0700,
1,10,0,word/wordth0101.png,image/False/imgf10.png,211,211,0,x,0.6651781999971718,None,0,211,211,211,782.837874299963,,,,,,,784.330644599977,783.8340513999574,783.8373050999362,783.8373050999362,784.3248988999985,785.4421454999829,785.4421454999829,x,0.6651781999971718,None,784.330644599977,784.330644599977,785.4421454999829,,,,,,,,MW_th,001,2025-03-23_17h17.12.712,MainFlow,2024.2.4,141.64767415510084,2025-03-23 17h17.23.401951 +0700,
1,22,1,word/wordth0221.png,image/True/img22.png,212,212,0,z,1.513073300011456,None,0,212,212,212,786.1149436999112,,,,,,,787.6079427999211,787.1135488,787.1167550999671,787.1167550999671,787.6027720998973,788.7960385999177,788.7960385999177,z,1.513073300011456,None,787.6079427999211,787.6079427999211,788.7960385999177,,,,,,,,MW_th,001,2025-03-23_17h17.12.712,MainFlow,2024.2.4,141.64767415510084,2025-03-23 17h17.23.401951 +0700,
1,40,1,word/wordth0401.png,image/True/img40.png,213,213,0,z,0.5562445999821648,None,0,213,213,213,790.3154644999886,,,,,,,791.8085239999928,791.3100936999545,791.3133072999772,791.3133072999772,791.8032209998928,792.954334699898,792.954334699898,z,0.5562445999821648,None,791.8085239999928,791.8085239999928,792.954334699898,,,,,,,,MW_th,001,2025-03-23_17h17.12.712,MainFlow,2024.2.4,141.64767415510084,2025-03-23 17h17.23.401951 +0700,
1,57,0,word/wordth0571.png,image/False/imgf57.png,214,214,0,x,0.6587991000851616,None,0,214,214,214,793.5234205999877,,,,,,,795.0091216999572,794.5106774999294,794.5133436999749,794.5133436999749,795.0033450999763,796.1419894999126,796.1419894999126,x,0.6587991000851616,None,795.0091216999572,795.0091216999572,796.1419894999126,,,,,,,,MW_th,001,2025-03-23_17h17.12.712,MainFlow,2024.2.4,141.64767415510084,2025-03-23 17h17.23.401951 +0700,
1,50,1,word/wordth0501.png,image/True/img50.png,215,215,0,z,1.523876800085418,None,0,215,215,215,796.8074690999929,,,,,,,798.2932331999764,797.7994287998881,797.8021406999324,797.8021406999324,798.2870101999724,799.4019139999291,799.4019139999291,z,1.523876800085418,None,798.2932331999764,798.2932331999764,799.4019139999291,,,,,,,,MW_th,001,2025-03-23_17h17.12.712,MainFlow,2024.2.4,141.64767415510084,2025-03-23 17h17.23.401951 +0700,
1,64,0,word/wordth0641.png,image/False/imgf64.png,216,216,0,x,0.7981420999858528,None,0,216,216,216,800.9317227998981,,,,,,,802.431422399939,801.9322729998967,801.9355323999189,801.9355323999189,802.4261264998931,803.5076316999039,803.5076316999039,x,0.7981420999858528,None,802.431422399939,802.431422399939,,,,,,,,,MW_th,001,2025-03-23_17h17.12.712,MainFlow,2024.2.4,141.64767415510084,2025-03-23 17h17.23.401951 +0700,
1,42,1,word/wordth0421.png,image/True/img42.png,217,217,0,z,0.7937016999348998,None,0,217,217,217,804.3128679998918,,,,,,,805.8128097999142,805.3161056999816,805.3197613999946,805.3197613999946,805.8070418999996,806.9248088999884,806.9248088999884,z,0.7937016999348998,None,805.8128097999142,805.8128097999142,,,,,,,,,MW_th,001,2025-03-23_17h17.12.712,MainFlow,2024.2.4,141.64767415510084,2025-03-23 17h17.23.401951 +0700,
1,56,0,word/wordth0561.png,image/False/imgf56.png,218,218,0,x,0.6217903000069782,None,0,218,218,218,807.7289900999749,,,,,,,809.2218068999937,808.7283211998874,808.7316121999174,808.7316121999174,809.215987799922,810.3879344000015,810.3879344000015,x,0.6217903000069782,None,809.2218068999937,809.2218068999937,810.3879344000015,,,,,,,,MW_th,001,2025-03-23_17h17.12.712,MainFlow,2024.2.4,141.64767415510084,2025-03-23 17h17.23.401951 +0700,
1,22,1,word/wordth0221.png,image/True/img22.png,219,219,0,z,0.8190832000691444,None,0,219,219,219,811.0197950999718,,,,,,,812.5128402999835,812.0149026999716,812.0181845999323,812.0181845999323,812.5073039999697,813.6473954999819,813.6473954999819,z,0.8190832000691444,None,812.5128402999835,812.5128402999835,813.6473954999819,,,,,,,,MW_th,001,2025-03-23_17h17.12.712,MainFlow,2024.2.4,141.64767415510084,2025-03-23 17h17.23.401951 +0700,
1,82,0,word/wordth0821.png,image/False/imgf82.png,220,220,0,x,0.8417005999945104,None,0,220,220,220,814.4775816999609,,,,,,,815.9703687999863,815.4718481999589,815.4749868999934,815.4749868999934,815.9645027999068,817.0846029999666,817.0846029999666,x,0.8417005999945104,None,815.9703687999863,815.9703687999863,817.0846029999666,,,,,,,,MW_th,001,2025-03-23_17h17.12.712,MainFlow,2024.2.4,141.64767415510084,2025-03-23 17h17.23.401951 +0700,
1,54,1,word/wordth0541.png,image/True/img54.png,221,221,0,z,2.158989700023085,None,0,221,221,221,817.9371316999895,,,,,,,819.4278718999121,818.9299381999299,818.9332665998954,818.9332665998954,819.4217370999977,820.5723302999977,820.5723302999977,z,2.158989700023085,None,819.4278718999121,819.4278718999121,820.5723302999977,,,,,,,,MW_th,001,2025-03-23_17h17.12.712,MainFlow,2024.2.4,141.64767415510084,2025-03-23 17h17.23.401951 +0700,
1,55,0,word/wordth0551.png,image/False/imgf55.png,222,222,0,x,0.633090200019069,None,0,222,222,222,822.7397929999279,,,,,,,824.2326215999201,823.7389256999595,823.7421660999535,823.7421660999535,824.2267539999448,825.3545524999499,825.3545524999499,x,0.633090200019069,None,824.2326215999201,824.2326215999201,825.3545524999499,,,,,,,,MW_th,001,2025-03-23_17h17.12.712,MainFlow,2024.2.4,141.64767415510084,2025-03-23 17h17.23.401951 +0700,
1,48,1,word/wordth0481.png,image/True/img48.png,223,223,0,z,0.5824728000443429,None,0,223,223,223,825.9961361999158,,,,,,,827.4959455999779,826.9996855999343,827.0032801999478,827.0032801999478,827.4903629999608,828.6196375999134,828.6196375999134,z,0.5824728000443429,None,827.4959455999779,827.4959455999779,,,,,,,,,MW_th,001,2025-03-23_17h17.12.712,MainFlow,2024.2.4,141.64767415510084,2025-03-23 17h17.23.401951 +0700,
1,44,1,word/wordth0441.png,image/True/img44.png,224,224,0,z,0.7585766999982297,None,0,224,224,224,829.2109689998906,,,,,,,830.7037123999326,830.2070587999187,830.2104107999476,830.2104107999476,830.6980420999462,831.8144733998924,831.8144733998924,z,0.7585766999982297,None,830.7037123999326,830.7037123999326,831.8144733998924,,,,,,,,MW_th,001,2025-03-23_17h17.12.712,MainFlow,2024.2.4,141.64767415510084,2025-03-23 17h17.23.401951 +0700,
1,87,0,word/wordth0871.png,image/False/imgf87.png,225,225,0,x,0.8270577999064699,None,0,225,225,225,832.5853095999919,,,,,,,834.0781347999582,833.580023599905,833.5837249999167,833.5837249999167,834.0728157999692,835.1837071999907,835.1837071999907,x,0.8270577999064699,None,834.0781347999582,834.0781347999582,835.1837071999907,,,,,,,,MW_th,001,2025-03-23_17h17.12.712,MainFlow,2024.2.4,141.64767415510084,2025-03-23 17h17.23.401951 +0700,
1,70,1,word/wordth0701.png,image/True/img70.png,226,226,0,z,0.5004339000442997,None,0,226,226,226,836.0218903999776,,,,,,,837.5220203999197,837.0282679999946,837.0319732999196,837.0319732999196,837.51664539997,838.628062899923,838.628062899923,z,0.5004339000442997,None,837.5220203999197,837.5220203999197,,,,,,,,,MW_th,001,2025-03-23_17h17.12.712,MainFlow,2024.2.4,141.64767415510084,2025-03-23 17h17.23.401951 +0700,
1,33,0,word/wordth0331.png,image/False/imgf33.png,227,227,0,x,0.559423099970445,None,0,227,227,227,839.1395099998917,,,,,,,840.6322424999671,840.1384645999642,840.141253199894,840.141253199894,840.6262627999531,841.7606518999673,841.7606518999673,x,0.559423099970445,None,840.6322424999671,840.6322424999671,841.7606518999673,,,,,,,,MW_th,001,2025-03-23_17h17.12.712,MainFlow,2024.2.4,141.64767415510084,2025-03-23 17h17.23.401951 +0700,
1,52,1,word/wordth0521.png,image/True/img52.png,228,228,0,z,1.0829955999506637,None,0,228,228,228,842.3288828999503,,,,,,,843.8123778000008,843.319731399999,843.3232987999218,843.3232987999218,843.8070810999488,844.9232769999653,844.9232769999653,z,1.0829955999506637,None,843.8123778000008,843.8123778000008,844.9232769999653,,,,,,,,MW_th,001,2025-03-23_17h17.12.712,MainFlow,2024.2.4,141.64767415510084,2025-03-23 17h17.23.401951 +0700,
