lang,wordid,truestate,worddir,imgdir,thisN,thisTrialN,thisRepN,key_resp.keys,key_resp.rt,key_resp.duration,trials.thisRepN,trials.thisTrialN,trials.thisN,trials.thisIndex,thisRow.t,notes,tutorial.started,tutorial.stopped,key_instruct.keys,key_instruct.rt,key_instruct.duration,plusblank.started,wordshow.started,image.started,plsuer.started,wordshow.stopped,imageword.started,key_resp.started,trials.key_resp.keys,trials.key_resp.rt,trials.key_resp.duration,image.stopped,plsuer.stopped,plusblank.stopped,ending.started,text_3.started,ending_key.started,ending.stopped,ending_key.keys,ending_key.rt,ending_key.duration,participant,session,date,expName,psychopyVersion,frameRate,expStart,
,,,,,,,,,,,,,,,,,0.003778099999180995,1.872051299999839,space,1.830982800000129,None,,,,,,,,,,,,,,,,,,,,,NU2_en,001,2025-03-07_12h57.17.126,MainFlow,2024.2.4,149.3734530523547,2025-03-07 12h57.38.719394 +0700,
2,87,0,word/worden0871.png,image/False/imgf87.png,0,0,0,x,1.2341581000000588,None,0,0,0,0,1.941510699999526,,,,,,,3.384277299999667,2.8948503999999957,2.9235778999991453,2.9235778999991453,3.378069200000027,4.5112271999996665,4.5112271999996665,x,1.2341581000000588,None,,,,,,,,,,,NU2_en,001,2025-03-07_12h57.17.126,MainFlow,2024.2.4,149.3734530523547,2025-03-07 12h57.38.719394 +0700,
2,93,0,word/worden0931.png,image/False/imgf93.png,1,1,0,x,0.6701137000000017,None,0,1,1,1,5.752109299999574,,,,,,,7.251465899999857,6.75630049999927,6.759964199999558,6.759964199999558,7.245954199999687,8.350445099999888,8.350445099999888,x,0.6701137000000017,None,7.251465899999857,7.251465899999857,,,,,,,,,NU2_en,001,2025-03-07_12h57.17.126,MainFlow,2024.2.4,149.3734530523547,2025-03-07 12h57.38.719394 +0700,
2,23,0,word/worden0231.png,image/False/imgf23.png,2,2,0,x,0.5728041000002122,None,0,2,2,2,9.02871519999917,,,,,,,10.528661599999396,10.031533299999865,10.034810299999663,10.034810299999663,10.523369399999865,11.690099699999337,11.690099699999337,x,0.5728041000002122,None,10.528661599999396,10.528661599999396,,,,,,,,,NU2_en,001,2025-03-07_12h57.17.126,MainFlow,2024.2.4,149.3734530523547,2025-03-07 12h57.38.719394 +0700,
2,10,1,word/worden0101.png,image/True/img10.png,3,3,0,z,0.7193786999996519,None,0,3,3,3,12.271342399999412,,,,,,,13.778029899999638,13.287883999999394,13.291873999999552,13.291873999999552,13.771709099999498,14.893630599999597,14.893630599999597,z,0.7193786999996519,None,,,,,,,,,,,NU2_en,001,2025-03-07_12h57.17.126,MainFlow,2024.2.4,149.3734530523547,2025-03-07 12h57.38.719394 +0700,
2,50,0,word/worden0501.png,image/False/imgf50.png,4,4,0,x,0.778183600000375,None,0,4,4,4,15.627716399999372,,,,,,,17.13152749999972,16.646721899999648,16.650656299999355,16.650656299999355,17.12531669999953,18.25166419999914,18.25166419999914,x,0.778183600000375,None,,,16.650656299999355,,,,,,,,NU2_en,001,2025-03-07_12h57.17.126,MainFlow,2024.2.4,149.3734530523547,2025-03-07 12h57.38.719394 +0700,
2,33,1,word/worden0331.png,image/True/img33.png,5,5,0,z,2.1113282999995135,None,0,5,5,5,19.04205499999989,,,,,,,20.547297099999923,20.048603099999127,20.05219059999945,20.05219059999945,20.540872799999306,21.67296869999973,21.67296869999973,z,2.1113282999995135,None,,,,,,,,,,,NU2_en,001,2025-03-07_12h57.17.126,MainFlow,2024.2.4,149.3734530523547,2025-03-07 12h57.38.719394 +0700,
2,95,0,word/worden0951.png,image/False/imgf95.png,6,6,0,x,0.8012853000000177,None,0,6,6,6,23.79692259999956,,,,,,,25.28947579999931,24.794799899999816,24.79879869999968,24.79879869999968,25.2837013999997,26.431672299999263,26.431672299999263,x,0.8012853000000177,None,25.28947579999931,25.28947579999931,26.431672299999263,,,,,,,,NU2_en,001,2025-03-07_12h57.17.126,MainFlow,2024.2.4,149.3734530523547,2025-03-07 12h57.38.719394 +0700,
2,7,0,word/worden0071.png,image/False/imgf07.png,7,7,0,x,1.3318428000002314,None,0,7,7,7,27.24378979999983,,,,,,,28.74716509999962,28.251716099999612,28.256441099999392,28.256441099999392,28.740892499999973,29.867440299999544,29.867440299999544,x,1.3318428000002314,None,,,28.256441099999392,,,,,,,,NU2_en,001,2025-03-07_12h57.17.126,MainFlow,2024.2.4,149.3734530523547,2025-03-07 12h57.38.719394 +0700,
2,28,1,word/worden0281.png,image/True/img28.png,8,8,0,z,0.6526459999995495,None,0,8,8,8,31.205311199999414,,,,,,,32.71166709999943,32.21830189999946,32.22226809999938,32.22226809999938,32.705378499999824,33.848793099999966,33.848793099999966,z,0.6526459999995495,None,,,,,,,,,,,NU2_en,001,2025-03-07_12h57.17.126,MainFlow,2024.2.4,149.3734530523547,2025-03-07 12h57.38.719394 +0700,
2,38,1,word/worden0381.png,image/True/img38.png,9,9,0,z,0.800634600000194,None,0,9,9,9,34.51042849999976,,,,,,,36.00978859999941,35.513479299999744,35.51728009999988,35.51728009999988,36.004601799999364,37.10472299999947,37.10472299999947,z,0.800634600000194,None,36.00978859999941,36.00978859999941,,,,,,,,,NU2_en,001,2025-03-07_12h57.17.126,MainFlow,2024.2.4,149.3734530523547,2025-03-07 12h57.38.719394 +0700,
2,33,0,word/worden0331.png,image/False/imgf33.png,10,10,0,x,1.9714817000003677,None,0,10,10,10,37.91198129999975,,,,,,,39.40488319999986,38.90846379999948,38.911781699999665,38.911781699999665,39.39896369999951,40.52055389999987,40.52055389999987,x,1.9714817000003677,None,39.40488319999986,39.40488319999986,40.52055389999987,,,,,,,,NU2_en,001,2025-03-07_12h57.17.126,MainFlow,2024.2.4,149.3734530523547,2025-03-07 12h57.38.719394 +0700,
2,76,1,word/worden0761.png,image/True/img76.png,11,11,0,z,0.610331199999564,None,0,11,11,11,42.50137109999923,,,,,,,43.994123799999215,43.4950132999993,43.4985173999994,43.4985173999994,43.98814469999979,45.098119499999484,45.098119499999484,z,0.610331199999564,None,43.994123799999215,43.994123799999215,45.098119499999484,,,,,,,,NU2_en,001,2025-03-07_12h57.17.126,MainFlow,2024.2.4,149.3734530523547,2025-03-07 12h57.38.719394 +0700,
2,75,0,word/worden0751.png,image/False/imgf75.png,12,12,0,x,0.9182542000007743,None,0,12,12,12,45.715938299999834,,,,,,,47.209041299999626,46.71438429999944,46.717856199999915,46.717856199999915,47.20350079999935,48.31969499999923,48.31969499999923,x,0.9182542000007743,None,47.209041299999626,47.209041299999626,48.31969499999923,,,,,,,,NU2_en,001,2025-03-07_12h57.17.126,MainFlow,2024.2.4,149.3734530523547,2025-03-07 12h57.38.719394 +0700,
2,7,1,word/worden0071.png,image/True/img07.png,13,13,0,z,0.6329940000005081,None,0,13,13,13,49.25003949999973,,,,,,,50.736201199999414,50.242933799999264,50.24619669999993,50.24619669999993,50.73104139999941,51.85427339999933,51.85427339999933,z,0.6329940000005081,None,50.736201199999414,50.736201199999414,51.85427339999933,,,,,,,,NU2_en,001,2025-03-07_12h57.17.126,MainFlow,2024.2.4,149.3734530523547,2025-03-07 12h57.38.719394 +0700,
2,51,1,word/worden0511.png,image/True/img51.png,14,14,0,z,0.8087441999996372,None,0,14,14,14,52.49936829999933,,,,,,,54.00603679999949,53.51005929999974,53.513864999999896,53.513864999999896,53.999625299999934,55.11434419999932,55.11434419999932,z,0.8087441999996372,None,,,,,,,,,,,NU2_en,001,2025-03-07_12h57.17.126,MainFlow,2024.2.4,149.3734530523547,2025-03-07 12h57.38.719394 +0700,
2,59,0,word/worden0591.png,image/False/imgf59.png,15,15,0,x,0.6543490999993082,None,0,15,15,15,55.92940029999954,,,,,,,57.4150783999994,56.92092339999999,56.92368609999994,56.92368609999994,57.408979899999395,58.510201099999904,58.510201099999904,x,0.6543490999993082,None,57.4150783999994,57.4150783999994,58.510201099999904,,,,,,,,NU2_en,001,2025-03-07_12h57.17.126,MainFlow,2024.2.4,149.3734530523547,2025-03-07 12h57.38.719394 +0700,
2,54,0,word/worden0541.png,image/False/imgf54.png,16,16,0,x,1.945524299999306,None,0,16,16,16,59.17180680000001,,,,,,,60.67193469999984,60.175784199999725,60.17944509999961,60.17944509999961,60.66669869999987,61.76866799999971,61.76866799999971,x,1.945524299999306,None,60.67193469999984,60.67193469999984,,,,,,,,,NU2_en,001,2025-03-07_12h57.17.126,MainFlow,2024.2.4,149.3734530523547,2025-03-07 12h57.38.719394 +0700,
2,6,1,word/worden0061.png,image/True/img06.png,17,17,0,z,0.5235486000001401,None,0,17,17,17,63.72042769999916,,,,,,,65.21924599999966,64.72012559999985,64.72357819999979,64.72357819999979,65.21334979999938,66.30240629999935,66.30240629999935,z,0.5235486000001401,None,65.21924599999966,65.21924599999966,,,,,,,,,NU2_en,001,2025-03-07_12h57.17.126,MainFlow,2024.2.4,149.3734530523547,2025-03-07 12h57.38.719394 +0700,
2,41,1,word/worden0411.png,image/True/img41.png,18,18,0,z,0.6273571000001539,None,0,18,18,18,66.83693829999993,,,,,,,68.33005669999966,67.83678189999955,67.84017409999979,67.84017409999979,68.3251109999992,69.45286939999914,69.45286939999914,z,0.6273571000001539,None,68.33005669999966,68.33005669999966,69.45286939999914,,,,,,,,NU2_en,001,2025-03-07_12h57.17.126,MainFlow,2024.2.4,149.3734530523547,2025-03-07 12h57.38.719394 +0700,
2,42,0,word/worden0421.png,image/False/imgf42.png,19,19,0,x,3.394211499999983,None,0,19,19,19,70.08673920000001,,,,,,,71.57982329999959,71.08488959999977,71.0890602999998,71.0890602999998,71.57383839999966,72.72283139999945,72.72283139999945,x,3.394211499999983,None,71.57982329999959,71.57982329999959,72.72283139999945,,,,,,,,NU2_en,001,2025-03-07_12h57.17.126,MainFlow,2024.2.4,149.3734530523547,2025-03-07 12h57.38.719394 +0700,
2,64,0,word/worden0641.png,image/False/imgf64.png,20,20,0,x,1.1755719999991925,None,0,20,20,20,76.12770719999935,,,,,,,77.62760049999997,77.13174059999983,77.13644499999918,77.13644499999918,77.62184009999964,78.71041429999968,78.71041429999968,x,1.1755719999991925,None,77.62760049999997,77.62760049999997,,,,,,,,,NU2_en,001,2025-03-07_12h57.17.126,MainFlow,2024.2.4,149.3734530523547,2025-03-07 12h57.38.719394 +0700,
2,96,1,word/worden0961.png,image/True/img96.png,21,21,0,z,0.46561169999949925,None,0,21,21,21,79.89783239999997,,,,,,,81.38974919999964,80.89557579999928,80.8987717,80.8987717,81.38362269999925,82.51816609999969,82.51816609999969,z,0.46561169999949925,None,81.38974919999964,81.38974919999964,82.51816609999969,,,,,,,,NU2_en,001,2025-03-07_12h57.17.126,MainFlow,2024.2.4,149.3734530523547,2025-03-07 12h57.38.719394 +0700,
2,76,0,word/worden0761.png,image/False/imgf76.png,22,22,0,x,0.8496843000002627,None,0,22,22,22,82.99358539999957,,,,,,,84.48652579999998,83.98919679999926,83.9927633999996,83.9927633999996,84.48131139999987,85.62175859999934,85.62175859999934,x,0.8496843000002627,None,84.48652579999998,84.48652579999998,85.62175859999934,,,,,,,,NU2_en,001,2025-03-07_12h57.17.126,MainFlow,2024.2.4,149.3734530523547,2025-03-07 12h57.38.719394 +0700,
2,17,1,word/worden0171.png,image/True/img17.png,23,23,0,z,0.9059752000002845,None,0,23,23,23,86.47890740000003,,,,,,,87.97209929999917,87.47332049999932,87.47656019999977,87.47656019999977,87.96696689999953,89.08607729999949,89.08607729999949,z,0.9059752000002845,None,87.97209929999917,87.97209929999917,89.08607729999949,,,,,,,,NU2_en,001,2025-03-07_12h57.17.126,MainFlow,2024.2.4,149.3734530523547,2025-03-07 12h57.38.719394 +0700,
2,6,1,word/worden0061.png,image/True/img06.png,24,24,0,z,1.7954545000002327,None,0,24,24,24,89.99947479999992,,,,,,,91.49274709999918,90.9946059999993,90.99860889999945,90.99860889999945,91.48750729999938,92.57484119999936,92.57484119999936,z,1.7954545000002327,None,91.49274709999918,91.49274709999918,92.57484119999936,,,,,,,,NU2_en,001,2025-03-07_12h57.17.126,MainFlow,2024.2.4,149.3734530523547,2025-03-07 12h57.38.719394 +0700,
2,88,1,word/worden0881.png,image/True/img88.png,25,25,0,z,0.655695200000082,None,0,25,25,25,94.38019339999937,,,,,,,95.88006150000001,95.38527319999957,95.38881279999987,95.38881279999987,95.87400369999978,96.99879220000003,96.99879220000003,z,0.655695200000082,None,95.88006150000001,95.88006150000001,,,,,,,,,NU2_en,001,2025-03-07_12h57.17.126,MainFlow,2024.2.4,149.3734530523547,2025-03-07 12h57.38.719394 +0700,
2,44,1,word/worden0441.png,image/True/img44.png,26,26,0,z,0.6510612000001856,None,0,26,26,26,97.66432559999976,,,,,,,99.15720249999958,98.66137939999953,98.66446889999952,98.66446889999952,99.1514776999993,100.2548213,100.2548213,z,0.6510612000001856,None,99.15720249999958,99.15720249999958,100.2548213,,,,,,,,NU2_en,001,2025-03-07_12h57.17.126,MainFlow,2024.2.4,149.3734530523547,2025-03-07 12h57.38.719394 +0700,
2,27,0,word/worden0271.png,image/False/imgf27.png,27,27,0,x,0.5885827000001882,None,0,27,27,27,100.91410069999984,,,,,,,102.40691249999963,101.91144799999984,101.9152267999998,101.9152267999998,102.40130989999943,103.50363229999948,103.50363229999948,x,0.5885827000001882,None,102.40691249999963,102.40691249999963,103.50363229999948,,,,,,,,NU2_en,001,2025-03-07_12h57.17.126,MainFlow,2024.2.4,149.3734530523547,2025-03-07 12h57.38.719394 +0700,
2,14,0,word/worden0141.png,image/False/imgf14.png,28,28,0,x,0.6536933999996108,None,0,28,28,28,104.1015367,,,,,,,105.60132109999904,105.10604609999973,105.1107393000002,105.1107393000002,105.59553179999966,106.70194950000041,106.70194950000041,x,0.6536933999996108,None,105.60132109999904,105.60132109999904,,,,,,,,,NU2_en,001,2025-03-07_12h57.17.126,MainFlow,2024.2.4,149.3734530523547,2025-03-07 12h57.38.719394 +0700,
2,40,0,word/worden0401.png,image/False/imgf40.png,29,29,0,x,0.6143910000009782,None,0,29,29,29,107.36482160000014,,,,,,,108.86455319999914,108.36998440000025,108.37492050000037,108.37492050000037,108.85881359999985,109.99261649999971,109.99261649999971,x,0.6143910000009782,None,108.86455319999914,108.86455319999914,,,,,,,,,NU2_en,001,2025-03-07_12h57.17.126,MainFlow,2024.2.4,149.3734530523547,2025-03-07 12h57.38.719394 +0700,
2,1,0,word/worden0011.png,image/False/imgf01.png,30,30,0,x,0.5433019000010972,None,0,30,30,30,110.61541620000025,,,,,,,112.10699229999955,111.60918139999922,111.61338559999967,111.61338559999967,112.10129589999997,113.21227480000016,113.21227480000016,x,0.5433019000010972,None,112.10699229999955,112.10699229999955,113.21227480000016,,,,,,,,NU2_en,001,2025-03-07_12h57.17.126,MainFlow,2024.2.4,149.3734530523547,2025-03-07 12h57.38.719394 +0700,
2,3,0,word/worden0031.png,image/False/imgf03.png,31,31,0,x,0.5638773999999103,None,0,31,31,31,113.7702403000003,,,,,,,115.27311539999937,114.77637429999959,114.78104799999892,114.78104799999892,115.2669722999999,116.38692929999888,116.38692929999888,x,0.5638773999999103,None,,,,,,,,,,,NU2_en,001,2025-03-07_12h57.17.126,MainFlow,2024.2.4,149.3734530523547,2025-03-07 12h57.38.719394 +0700,
2,57,1,word/worden0571.png,image/True/img57.png,32,32,0,z,0.6332916999999725,None,0,32,32,32,116.96010639999986,,,,,,,118.45405449999998,117.95794170000045,117.96265779999885,117.96265779999885,118.44827889999942,119.5659383000002,119.5659383000002,z,0.6332916999999725,None,118.45405449999998,118.45405449999998,119.5659383000002,,,,,,,,NU2_en,001,2025-03-07_12h57.17.126,MainFlow,2024.2.4,149.3734530523547,2025-03-07 12h57.38.719394 +0700,
2,88,0,word/worden0881.png,image/False/imgf88.png,33,33,0,x,0.7150359999995999,None,0,33,33,33,120.2095618000003,,,,,,,121.69593749999876,121.2013709999992,121.20583889999943,121.20583889999943,121.69075390000035,122.81493109999974,122.81493109999974,x,0.7150359999995999,None,121.69593749999876,121.69593749999876,122.81493109999974,,,,,,,,NU2_en,001,2025-03-07_12h57.17.126,MainFlow,2024.2.4,149.3734530523547,2025-03-07 12h57.38.719394 +0700,
2,52,0,word/worden0521.png,image/False/imgf52.png,34,34,0,x,0.6577765000001818,None,0,34,34,34,123.54225049999877,,,,,,,125.0350182000002,124.53694279999945,124.5410899999988,124.5410899999988,125.02924979999989,126.13628590000008,126.13628590000008,x,0.6577765000001818,None,125.0350182000002,125.0350182000002,126.13628590000008,,,,,,,,NU2_en,001,2025-03-07_12h57.17.126,MainFlow,2024.2.4,149.3734530523547,2025-03-07 12h57.38.719394 +0700,
2,50,0,word/worden0501.png,image/False/imgf50.png,35,35,0,x,0.6331934000008914,None,0,35,35,35,126.80549679999967,,,,,,,128.2989166999996,127.80068169999868,127.80525169999964,127.80525169999964,128.29360769999948,129.41120489999957,129.41120489999957,x,0.6331934000008914,None,128.2989166999996,128.2989166999996,129.41120489999957,,,,,,,,NU2_en,001,2025-03-07_12h57.17.126,MainFlow,2024.2.4,149.3734530523547,2025-03-07 12h57.38.719394 +0700,
2,78,1,word/worden0781.png,image/True/img78.png,36,36,0,z,0.5960276000005251,None,0,36,36,36,130.0548218999993,,,,,,,131.55491679999977,131.05736160000015,131.06214069999987,131.06214069999987,131.54985019999913,132.66481609999937,132.66481609999937,z,0.5960276000005251,None,131.55491679999977,131.55491679999977,,,,,,,,,NU2_en,001,2025-03-07_12h57.17.126,MainFlow,2024.2.4,149.3734530523547,2025-03-07 12h57.38.719394 +0700,
2,61,0,word/worden0611.png,image/False/imgf61.png,37,37,0,x,0.4633917000010115,None,0,37,37,37,133.27199949999886,,,,,,,134.76974919999884,134.27206709999882,134.2762034999996,134.2762034999996,134.7647552999988,135.89910280000004,135.89910280000004,x,0.4633917000010115,None,134.76974919999884,134.76974919999884,135.89910280000004,,,,,,,,NU2_en,001,2025-03-07_12h57.17.126,MainFlow,2024.2.4,149.3734530523547,2025-03-07 12h57.38.719394 +0700,
2,36,0,word/worden0361.png,image/False/imgf36.png,38,38,0,x,1.9675091000008251,None,0,38,38,38,136.37509239999963,,,,,,,137.86593729999913,137.3680915999994,137.37222649999967,137.37222649999967,137.86071719999927,138.98470300000008,138.98470300000008,x,1.9675091000008251,None,137.86593729999913,137.86593729999913,138.98470300000008,,,,,,,,NU2_en,001,2025-03-07_12h57.17.126,MainFlow,2024.2.4,149.3734530523547,2025-03-07 12h57.38.719394 +0700,
2,10,1,word/worden0101.png,image/True/img10.png,39,39,0,z,0.6845864999995683,None,0,39,39,39,140.96243419999882,,,,,,,142.46214639999926,141.96531379999942,141.97038760000032,141.97038760000032,142.45623559999876,143.5638127000002,143.5638127000002,z,0.6845864999995683,None,142.46214639999926,142.46214639999926,,,,,,,,,NU2_en,001,2025-03-07_12h57.17.126,MainFlow,2024.2.4,149.3734530523547,2025-03-07 12h57.38.719394 +0700,
2,75,1,word/worden0751.png,image/True/img75.png,40,40,0,z,0.5718634000004386,None,0,40,40,40,144.2604565999991,,,,,,,145.7532599999995,145.25602020000042,145.26059469999927,145.26059469999927,145.74759230000018,146.86103889999868,146.86103889999868,z,0.5718634000004386,None,145.7532599999995,145.7532599999995,146.86103889999868,,,,,,,,NU2_en,001,2025-03-07_12h57.17.126,MainFlow,2024.2.4,149.3734530523547,2025-03-07 12h57.38.719394 +0700,
2,1,1,word/worden0011.png,image/True/img01.png,41,41,0,z,0.5921577000008256,None,0,41,41,41,147.44039969999903,,,,,,,148.92640240000037,148.43111399999907,148.43555000000015,148.43555000000015,148.92103839999982,150.0461168999991,150.0461168999991,z,0.5921577000008256,None,148.92640240000037,148.92640240000037,150.0461168999991,,,,,,,,NU2_en,001,2025-03-07_12h57.17.126,MainFlow,2024.2.4,149.3734530523547,2025-03-07 12h57.38.719394 +0700,
2,37,1,word/worden0371.png,image/True/img37.png,42,42,0,x,0.587697400000252,None,0,42,42,42,150.6481408999989,,,,,,,152.14794540000003,151.65255109999998,151.6569189999991,151.6569189999991,152.1422537999988,153.27816679999887,153.27816679999887,x,0.587697400000252,None,152.14794540000003,152.14794540000003,,,,,,,,,NU2_en,001,2025-03-07_12h57.17.126,MainFlow,2024.2.4,149.3734530523547,2025-03-07 12h57.38.719394 +0700,
2,66,0,word/worden0661.png,image/False/imgf66.png,43,43,0,x,1.0990009999986796,None,0,43,43,43,153.87700210000003,,,,,,,155.36947390000023,154.87476889999925,154.87893339999937,154.87893339999937,155.3641091999998,156.4796564999997,156.4796564999997,x,1.0990009999986796,None,155.36947390000023,155.36947390000023,156.4796564999997,,,,,,,,NU2_en,001,2025-03-07_12h57.17.126,MainFlow,2024.2.4,149.3734530523547,2025-03-07 12h57.38.719394 +0700,
2,55,1,word/worden0551.png,image/True/img55.png,44,44,0,z,0.8974924000012834,None,0,44,44,44,157.5913099999998,,,,,,,159.0911197000005,158.59213049999926,158.59714019999956,158.59714019999956,159.0850219999993,160.21182020000015,160.21182020000015,z,0.8974924000012834,None,159.0911197000005,159.0911197000005,,,,,,,,,NU2_en,001,2025-03-07_12h57.17.126,MainFlow,2024.2.4,149.3734530523547,2025-03-07 12h57.38.719394 +0700,
2,70,0,word/worden0701.png,image/False/imgf70.png,45,45,0,x,0.748280200001318,None,0,45,45,45,161.11834389999967,,,,,,,162.61109849999957,162.11454479999884,162.11938589999954,162.11938589999954,162.6053377999997,163.70812209999895,163.70812209999895,x,0.748280200001318,None,162.61109849999957,162.61109849999957,163.70812209999895,,,,,,,,NU2_en,001,2025-03-07_12h57.17.126,MainFlow,2024.2.4,149.3734530523547,2025-03-07 12h57.38.719394 +0700,
2,68,0,word/worden0681.png,image/False/imgf68.png,46,46,0,x,0.9293486999995366,None,0,46,46,46,164.46487530000013,,,,,,,165.96480580000025,165.46518130000004,165.46987629999967,165.46987629999967,165.959528899999,167.04771559999972,167.04771559999972,x,0.9293486999995366,None,165.96480580000025,165.96480580000025,,,,,,,,,NU2_en,001,2025-03-07_12h57.17.126,MainFlow,2024.2.4,149.3734530523547,2025-03-07 12h57.38.719394 +0700,
2,75,1,word/worden0751.png,image/True/img75.png,47,47,0,z,0.8053108000003704,None,0,47,47,47,167.9850706999987,,,,,,,169.47870899999907,168.981668299999,168.98639639999965,168.98639639999965,169.47322910000003,170.5855202999992,170.5855202999992,z,0.8053108000003704,None,169.47870899999907,169.47870899999907,170.5855202999992,,,,,,,,NU2_en,001,2025-03-07_12h57.17.126,MainFlow,2024.2.4,149.3734530523547,2025-03-07 12h57.38.719394 +0700,
2,38,1,word/worden0381.png,image/True/img38.png,48,48,0,z,0.8221326000002591,None,0,48,48,48,171.40102999999908,,,,,,,172.88700229999995,172.39294320000045,172.3974722999992,172.3974722999992,172.88141559999895,173.98451310000019,173.98451310000019,z,0.8221326000002591,None,172.88700229999995,172.88700229999995,173.98451310000019,,,,,,,,NU2_en,001,2025-03-07_12h57.17.126,MainFlow,2024.2.4,149.3734530523547,2025-03-07 12h57.38.719394 +0700,
2,42,1,word/worden0421.png,image/True/img42.png,49,49,0,z,0.6750443000000814,None,0,49,49,49,174.81702489999952,,,,,,,176.30294099999992,175.80460200000016,175.8086760999995,175.8086760999995,176.2972721999995,177.41804339999908,177.41804339999908,z,0.6750443000000814,None,176.30294099999992,176.30294099999992,177.41804339999908,,,,,,,,NU2_en,001,2025-03-07_12h57.17.126,MainFlow,2024.2.4,149.3734530523547,2025-03-07 12h57.38.719394 +0700,
2,11,0,word/worden0111.png,image/False/imgf11.png,50,50,0,x,0.6389261999993323,None,0,50,50,50,178.10634009999922,,,,,,,179.60080430000016,179.10426579999876,179.10893909999868,179.10893909999868,179.5949241999988,180.73513110000022,180.73513110000022,x,0.6389261999993323,None,179.60080430000016,179.60080430000016,180.73513110000022,,,,,,,,NU2_en,001,2025-03-07_12h57.17.126,MainFlow,2024.2.4,149.3734530523547,2025-03-07 12h57.38.719394 +0700,
2,41,0,word/worden0411.png,image/False/imgf41.png,51,51,0,x,0.6700493999996979,None,0,51,51,51,181.38516119999986,,,,,,,182.87098220000007,182.37289489999966,182.37693209999998,182.37693209999998,182.86507159999928,183.95042399999875,183.95042399999875,x,0.6700493999996979,None,182.87098220000007,182.87098220000007,183.95042399999875,,,,,,,,NU2_en,001,2025-03-07_12h57.17.126,MainFlow,2024.2.4,149.3734530523547,2025-03-07 12h57.38.719394 +0700,
2,82,1,word/worden0821.png,image/True/img82.png,52,52,0,z,0.8107018999999127,None,0,52,52,52,184.62760309999976,,,,,,,186.11346409999896,185.61825680000038,185.62239810000028,185.62239810000028,186.10753639999893,187.18475579999904,187.18475579999904,z,0.8107018999999127,None,186.11346409999896,186.11346409999896,187.18475579999904,,,,,,,,NU2_en,001,2025-03-07_12h57.17.126,MainFlow,2024.2.4,149.3734530523547,2025-03-07 12h57.38.719394 +0700,
2,88,0,word/worden0881.png,image/False/imgf88.png,53,53,0,x,0.7414599999992788,None,0,53,53,53,188.0019730999993,,,,,,,189.48813249999876,188.99054239999896,188.99474149999878,188.99474149999878,189.48292159999983,190.59995089999939,190.59995089999939,x,0.7414599999992788,None,189.48813249999876,189.48813249999876,190.59995089999939,,,,,,,,NU2_en,001,2025-03-07_12h57.17.126,MainFlow,2024.2.4,149.3734530523547,2025-03-07 12h57.38.719394 +0700,
2,8,1,word/worden0081.png,image/True/img08.png,54,54,0,z,2.523342100001173,None,0,54,54,54,191.34852949999913,,,,,,,192.8334175,192.33731850000004,192.34160399999928,192.34160399999928,192.8273511999996,193.96636269999908,193.96636269999908,z,2.523342100001173,None,192.8334175,192.8334175,193.96636269999908,,,,,,,,NU2_en,001,2025-03-07_12h57.17.126,MainFlow,2024.2.4,149.3734530523547,2025-03-07 12h57.38.719394 +0700,
2,16,0,word/worden0161.png,image/False/imgf16.png,55,55,0,x,0.6537688999997044,None,0,55,55,55,196.49948070000028,,,,,,,198.00630199999978,197.51244599999882,197.51604439999937,197.51604439999937,198.0000103000002,199.1211829999993,199.1211829999993,x,0.6537688999997044,None,,,,,,,,,,,NU2_en,001,2025-03-07_12h57.17.126,MainFlow,2024.2.4,149.3734530523547,2025-03-07 12h57.38.719394 +0700,
2,10,0,word/worden0101.png,image/False/imgf10.png,56,56,0,x,0.7380477999995492,None,0,56,56,56,199.78350390000014,,,,,,,201.26953820000017,200.77689680000003,200.78024639999967,200.78024639999967,201.26429439999993,202.37896619999992,202.37896619999992,x,0.7380477999995492,None,201.26953820000017,201.26953820000017,202.37896619999992,,,,,,,,NU2_en,001,2025-03-07_12h57.17.126,MainFlow,2024.2.4,149.3734530523547,2025-03-07 12h57.38.719394 +0700,
2,76,0,word/worden0761.png,image/False/imgf76.png,57,57,0,x,1.0558783000014955,None,0,57,57,57,203.1230560999993,,,,,,,204.60911809999925,204.11073659999965,204.11348980000002,204.11348980000002,204.60334779999903,205.74318689999927,205.74318689999927,x,1.0558783000014955,None,204.60911809999925,204.60911809999925,205.74318689999927,,,,,,,,NU2_en,001,2025-03-07_12h57.17.126,MainFlow,2024.2.4,149.3734530523547,2025-03-07 12h57.38.719394 +0700,
2,42,1,word/worden0421.png,image/True/img42.png,58,58,0,z,1.9976069000003918,None,0,58,58,58,206.80983910000032,,,,,,,208.30275830000028,207.80546080000022,207.80885789999957,207.80885789999957,208.29681170000003,209.4122021000003,209.4122021000003,z,1.9976069000003918,None,208.30275830000028,208.30275830000028,209.4122021000003,,,,,,,,NU2_en,001,2025-03-07_12h57.17.126,MainFlow,2024.2.4,149.3734530523547,2025-03-07 12h57.38.719394 +0700,
2,26,0,word/worden0261.png,image/False/imgf26.png,59,59,0,x,1.4151933999983157,None,0,59,59,59,211.42015399999946,,,,,,,212.9130398999987,212.42056239999874,212.42394179999974,212.42394179999974,212.90760070000033,214.3050394999991,214.3050394999991,x,1.4151933999983157,None,212.9130398999987,212.9130398999987,214.3050394999991,,,,,,,,NU2_en,001,2025-03-07_12h57.17.126,MainFlow,2024.2.4,149.3734530523547,2025-03-07 12h57.38.719394 +0700,
2,26,1,word/worden0261.png,image/True/img26.png,60,60,0,z,0.6228740999995352,None,0,60,60,60,215.73178969999935,,,,,,,217.22456529999909,216.72841419999895,216.73189569999886,216.73189569999886,217.21882489999916,218.35472219999974,218.35472219999974,z,0.6228740999995352,None,217.22456529999909,217.22456529999909,218.35472219999974,,,,,,,,NU2_en,001,2025-03-07_12h57.17.126,MainFlow,2024.2.4,149.3734530523547,2025-03-07 12h57.38.719394 +0700,
2,48,1,word/worden0481.png,image/True/img48.png,61,61,0,z,0.3913236999997025,None,0,61,61,61,218.9880358999999,,,,,,,220.48108709999906,219.98581410000043,219.98911579999913,219.98911579999913,220.475351699999,221.6024497999988,221.6024497999988,z,0.3913236999997025,None,220.48108709999906,220.48108709999906,221.6024497999988,,,,,,,,NU2_en,001,2025-03-07_12h57.17.126,MainFlow,2024.2.4,149.3734530523547,2025-03-07 12h57.38.719394 +0700,
2,71,0,word/worden0711.png,image/False/imgf71.png,62,62,0,x,0.526014999999461,None,0,62,62,62,222.0014381000001,,,,,,,223.50144179999916,223.0074642999989,223.01104469999882,223.01104469999882,223.49556510000002,224.62506519999988,224.62506519999988,x,0.526014999999461,None,223.50144179999916,223.50144179999916,,,,,,,,,NU2_en,001,2025-03-07_12h57.17.126,MainFlow,2024.2.4,149.3734530523547,2025-03-07 12h57.38.719394 +0700,
2,93,1,word/worden0931.png,image/True/img93.png,63,63,0,z,0.5732560000014928,None,0,63,63,63,225.16071389999888,,,,,,,226.66021569999975,226.16212180000002,226.16574029999902,226.16574029999902,226.6541144999992,227.75640070000009,227.75640070000009,z,0.5732560000014928,None,226.66021569999975,226.66021569999975,,,,,,,,,NU2_en,001,2025-03-07_12h57.17.126,MainFlow,2024.2.4,149.3734530523547,2025-03-07 12h57.38.719394 +0700,
2,51,1,word/worden0511.png,image/True/img51.png,64,64,0,z,0.6500759000009566,None,0,64,64,64,228.34062619999895,,,,,,,229.8333060999994,229.33978679999927,229.34304650000013,229.34304650000013,229.82751629999984,230.94702599999982,230.94702599999982,z,0.6500759000009566,None,229.8333060999994,229.8333060999994,230.94702599999982,,,,,,,,NU2_en,001,2025-03-07_12h57.17.126,MainFlow,2024.2.4,149.3734530523547,2025-03-07 12h57.38.719394 +0700,
2,78,0,word/worden0781.png,image/False/imgf78.png,65,65,0,x,0.567472099999577,None,0,65,65,65,231.60702049999963,,,,,,,233.10360450000007,232.60511760000009,232.60841959999925,232.60841959999925,233.0977286999987,234.19789820000005,234.19789820000005,x,0.567472099999577,None,233.10360450000007,233.10360450000007,234.19789820000005,,,,,,,,NU2_en,001,2025-03-07_12h57.17.126,MainFlow,2024.2.4,149.3734530523547,2025-03-07 12h57.38.719394 +0700,
2,64,0,word/worden0641.png,image/False/imgf64.png,66,66,0,x,0.5385561999992206,None,0,66,66,66,234.7766756000001,,,,,,,236.26965889999883,235.77536150000014,235.77874039999915,235.77874039999915,236.26394529999925,237.3535049000002,237.3535049000002,x,0.5385561999992206,None,236.26965889999883,236.26965889999883,237.3535049000002,,,,,,,,NU2_en,001,2025-03-07_12h57.17.126,MainFlow,2024.2.4,149.3734530523547,2025-03-07 12h57.38.719394 +0700,
2,68,1,word/worden0681.png,image/True/img68.png,67,67,0,z,0.6910379999990255,None,0,67,67,67,237.90256129999943,,,,,,,239.38696869999876,238.89337569999952,238.89664139999877,238.89664139999877,239.3811188999989,240.46514910000042,240.46514910000042,z,0.6910379999990255,None,239.38696869999876,239.38696869999876,240.46514910000042,,,,,,,,NU2_en,001,2025-03-07_12h57.17.126,MainFlow,2024.2.4,149.3734530523547,2025-03-07 12h57.38.719394 +0700,
2,57,0,word/worden0571.png,image/False/imgf57.png,68,68,0,x,0.6582127999990917,None,0,68,68,68,241.16449809999904,,,,,,,242.65029539999887,242.15267569999924,242.15534519999892,242.15534519999892,242.64419590000034,243.7694905999997,243.7694905999997,x,0.6582127999990917,None,242.65029539999887,242.65029539999887,243.7694905999997,,,,,,,,NU2_en,001,2025-03-07_12h57.17.126,MainFlow,2024.2.4,149.3734530523547,2025-03-07 12h57.38.719394 +0700,
2,31,0,word/worden0311.png,image/False/imgf31.png,69,69,0,x,0.5477890000001935,None,0,69,69,69,244.43560780000007,,,,,,,245.92733749999934,245.4337448999995,245.43690649999917,245.43690649999917,245.92132169999968,246.9953088000002,246.9953088000002,x,0.5477890000001935,None,245.92733749999934,245.92733749999934,246.9953088000002,,,,,,,,NU2_en,001,2025-03-07_12h57.17.126,MainFlow,2024.2.4,149.3734530523547,2025-03-07 12h57.38.719394 +0700,
2,31,0,word/worden0311.png,image/False/imgf31.png,70,70,0,x,0.461727100000644,None,0,70,70,70,247.5520104999996,,,,,,,249.0380186000002,248.54429059999893,248.54753979999987,248.54753979999987,249.03234809999958,250.1162844999999,250.1162844999999,x,0.461727100000644,None,249.0380186000002,249.0380186000002,250.1162844999999,,,,,,,,NU2_en,001,2025-03-07_12h57.17.126,MainFlow,2024.2.4,149.3734530523547,2025-03-07 12h57.38.719394 +0700,
2,55,1,word/worden0551.png,image/True/img55.png,71,71,0,z,0.8536370000001625,None,0,71,71,71,250.58616099999927,,,,,,,252.08618260000003,251.58745959999942,251.59107550000044,251.59107550000044,252.07980390000012,253.20113730000048,253.20113730000048,z,0.8536370000001625,None,252.08618260000003,252.08618260000003,,,,,,,,,NU2_en,001,2025-03-07_12h57.17.126,MainFlow,2024.2.4,149.3734530523547,2025-03-07 12h57.38.719394 +0700,
2,36,1,word/worden0361.png,image/True/img36.png,72,72,0,z,0.499307800000679,None,0,72,72,72,254.0647031999997,,,,,,,255.55052780000005,255.0522060000003,255.05501360000017,255.05501360000017,255.54479859999992,256.6521744999991,256.6521744999991,z,0.499307800000679,None,255.55052780000005,255.55052780000005,256.6521744999991,,,,,,,,NU2_en,001,2025-03-07_12h57.17.126,MainFlow,2024.2.4,149.3734530523547,2025-03-07 12h57.38.719394 +0700,
2,8,0,word/worden0081.png,image/False/imgf08.png,73,73,0,x,0.5720516000001226,None,0,73,73,73,257.1614547999998,,,,,,,258.6611045999998,258.1619221000001,258.1655250999993,258.1655250999993,258.65616969999974,259.74105359999885,259.74105359999885,x,0.5720516000001226,None,258.6611045999998,258.6611045999998,,,,,,,,,NU2_en,001,2025-03-07_12h57.17.126,MainFlow,2024.2.4,149.3734530523547,2025-03-07 12h57.38.719394 +0700,
2,82,0,word/worden0821.png,image/False/imgf82.png,74,74,0,x,1.4287858999996388,None,0,74,74,74,260.3235638999995,,,,,,,261.8131618999996,261.3150631999997,261.3178644999989,261.3178644999989,261.80718720000004,262.9413647000001,262.9413647000001,x,1.4287858999996388,None,261.8131618999996,261.8131618999996,262.9413647000001,,,,,,,,NU2_en,001,2025-03-07_12h57.17.126,MainFlow,2024.2.4,149.3734530523547,2025-03-07 12h57.38.719394 +0700,
2,14,0,word/worden0141.png,image/False/imgf14.png,75,75,0,x,0.5903253999986191,None,0,75,75,75,264.38223219999963,,,,,,,265.8749236999993,265.37985879999906,265.3831534000001,265.3831534000001,265.8690312999988,266.98536950000016,266.98536950000016,x,0.5903253999986191,None,265.8749236999993,265.8749236999993,266.98536950000016,,,,,,,,NU2_en,001,2025-03-07_12h57.17.126,MainFlow,2024.2.4,149.3734530523547,2025-03-07 12h57.38.719394 +0700,
2,71,1,word/worden0711.png,image/True/img71.png,76,76,0,z,1.356364699999176,None,0,76,76,76,267.58289890000015,,,,,,,269.07567070000005,268.578770099999,268.5823314999998,268.5823314999998,269.0697361000002,270.1966324999994,270.1966324999994,z,1.356364699999176,None,269.07567070000005,269.07567070000005,270.1966324999994,,,,,,,,NU2_en,001,2025-03-07_12h57.17.126,MainFlow,2024.2.4,149.3734530523547,2025-03-07 12h57.38.719394 +0700,
2,22,0,word/worden0221.png,image/False/imgf22.png,77,77,0,x,2.8749938999990263,None,0,77,77,77,271.5614164999988,,,,,,,273.04706389999956,272.554496499999,272.5578489999989,272.5578489999989,273.0411101999998,274.1812226999991,274.1812226999991,x,2.8749938999990263,None,273.04706389999956,273.04706389999956,274.1812226999991,,,,,,,,NU2_en,001,2025-03-07_12h57.17.126,MainFlow,2024.2.4,149.3734530523547,2025-03-07 12h57.38.719394 +0700,
2,78,1,word/worden0781.png,image/True/img78.png,78,78,0,z,1.2155091000004177,None,0,78,78,78,277.06722739999896,,,,,,,278.5738316999996,278.0745623999992,278.07808769999974,278.07808769999974,278.56745450000017,279.6594862999991,279.6594862999991,z,1.2155091000004177,None,,,,,,,,,,,NU2_en,001,2025-03-07_12h57.17.126,MainFlow,2024.2.4,149.3734530523547,2025-03-07 12h57.38.719394 +0700,
2,51,0,word/worden0511.png,image/False/imgf51.png,79,79,0,x,1.11913210000057,None,0,79,79,79,280.8858540000001,,,,,,,282.3787037000002,281.88378209999973,281.8870343999988,281.8870343999988,282.3727323999992,283.4729740999992,283.4729740999992,x,1.11913210000057,None,282.3787037000002,282.3787037000002,283.4729740999992,,,,,,,,NU2_en,001,2025-03-07_12h57.17.126,MainFlow,2024.2.4,149.3734530523547,2025-03-07 12h57.38.719394 +0700,
2,56,1,word/worden0561.png,image/True/img56.png,80,80,0,z,2.273706400001174,None,0,80,80,80,284.6005680999988,,,,,,,286.1001540999987,285.60236199999963,285.60563170000023,285.60563170000023,286.094455299999,287.20640939999976,287.20640939999976,z,2.273706400001174,None,286.1001540999987,286.1001540999987,,,,,,,,,NU2_en,001,2025-03-07_12h57.17.126,MainFlow,2024.2.4,149.3734530523547,2025-03-07 12h57.38.719394 +0700,
2,60,1,word/worden0601.png,image/True/img60.png,81,81,0,z,0.552392299998246,None,0,81,81,81,289.4883525999994,,,,,,,290.9953174000002,290.4984000000004,290.5019240999991,290.5019240999991,290.9886181999991,292.09712709999985,292.09712709999985,z,0.552392299998246,None,,,,,,,,,,,NU2_en,001,2025-03-07_12h57.17.126,MainFlow,2024.2.4,149.3734530523547,2025-03-07 12h57.38.719394 +0700,
2,96,0,word/worden0961.png,image/False/imgf96.png,82,82,0,x,0.7991841999992175,None,0,82,82,82,292.6613058999992,,,,,,,294.14722769999935,293.6552449999999,293.6580260999999,293.6580260999999,294.14123839999957,295.2752306000002,295.2752306000002,x,0.7991841999992175,None,294.14722769999935,294.14722769999935,295.2752306000002,,,,,,,,NU2_en,001,2025-03-07_12h57.17.126,MainFlow,2024.2.4,149.3734530523547,2025-03-07 12h57.38.719394 +0700,
2,3,0,word/worden0031.png,image/False/imgf03.png,83,83,0,x,0.7797503000001598,None,0,83,83,83,296.08442749999995,,,,,,,297.5771238999987,297.08382840000013,297.0870737999994,297.0870737999994,297.57129879999957,298.6845799999992,298.6845799999992,x,0.7797503000001598,None,297.5771238999987,297.5771238999987,298.6845799999992,,,,,,,,NU2_en,001,2025-03-07_12h57.17.126,MainFlow,2024.2.4,149.3734530523547,2025-03-07 12h57.38.719394 +0700,
2,55,0,word/worden0551.png,image/False/imgf55.png,84,84,0,x,2.9201207000005525,None,0,84,84,84,299.4726403000004,,,,,,,300.96530989999883,300.46777529999963,300.47121289999995,300.47121289999995,300.9592190000003,302.0893022,302.0893022,x,2.9201207000005525,None,300.96530989999883,300.96530989999883,302.0893022,,,,,,,,NU2_en,001,2025-03-07_12h57.17.126,MainFlow,2024.2.4,149.3734530523547,2025-03-07 12h57.38.719394 +0700,
2,71,1,word/worden0711.png,image/True/img71.png,85,85,0,z,0.4492457000014838,None,0,85,85,85,305.02003499999955,,,,,,,306.5130742000001,306.0186362000004,306.02193160000024,306.02193160000024,306.5081386999991,307.6400483999987,307.6400483999987,z,0.4492457000014838,None,306.5130742000001,306.5130742000001,307.6400483999987,,,,,,,,NU2_en,001,2025-03-07_12h57.17.126,MainFlow,2024.2.4,149.3734530523547,2025-03-07 12h57.38.719394 +0700,
2,3,1,word/worden0031.png,image/True/img03.png,86,86,0,z,0.592368700001316,None,0,86,86,86,308.0959213999995,,,,,,,309.59561120000035,309.0974176999989,309.10064500000044,309.10064500000044,309.5896692999995,310.7054043999997,310.7054043999997,z,0.592368700001316,None,309.59561120000035,309.59561120000035,,,,,,,,,NU2_en,001,2025-03-07_12h57.17.126,MainFlow,2024.2.4,149.3734530523547,2025-03-07 12h57.38.719394 +0700,
2,52,1,word/worden0521.png,image/True/img52.png,87,87,0,z,2.407511600000362,None,0,87,87,87,311.3045349999993,,,,,,,312.796448699999,312.2999149999996,312.30335000000014,312.30335000000014,312.7911078999987,313.92065639999964,313.92065639999964,z,2.407511600000362,None,312.796448699999,312.796448699999,313.92065639999964,,,,,,,,NU2_en,001,2025-03-07_12h57.17.126,MainFlow,2024.2.4,149.3734530523547,2025-03-07 12h57.38.719394 +0700,
2,95,0,word/worden0951.png,image/False/imgf95.png,88,88,0,x,2.2701964000007138,None,0,88,88,88,316.3374418000003,,,,,,,317.83020399999987,317.3344935999994,317.33784689999993,317.33784689999993,317.8239842999992,318.9490253999993,318.9490253999993,x,2.2701964000007138,None,317.83020399999987,317.83020399999987,318.9490253999993,,,,,,,,NU2_en,001,2025-03-07_12h57.17.126,MainFlow,2024.2.4,149.3734530523547,2025-03-07 12h57.38.719394 +0700,
2,6,0,word/worden0061.png,image/False/imgf06.png,89,89,0,x,3.292395000000397,None,0,89,89,89,321.2252365000004,,,,,,,322.7111396,322.21886950000044,322.222064399999,322.222064399999,322.70510079999985,323.804967099999,323.804967099999,x,3.292395000000397,None,322.7111396,322.7111396,323.804967099999,,,,,,,,NU2_en,001,2025-03-07_12h57.17.126,MainFlow,2024.2.4,149.3734530523547,2025-03-07 12h57.38.719394 +0700,
2,79,1,word/worden0791.png,image/True/img79.png,90,90,0,z,0.8541882999998052,None,0,90,90,90,327.10604179999973,,,,,,,328.60617920000004,328.1124409999993,328.1160232000002,328.1160232000002,328.60125320000043,329.7268673999988,329.7268673999988,z,0.8541882999998052,None,328.60617920000004,328.60617920000004,,,,,,,,,NU2_en,001,2025-03-07_12h57.17.126,MainFlow,2024.2.4,149.3734530523547,2025-03-07 12h57.38.719394 +0700,
2,61,0,word/worden0611.png,image/False/imgf61.png,91,91,0,x,1.3175654999995459,None,0,91,91,91,330.59149069999876,,,,,,,332.08435089999875,331.58611519999977,331.5895428999993,331.5895428999993,332.07829519999905,333.21011,333.21011,x,1.3175654999995459,None,332.08435089999875,332.08435089999875,333.21011,,,,,,,,NU2_en,001,2025-03-07_12h57.17.126,MainFlow,2024.2.4,149.3734530523547,2025-03-07 12h57.38.719394 +0700,
2,46,0,word/worden0461.png,image/False/imgf46.png,92,92,0,x,0.5238718000000517,None,0,92,92,92,334.53519119999874,,,,,,,336.0419812,335.5462341000002,335.55005619999974,335.55005619999974,336.03558580000026,337.1773417000004,337.1773417000004,x,0.5238718000000517,None,,,,,,,,,,,NU2_en,001,2025-03-07_12h57.17.126,MainFlow,2024.2.4,149.3734530523547,2025-03-07 12h57.38.719394 +0700,
2,89,1,word/worden0891.png,image/True/img89.png,93,93,0,z,0.4691160000002128,None,0,93,93,93,337.7082214999991,,,,,,,339.2011270999992,338.7083619999994,338.7114131999988,338.7114131999988,339.1952614999991,340.28907889999937,340.28907889999937,z,0.4691160000002128,None,339.2011270999992,339.2011270999992,340.28907889999937,,,,,,,,NU2_en,001,2025-03-07_12h57.17.126,MainFlow,2024.2.4,149.3734530523547,2025-03-07 12h57.38.719394 +0700,
2,26,0,word/worden0261.png,image/False/imgf26.png,94,94,0,x,0.5243511000007857,None,0,94,94,94,340.77107819999947,,,,,,,342.2700437000003,341.7713313000004,341.774684,341.774684,342.26477349999914,343.39813440000034,343.39813440000034,x,0.5243511000007857,None,342.2700437000003,342.2700437000003,343.39813440000034,,,,,,,,NU2_en,001,2025-03-07_12h57.17.126,MainFlow,2024.2.4,149.3734530523547,2025-03-07 12h57.38.719394 +0700,
2,44,0,word/worden0441.png,image/False/imgf44.png,95,95,0,x,0.494785500000944,None,0,95,95,95,343.92929899999945,,,,,,,345.422035399999,344.9281383999987,344.93160539999917,344.93160539999917,345.41642200000024,346.5582792999994,346.5582792999994,x,0.494785500000944,None,345.422035399999,345.422035399999,346.5582792999994,,,,,,,,NU2_en,001,2025-03-07_12h57.17.126,MainFlow,2024.2.4,149.3734530523547,2025-03-07 12h57.38.719394 +0700,
2,82,1,word/worden0821.png,image/True/img82.png,96,96,0,z,0.7964613000003737,None,0,96,96,96,347.0606270999997,,,,,,,348.5605013000004,348.06209800000033,348.06583729999875,348.06583729999875,348.5544633999998,349.63651149999896,349.63651149999896,z,0.7964613000003737,None,348.5605013000004,348.5605013000004,,,,,,,,,NU2_en,001,2025-03-07_12h57.17.126,MainFlow,2024.2.4,149.3734530523547,2025-03-07 12h57.38.719394 +0700,
2,16,1,word/worden0161.png,image/True/img16.png,97,97,0,z,0.5227611000009347,None,0,97,97,97,350.4419648999992,,,,,,,351.9419055999988,351.44269089999943,351.44599369999924,351.44599369999924,351.9367306999993,353.0648593999995,353.0648593999995,z,0.5227611000009347,None,351.9419055999988,351.9419055999988,,,,,,,,,NU2_en,001,2025-03-07_12h57.17.126,MainFlow,2024.2.4,149.3734530523547,2025-03-07 12h57.38.719394 +0700,
2,20,1,word/worden0201.png,image/True/img20.png,98,98,0,z,0.6913322999989759,None,0,98,98,98,353.5942180000002,,,,,,,355.08676279999963,354.5918127999994,354.5949299999993,354.5949299999993,355.08068280000043,356.20850489999975,356.20850489999975,z,0.6913322999989759,None,355.08676279999963,355.08676279999963,356.20850489999975,,,,,,,,NU2_en,001,2025-03-07_12h57.17.126,MainFlow,2024.2.4,149.3734530523547,2025-03-07 12h57.38.719394 +0700,
2,20,1,word/worden0201.png,image/True/img20.png,99,99,0,z,0.3139369999989867,None,0,99,99,99,356.9086212000002,,,,,,,358.4057624999987,357.9074813999996,357.91061179999997,357.91061179999997,358.3998376999989,359.5151059999989,359.5151059999989,z,0.3139369999989867,None,358.4057624999987,358.4057624999987,359.5151059999989,,,,,,,,NU2_en,001,2025-03-07_12h57.17.126,MainFlow,2024.2.4,149.3734530523547,2025-03-07 12h57.38.719394 +0700,
2,96,1,word/worden0961.png,image/True/img96.png,100,100,0,z,0.5939424999996845,None,0,100,100,100,359.8360198999999,,,,,,,361.33575159999964,360.8376386,360.84089499999936,360.84089499999936,361.33066119999967,362.4413809999987,362.4413809999987,z,0.5939424999996845,None,361.33575159999964,361.33575159999964,,,,,,,,,NU2_en,001,2025-03-07_12h57.17.126,MainFlow,2024.2.4,149.3734530523547,2025-03-07 12h57.38.719394 +0700,
2,64,1,word/worden0641.png,image/True/img64.png,101,101,0,z,0.5079038000003493,None,0,101,101,101,363.0436338999989,,,,,,,364.5367989999995,364.038639299999,364.0421712999996,364.0421712999996,364.5317202999995,365.6440741999995,365.6440741999995,z,0.5079038000003493,None,364.5367989999995,364.5367989999995,365.6440741999995,,,,,,,,NU2_en,001,2025-03-07_12h57.17.126,MainFlow,2024.2.4,149.3734530523547,2025-03-07 12h57.38.719394 +0700,
2,78,0,word/worden0781.png,image/False/imgf78.png,102,102,0,x,0.6550580999992235,None,0,102,102,102,366.1610777999995,,,,,,,367.66084930000034,367.1659013999997,367.1694482999992,367.1694482999992,367.65469309999935,368.74030069999935,368.74030069999935,x,0.6550580999992235,None,367.66084930000034,367.66084930000034,,,,,,,,,NU2_en,001,2025-03-07_12h57.17.126,MainFlow,2024.2.4,149.3734530523547,2025-03-07 12h57.38.719394 +0700,
2,20,0,word/worden0201.png,image/False/imgf20.png,103,103,0,x,0.9009904999984428,None,0,103,103,103,369.4038335000005,,,,,,,370.89648940000006,370.39799010000024,370.4010896999989,370.4010896999989,370.8914659999991,372.0508990999988,372.0508990999988,x,0.9009904999984428,None,370.89648940000006,370.89648940000006,372.0508990999988,,,,,,,,NU2_en,001,2025-03-07_12h57.17.126,MainFlow,2024.2.4,149.3734530523547,2025-03-07 12h57.38.719394 +0700,
2,89,1,word/worden0891.png,image/True/img89.png,104,104,0,z,0.6721304000002419,None,0,104,104,104,372.95852319999904,,,,,,,374.4444274999987,373.94861499999934,373.95159909999893,373.95159909999893,374.4392197999987,375.5339855000002,375.5339855000002,z,0.6721304000002419,None,374.4444274999987,374.4444274999987,375.5339855000002,,,,,,,,NU2_en,001,2025-03-07_12h57.17.126,MainFlow,2024.2.4,149.3734530523547,2025-03-07 12h57.38.719394 +0700,
2,59,0,word/worden0591.png,image/False/imgf59.png,105,105,0,x,4.159128299999793,None,0,105,105,105,376.2148619999989,,,,,,,377.7074302000001,377.2134021999991,377.21684339999956,377.21684339999956,377.7014717999991,378.78191080000033,378.78191080000033,x,4.159128299999793,None,377.7074302000001,377.7074302000001,378.78191080000033,,,,,,,,NU2_en,001,2025-03-07_12h57.17.126,MainFlow,2024.2.4,149.3734530523547,2025-03-07 12h57.38.719394 +0700,
2,24,0,word/worden0241.png,image/False/imgf24.png,106,106,0,x,0.5975149000005331,None,0,106,106,106,382.949525,,,,,,,384.44930869999916,383.9502909999992,383.95358169999963,383.95358169999963,384.44339000000036,385.5519771999989,385.5519771999989,x,0.5975149000005331,None,384.44930869999916,384.44930869999916,,,,,,,,,NU2_en,001,2025-03-07_12h57.17.126,MainFlow,2024.2.4,149.3734530523547,2025-03-07 12h57.38.719394 +0700,
2,28,0,word/worden0281.png,image/False/imgf28.png,107,107,0,x,0.8370159999994939,None,0,107,107,107,386.1571863999998,,,,,,,387.6569555999995,387.15808599999946,387.1613419000005,387.1613419000005,387.65114709999943,388.7552780999995,388.7552780999995,x,0.8370159999994939,None,387.6569555999995,387.6569555999995,,,,,,,,,NU2_en,001,2025-03-07_12h57.17.126,MainFlow,2024.2.4,149.3734530523547,2025-03-07 12h57.38.719394 +0700,
2,15,0,word/worden0151.png,image/False/imgf15.png,108,108,0,x,1.3649511999992683,None,0,108,108,108,389.6009944999987,,,,,,,391.0939588000001,390.60084629999983,390.6041373999997,390.6041373999997,391.08848079999916,392.1997078000004,392.1997078000004,x,1.3649511999992683,None,391.0939588000001,391.0939588000001,392.1997078000004,,,,,,,,NU2_en,001,2025-03-07_12h57.17.126,MainFlow,2024.2.4,149.3734530523547,2025-03-07 12h57.38.719394 +0700,
2,30,1,word/worden0301.png,image/True/img30.png,109,109,0,z,0.5293224999986705,None,0,109,109,109,393.5724728999994,,,,,,,395.06553429999985,394.5701210999996,394.5734771999996,394.5734771999996,395.0593551000002,396.1719025000002,396.1719025000002,z,0.5293224999986705,None,395.06553429999985,395.06553429999985,396.1719025000002,,,,,,,,NU2_en,001,2025-03-07_12h57.17.126,MainFlow,2024.2.4,149.3734530523547,2025-03-07 12h57.38.719394 +0700,
2,64,1,word/worden0641.png,image/True/img64.png,110,110,0,z,1.1729977000013605,None,0,110,110,110,396.7108284999995,,,,,,,398.20359629999984,397.7090625000001,397.71247399999993,397.71247399999993,398.19869110000036,399.3013353999995,399.3013353999995,z,1.1729977000013605,None,398.20359629999984,398.20359629999984,399.3013353999995,,,,,,,,NU2_en,001,2025-03-07_12h57.17.126,MainFlow,2024.2.4,149.3734530523547,2025-03-07 12h57.38.719394 +0700,
2,52,0,word/worden0521.png,image/False/imgf52.png,111,111,0,x,0.6542274999992514,None,0,111,111,111,400.4812058999996,,,,,,,401.96668820000014,401.47162919999937,401.47460370000044,401.47460370000044,401.96147949999977,403.06826679999904,403.06826679999904,x,0.6542274999992514,None,401.96668820000014,401.96668820000014,403.06826679999904,,,,,,,,NU2_en,001,2025-03-07_12h57.17.126,MainFlow,2024.2.4,149.3734530523547,2025-03-07 12h57.38.719394 +0700,
2,33,1,word/worden0331.png,image/True/img33.png,112,112,0,z,0.5214395999992121,None,0,112,112,112,403.7303288000003,,,,,,,405.2300230000001,404.73216089999914,404.7356867999988,404.7356867999988,405.22489959999984,406.3436303999988,406.3436303999988,z,0.5214395999992121,None,405.2300230000001,405.2300230000001,,,,,,,,,NU2_en,001,2025-03-07_12h57.17.126,MainFlow,2024.2.4,149.3734530523547,2025-03-07 12h57.38.719394 +0700,
2,23,1,word/worden0231.png,image/True/img23.png,113,113,0,z,2.367150000000038,None,0,113,113,113,406.8753951999988,,,,,,,408.36138519999986,407.86904089999916,407.8723879999998,407.8723879999998,408.3556577999989,409.4706905999992,409.4706905999992,z,2.367150000000038,None,408.36138519999986,408.36138519999986,409.4706905999992,,,,,,,,NU2_en,001,2025-03-07_12h57.17.126,MainFlow,2024.2.4,149.3734530523547,2025-03-07 12h57.38.719394 +0700,
2,11,1,word/worden0111.png,image/True/img11.png,114,114,0,z,1.79708810000011,None,0,114,114,114,411.8468692999995,,,,,,,413.33256919999985,412.84024839999984,412.8435955999994,412.8435955999994,413.32686300000023,414.4699123999999,414.4699123999999,z,1.79708810000011,None,413.33256919999985,413.33256919999985,414.4699123999999,,,,,,,,NU2_en,001,2025-03-07_12h57.17.126,MainFlow,2024.2.4,149.3734530523547,2025-03-07 12h57.38.719394 +0700,
2,22,1,word/worden0221.png,image/True/img22.png,115,115,0,z,0.7362663000003522,None,0,115,115,115,416.2765099999997,,,,,,,417.77602169999955,417.2770576999992,417.28041069999927,417.28041069999927,417.7700526999997,418.90781549999883,418.90781549999883,z,0.7362663000003522,None,417.77602169999955,417.77602169999955,,,,,,,,,NU2_en,001,2025-03-07_12h57.17.126,MainFlow,2024.2.4,149.3734530523547,2025-03-07 12h57.38.719394 +0700,
2,37,0,word/worden0371.png,image/False/imgf37.png,116,116,0,x,0.8456920999997237,None,0,116,116,116,419.6507667999995,,,,,,,421.14378190000025,420.6457281999992,420.6493301999999,420.6493301999999,421.1385871000002,422.28998039999897,422.28998039999897,x,0.8456920999997237,None,421.14378190000025,421.14378190000025,422.28998039999897,,,,,,,,NU2_en,001,2025-03-07_12h57.17.126,MainFlow,2024.2.4,149.3734530523547,2025-03-07 12h57.38.719394 +0700,
2,79,0,word/worden0791.png,image/False/imgf79.png,117,117,0,x,0.47627279999869643,None,0,117,117,117,423.1431940000002,,,,,,,424.6363399999991,424.1392952999995,424.14271519999966,424.14271519999966,424.6313381,425.75900360000014,425.75900360000014,x,0.47627279999869643,None,424.6363399999991,424.6363399999991,425.75900360000014,,,,,,,,NU2_en,001,2025-03-07_12h57.17.126,MainFlow,2024.2.4,149.3734530523547,2025-03-07 12h57.38.719394 +0700,
2,56,1,word/worden0561.png,image/True/img56.png,118,118,0,z,0.5711714999997639,None,0,118,118,118,426.24666830000024,,,,,,,427.7396695999996,427.24437860000035,427.24797899999976,427.24797899999976,427.73457380000036,428.84991079999963,428.84991079999963,z,0.5711714999997639,None,427.7396695999996,427.7396695999996,428.84991079999963,,,,,,,,NU2_en,001,2025-03-07_12h57.17.126,MainFlow,2024.2.4,149.3734530523547,2025-03-07 12h57.38.719394 +0700,
2,68,1,word/worden0681.png,image/True/img68.png,119,119,0,z,0.9674675999995088,None,0,119,119,119,429.428125299999,,,,,,,430.9125387999993,430.4194050999995,430.42259449999983,430.42259449999983,430.9071451,431.9810149999994,431.9810149999994,z,0.9674675999995088,None,430.9125387999993,430.9125387999993,431.9810149999994,,,,,,,,NU2_en,001,2025-03-07_12h57.17.126,MainFlow,2024.2.4,149.3734530523547,2025-03-07 12h57.38.719394 +0700,
2,27,0,word/worden0271.png,image/False/imgf27.png,120,120,0,x,0.6639876999997796,None,0,120,120,120,432.96083439999893,,,,,,,434.4534468999991,433.95727049999914,433.96050429999923,433.96050429999923,434.4479737999991,435.5566953999987,435.5566953999987,x,0.6639876999997796,None,434.4534468999991,434.4534468999991,435.5566953999987,,,,,,,,NU2_en,001,2025-03-07_12h57.17.126,MainFlow,2024.2.4,149.3734530523547,2025-03-07 12h57.38.719394 +0700,
2,3,1,word/worden0031.png,image/True/img03.png,121,121,0,z,0.5132226000005176,None,0,121,121,121,436.23094130000027,,,,,,,437.7237375000004,437.22763680000025,437.23093700000027,437.23093700000027,437.71810860000005,438.83202419999907,438.83202419999907,z,0.5132226000005176,None,437.7237375000004,437.7237375000004,438.83202419999907,,,,,,,,NU2_en,001,2025-03-07_12h57.17.126,MainFlow,2024.2.4,149.3734530523547,2025-03-07 12h57.38.719394 +0700,
2,38,0,word/worden0381.png,image/False/imgf38.png,122,122,0,x,0.6923280999999406,None,0,122,122,122,439.3553613999993,,,,,,,440.84825959999944,440.34998090000045,440.35380350000014,440.35380350000014,440.84228059999987,441.9870203999999,441.9870203999999,x,0.6923280999999406,None,440.84825959999944,440.84825959999944,441.9870203999999,,,,,,,,NU2_en,001,2025-03-07_12h57.17.126,MainFlow,2024.2.4,149.3734530523547,2025-03-07 12h57.38.719394 +0700,
2,59,1,word/worden0591.png,image/True/img59.png,123,123,0,z,0.7287047999998322,None,0,123,123,123,442.68797389999963,,,,,,,444.1809661999996,443.68213579999974,443.6853414999987,443.6853414999987,444.1760166999993,445.26877590000004,445.26877590000004,z,0.7287047999998322,None,444.1809661999996,444.1809661999996,445.26877590000004,,,,,,,,NU2_en,001,2025-03-07_12h57.17.126,MainFlow,2024.2.4,149.3734530523547,2025-03-07 12h57.38.719394 +0700,
2,18,1,word/worden0181.png,image/True/img18.png,124,124,0,z,0.7673091999986354,None,0,124,124,124,446.0068431999989,,,,,,,447.5065787000003,447.0103973999994,447.01396959999875,447.01396959999875,447.5009252,448.6042065999991,448.6042065999991,z,0.7673091999986354,None,447.5065787000003,447.5065787000003,,,,,,,,,NU2_en,001,2025-03-07_12h57.17.126,MainFlow,2024.2.4,149.3734530523547,2025-03-07 12h57.38.719394 +0700,
2,60,1,word/worden0601.png,image/True/img60.png,125,125,0,z,0.529697900001338,None,0,125,125,125,449.3821490999999,,,,,,,450.88075149999895,450.3877346999998,450.3909848000003,450.3909848000003,450.87472460000026,451.9873093999995,451.9873093999995,z,0.529697900001338,None,450.88075149999895,450.88075149999895,451.9873093999995,,,,,,,,NU2_en,001,2025-03-07_12h57.17.126,MainFlow,2024.2.4,149.3734530523547,2025-03-07 12h57.38.719394 +0700,
2,9,1,word/worden0091.png,image/True/img09.png,126,126,0,z,0.8126615999990463,None,0,126,126,126,452.52648079999926,,,,,,,454.026061999999,453.5293265,453.53258769999957,453.53258769999957,454.0201278000004,455.0883787999992,455.0883787999992,z,0.8126615999990463,None,454.026061999999,454.026061999999,,,,,,,,,NU2_en,001,2025-03-07_12h57.17.126,MainFlow,2024.2.4,149.3734530523547,2025-03-07 12h57.38.719394 +0700,
2,9,0,word/worden0091.png,image/False/imgf09.png,127,127,0,x,0.37832110000090324,None,0,127,127,127,455.90776709999955,,,,,,,457.40036820000023,456.90230469999915,456.9056514999993,456.9056514999993,457.39448379999885,458.4887084999991,458.4887084999991,x,0.37832110000090324,None,457.40036820000023,457.40036820000023,458.4887084999991,,,,,,,,NU2_en,001,2025-03-07_12h57.17.126,MainFlow,2024.2.4,149.3734530523547,2025-03-07 12h57.38.719394 +0700,
2,94,0,word/worden0941.png,image/False/imgf94.png,128,128,0,x,0.6649702000013349,None,0,128,128,128,458.8792364000001,,,,,,,460.3722207999999,459.87705319999986,459.8803009000003,459.8803009000003,460.36640689999876,461.51723870000023,461.51723870000023,x,0.6649702000013349,None,460.3722207999999,460.3722207999999,461.51723870000023,,,,,,,,NU2_en,001,2025-03-07_12h57.17.126,MainFlow,2024.2.4,149.3734530523547,2025-03-07 12h57.38.719394 +0700,
2,66,1,word/worden0661.png,image/True/img66.png,129,129,0,z,0.804399900000135,None,0,129,129,129,462.19120459999976,,,,,,,463.67702350000036,463.1840376,463.1871135000001,463.1871135000001,463.67122559999916,464.80361149999953,464.80361149999953,z,0.804399900000135,None,463.67702350000036,463.67702350000036,464.80361149999953,,,,,,,,NU2_en,001,2025-03-07_12h57.17.126,MainFlow,2024.2.4,149.3734530523547,2025-03-07 12h57.38.719394 +0700,
2,1,0,word/worden0011.png,image/False/imgf01.png,130,130,0,x,0.6017363999999361,None,0,130,130,130,465.61408929999925,,,,,,,467.1068338999994,466.6131869000001,466.61648649999916,466.61648649999916,467.100810599999,468.19680719999997,468.19680719999997,x,0.6017363999999361,None,467.1068338999994,467.1068338999994,468.19680719999997,,,,,,,,NU2_en,001,2025-03-07_12h57.17.126,MainFlow,2024.2.4,149.3734530523547,2025-03-07 12h57.38.719394 +0700,
2,89,0,word/worden0891.png,image/False/imgf89.png,131,131,0,x,1.0183093000014196,None,0,131,131,131,468.8081975999994,,,,,,,470.3009067999992,469.80769209999926,469.8111967999994,469.8111967999994,470.29582370000026,471.4114467999989,471.4114467999989,x,1.0183093000014196,None,470.3009067999992,470.3009067999992,471.4114467999989,,,,,,,,NU2_en,001,2025-03-07_12h57.17.126,MainFlow,2024.2.4,149.3734530523547,2025-03-07 12h57.38.719394 +0700,
2,48,1,word/worden0481.png,image/True/img48.png,132,132,0,z,0.6392754999997123,None,0,132,132,132,472.4394627999991,,,,,,,473.93197340000006,473.4356814999992,473.43918610000037,473.43918610000037,473.9266233999988,475.05174760000045,475.05174760000045,z,0.6392754999997123,None,473.93197340000006,473.93197340000006,475.05174760000045,,,,,,,,NU2_en,001,2025-03-07_12h57.17.126,MainFlow,2024.2.4,149.3734530523547,2025-03-07 12h57.38.719394 +0700,
2,63,0,word/worden0631.png,image/False/imgf63.png,133,133,0,x,1.4328557000008004,None,0,133,133,133,475.7024774999991,,,,,,,477.19517129999986,476.6997451999996,476.7028685999994,476.7028685999994,477.1891770000002,478.3144080999991,478.3144080999991,x,1.4328557000008004,None,477.19517129999986,477.19517129999986,478.3144080999991,,,,,,,,NU2_en,001,2025-03-07_12h57.17.126,MainFlow,2024.2.4,149.3734530523547,2025-03-07 12h57.38.719394 +0700,
2,23,1,word/worden0231.png,image/True/img23.png,134,134,0,z,0.9074068999998417,None,0,134,134,134,479.7579490999997,,,,,,,481.249988399999,480.75238569999965,480.75605539999924,480.75605539999924,481.24414760000036,482.3733866999992,482.3733866999992,z,0.9074068999998417,None,481.249988399999,481.249988399999,482.3733866999992,,,,,,,,NU2_en,001,2025-03-07_12h57.17.126,MainFlow,2024.2.4,149.3734530523547,2025-03-07 12h57.38.719394 +0700,
2,40,0,word/worden0401.png,image/False/imgf40.png,135,135,0,x,1.3848700000016834,None,0,135,135,135,483.2912312999997,,,,,,,484.77739010000005,484.27908639999987,484.2819208000001,484.2819208000001,484.77219539999896,485.8881609,485.8881609,x,1.3848700000016834,None,484.77739010000005,484.77739010000005,485.8881609,,,,,,,,NU2_en,001,2025-03-07_12h57.17.126,MainFlow,2024.2.4,149.3734530523547,2025-03-07 12h57.38.719394 +0700,
2,52,1,word/worden0521.png,image/True/img52.png,136,136,0,z,0.677775300000576,None,0,136,136,136,487.2835374999995,,,,,,,488.7764470000002,488.28301549999924,488.28640090000044,488.28640090000044,488.7708110000003,489.896866699999,489.896866699999,z,0.677775300000576,None,488.7764470000002,488.7764470000002,489.896866699999,,,,,,,,NU2_en,001,2025-03-07_12h57.17.126,MainFlow,2024.2.4,149.3734530523547,2025-03-07 12h57.38.719394 +0700,
2,30,1,word/worden0301.png,image/True/img30.png,137,137,0,z,1.2030487000010908,None,0,137,137,137,490.58439240000007,,,,,,,492.07461279999916,491.5799587999991,491.5833705999994,491.5833705999994,492.06847240000025,493.18698849999964,493.18698849999964,z,1.2030487000010908,None,492.07461279999916,492.07461279999916,493.18698849999964,,,,,,,,NU2_en,001,2025-03-07_12h57.17.126,MainFlow,2024.2.4,149.3734530523547,2025-03-07 12h57.38.719394 +0700,
2,15,1,word/worden0151.png,image/True/img15.png,138,138,0,z,1.19794820000061,None,0,138,138,138,494.4001678000004,,,,,,,495.88614269999925,495.3936383,495.3968387999994,495.3968387999994,495.8801248,497.0168735999996,497.0168735999996,z,1.19794820000061,None,495.88614269999925,495.88614269999925,497.0168735999996,,,,,,,,NU2_en,001,2025-03-07_12h57.17.126,MainFlow,2024.2.4,149.3734530523547,2025-03-07 12h57.38.719394 +0700,
2,46,1,word/worden0461.png,image/True/img46.png,139,139,0,z,3.1078731000015978,None,0,139,139,139,498.22587079999903,,,,,,,499.7189553999997,499.22329629999876,499.22683609999876,499.22683609999876,499.7129410999987,500.8556090999991,500.8556090999991,z,3.1078731000015978,None,499.7189553999997,499.7189553999997,500.8556090999991,,,,,,,,NU2_en,001,2025-03-07_12h57.17.126,MainFlow,2024.2.4,149.3734530523547,2025-03-07 12h57.38.719394 +0700,
2,14,1,word/worden0141.png,image/True/img14.png,140,140,0,z,1.0195789000008517,None,0,140,140,140,503.9747817999996,,,,,,,505.4743953999987,504.97707439999976,504.9806274999992,504.9806274999992,505.46838469999966,506.5781815999999,506.5781815999999,z,1.0195789000008517,None,505.4743953999987,505.4743953999987,,,,,,,,,NU2_en,001,2025-03-07_12h57.17.126,MainFlow,2024.2.4,149.3734530523547,2025-03-07 12h57.38.719394 +0700,
2,66,0,word/worden0661.png,image/False/imgf66.png,141,141,0,x,2.988353400000051,None,0,141,141,141,507.6060534999997,,,,,,,509.0989712999999,508.6008499999989,508.6048415000005,508.6048415000005,509.0934266000004,510.20938000000024,510.20938000000024,x,2.988353400000051,None,509.0989712999999,509.0989712999999,510.20938000000024,,,,,,,,NU2_en,001,2025-03-07_12h57.17.126,MainFlow,2024.2.4,149.3734530523547,2025-03-07 12h57.38.719394 +0700,
2,46,0,word/worden0461.png,image/False/imgf46.png,142,142,0,x,2.4374203000006673,None,0,142,142,142,513.2093468999992,,,,,,,514.6948962999995,514.1966042000004,514.1993585,514.1993585,514.6891677999993,515.8297449000002,515.8297449000002,x,2.4374203000006673,None,514.6948962999995,514.6948962999995,515.8297449000002,,,,,,,,NU2_en,001,2025-03-07_12h57.17.126,MainFlow,2024.2.4,149.3734530523547,2025-03-07 12h57.38.719394 +0700,
2,18,1,word/worden0181.png,image/True/img18.png,143,143,0,z,0.7173431999999593,None,0,143,143,143,518.2775371999996,,,,,,,519.7703223999997,519.2767069000001,519.2800666999992,519.2800666999992,519.7644225000004,520.8630035999995,520.8630035999995,z,0.7173431999999593,None,519.7703223999997,519.7703223999997,520.8630035999995,,,,,,,,NU2_en,001,2025-03-07_12h57.17.126,MainFlow,2024.2.4,149.3734530523547,2025-03-07 12h57.38.719394 +0700,
2,51,0,word/worden0511.png,image/False/imgf51.png,144,144,0,x,0.9459363999994821,None,0,144,144,144,521.5894064000004,,,,,,,523.0823139000004,522.5895612000004,522.5931977,522.5931977,523.0775816999994,524.1793730999998,524.1793730999998,x,0.9459363999994821,None,523.0823139000004,523.0823139000004,524.1793730999998,,,,,,,,NU2_en,001,2025-03-07_12h57.17.126,MainFlow,2024.2.4,149.3734530523547,2025-03-07 12h57.38.719394 +0700,
2,76,1,word/worden0761.png,image/True/img76.png,145,145,0,z,0.7172709999995277,None,0,145,145,145,525.1397313999987,,,,,,,526.6370632999988,526.1412598999996,526.1447260000004,526.1447260000004,526.6311433999999,527.7426341999999,527.7426341999999,z,0.7172709999995277,None,526.6370632999988,526.6370632999988,527.7426341999999,,,,,,,,NU2_en,001,2025-03-07_12h57.17.126,MainFlow,2024.2.4,149.3734530523547,2025-03-07 12h57.38.719394 +0700,
2,57,1,word/worden0571.png,image/True/img57.png,146,146,0,z,0.7433553999999276,None,0,146,146,146,528.4701375999994,,,,,,,529.9558796000001,529.4615677999991,529.464573199999,529.464573199999,529.9498979999989,531.0695914999997,531.0695914999997,z,0.7433553999999276,None,529.9558796000001,529.9558796000001,531.0695914999997,,,,,,,,NU2_en,001,2025-03-07_12h57.17.126,MainFlow,2024.2.4,149.3734530523547,2025-03-07 12h57.38.719394 +0700,
2,48,0,word/worden0481.png,image/False/imgf48.png,147,147,0,x,0.5181933000003482,None,0,147,147,147,531.8237055999998,,,,,,,533.309369999999,532.815407099999,532.8187803000001,532.8187803000001,533.3036159999992,534.4344693000003,534.4344693000003,x,0.5181933000003482,None,533.309369999999,533.309369999999,534.4344693000003,,,,,,,,NU2_en,001,2025-03-07_12h57.17.126,MainFlow,2024.2.4,149.3734530523547,2025-03-07 12h57.38.719394 +0700,
2,37,0,word/worden0371.png,image/False/imgf37.png,148,148,0,x,0.9394195999993826,None,0,148,148,148,534.961868299999,,,,,,,536.4547353999988,535.9557440999997,535.9593769999992,535.9593769999992,536.4493568999987,537.5965211000002,537.5965211000002,x,0.9394195999993826,None,536.4547353999988,536.4547353999988,537.5965211000002,,,,,,,,NU2_en,001,2025-03-07_12h57.17.126,MainFlow,2024.2.4,149.3734530523547,2025-03-07 12h57.38.719394 +0700,
2,60,0,word/worden0601.png,image/False/imgf60.png,149,149,0,x,0.8377725999998802,None,0,149,149,149,538.5443608999994,,,,,,,540.0442014,539.5460650999994,539.5495417999991,539.5495417999991,540.038234399999,541.1529470999994,541.1529470999994,x,0.8377725999998802,None,540.0442014,540.0442014,,,,,,,,,NU2_en,001,2025-03-07_12h57.17.126,MainFlow,2024.2.4,149.3734530523547,2025-03-07 12h57.38.719394 +0700,
2,24,1,word/worden0241.png,image/True/img24.png,150,150,0,z,0.8065194999999221,None,0,150,150,150,542.0020874999991,,,,,,,543.4882070999993,542.9936880999994,542.9968461999997,542.9968461999997,543.4831691999989,544.5692268999992,544.5692268999992,z,0.8065194999999221,None,543.4882070999993,543.4882070999993,544.5692268999992,,,,,,,,NU2_en,001,2025-03-07_12h57.17.126,MainFlow,2024.2.4,149.3734530523547,2025-03-07 12h57.38.719394 +0700,
2,40,1,word/worden0401.png,image/True/img40.png,151,151,0,z,1.392978800000492,None,0,151,151,151,545.3835736000001,,,,,,,546.8764276999991,546.3779341999998,546.3813723000003,546.3813723000003,546.8712040999999,548.0228855000005,548.0228855000005,z,1.392978800000492,None,546.8764276999991,546.8764276999991,548.0228855000005,,,,,,,,NU2_en,001,2025-03-07_12h57.17.126,MainFlow,2024.2.4,149.3734530523547,2025-03-07 12h57.38.719394 +0700,
2,54,1,word/worden0541.png,image/True/img54.png,152,152,0,z,0.7912740000010672,None,0,152,152,152,549.4245109000003,,,,,,,550.9177908999991,550.4200385999993,550.4233404999995,550.4233404999995,550.9109447999999,552.0496605999997,552.0496605999997,z,0.7912740000010672,None,550.9177908999991,550.9177908999991,552.0496605999997,,,,,,,,NU2_en,001,2025-03-07_12h57.17.126,MainFlow,2024.2.4,149.3734530523547,2025-03-07 12h57.38.719394 +0700,
2,44,0,word/worden0441.png,image/False/imgf44.png,153,153,0,x,0.7968245999982173,None,0,153,153,153,552.8487777999999,,,,,,,554.3333143999989,553.8382772999994,553.8410759999988,553.8410759999988,554.328241199999,555.4636864000004,555.4636864000004,x,0.7968245999982173,None,554.3333143999989,554.3333143999989,555.4636864000004,,,,,,,,NU2_en,001,2025-03-07_12h57.17.126,MainFlow,2024.2.4,149.3734530523547,2025-03-07 12h57.38.719394 +0700,
2,79,1,word/worden0791.png,image/True/img79.png,154,154,0,z,1.0022570000000997,None,0,154,154,154,556.270249199999,,,,,,,557.7563008999987,557.2634878999997,557.2666209999988,557.2666209999988,557.7512379999989,558.8656793999999,558.8656793999999,z,1.0022570000000997,None,557.7563008999987,557.7563008999987,558.8656793999999,,,,,,,,NU2_en,001,2025-03-07_12h57.17.126,MainFlow,2024.2.4,149.3734530523547,2025-03-07 12h57.38.719394 +0700,
2,95,1,word/worden0951.png,image/True/img95.png,155,155,0,z,1.1475876999993488,None,0,155,155,155,559.8806253000002,,,,,,,561.3733554999999,560.8764935999989,560.8798857000002,560.8798857000002,561.3672439000002,562.5193165000001,562.5193165000001,z,1.1475876999993488,None,561.3733554999999,561.3733554999999,562.5193165000001,,,,,,,,NU2_en,001,2025-03-07_12h57.17.126,MainFlow,2024.2.4,149.3734530523547,2025-03-07 12h57.38.719394 +0700,
2,37,1,word/worden0371.png,image/True/img37.png,156,156,0,x,0.7540685000003577,None,0,156,156,156,563.6787078999987,,,,,,,565.1713751999996,564.6779740000002,564.6814049000004,564.6814049000004,565.1662565999995,566.3079823999997,566.3079823999997,x,0.7540685000003577,None,565.1713751999996,565.1713751999996,566.3079823999997,,,,,,,,NU2_en,001,2025-03-07_12h57.17.126,MainFlow,2024.2.4,149.3734530523547,2025-03-07 12h57.38.719394 +0700,
2,70,1,word/worden0701.png,image/True/img70.png,157,157,0,z,1.2167355999990832,None,0,157,157,157,567.0738105,,,,,,,568.5665694999989,568.0694767999994,568.0729116000002,568.0729116000002,568.5607702999987,569.6809080000003,569.6809080000003,z,1.2167355999990832,None,568.5665694999989,568.5665694999989,569.6809080000003,,,,,,,,NU2_en,001,2025-03-07_12h57.17.126,MainFlow,2024.2.4,149.3734530523547,2025-03-07 12h57.38.719394 +0700,
2,40,1,word/worden0401.png,image/True/img40.png,158,158,0,z,0.8081756999999925,None,0,158,158,158,570.9075580999997,,,,,,,572.4061413999989,571.9076759,571.9110688000001,571.9110688000001,572.4004017999996,573.5510123999993,573.5510123999993,z,0.8081756999999925,None,572.4061413999989,572.4061413999989,573.5510123999993,,,,,,,,NU2_en,001,2025-03-07_12h57.17.126,MainFlow,2024.2.4,149.3734530523547,2025-03-07 12h57.38.719394 +0700,
2,30,0,word/worden0301.png,image/False/imgf30.png,159,159,0,x,0.6391776000000391,None,0,159,159,159,574.370931899999,,,,,,,575.8637951000001,575.3689728999998,575.3722096999991,575.3722096999991,575.8587637,576.9671782999994,576.9671782999994,x,0.6391776000000391,None,575.8637951000001,575.8637951000001,576.9671782999994,,,,,,,,NU2_en,001,2025-03-07_12h57.17.126,MainFlow,2024.2.4,149.3734530523547,2025-03-07 12h57.38.719394 +0700,
2,88,1,word/worden0881.png,image/True/img88.png,160,160,0,z,0.46169059999920137,None,0,160,160,160,577.6132736999989,,,,,,,579.1130350000003,578.6155652999987,578.6191003999993,578.6191003999993,579.1070965999988,580.2207223999994,580.2207223999994,z,0.46169059999920137,None,579.1130350000003,579.1130350000003,,,,,,,,,NU2_en,001,2025-03-07_12h57.17.126,MainFlow,2024.2.4,149.3734530523547,2025-03-07 12h57.38.719394 +0700,
2,15,1,word/worden0151.png,image/True/img15.png,161,161,0,z,0.7588039999991452,None,0,161,161,161,580.6892611000003,,,,,,,582.1818898999991,581.6879047999992,581.6911760000003,581.6911760000003,582.1760147999994,583.3094588999993,583.3094588999993,z,0.7588039999991452,None,582.1818898999991,582.1818898999991,583.3094588999993,,,,,,,,NU2_en,001,2025-03-07_12h57.17.126,MainFlow,2024.2.4,149.3734530523547,2025-03-07 12h57.38.719394 +0700,
2,54,1,word/worden0541.png,image/True/img54.png,162,162,0,z,0.6726940999997169,None,0,162,162,162,584.0774263999992,,,,,,,585.5702722999995,585.0773320999997,585.0808120999991,585.0808120999991,585.5644687000004,586.6947486999998,586.6947486999998,z,0.6726940999997169,None,585.5702722999995,585.5702722999995,586.6947486999998,,,,,,,,NU2_en,001,2025-03-07_12h57.17.126,MainFlow,2024.2.4,149.3734530523547,2025-03-07 12h57.38.719394 +0700,
2,11,0,word/worden0111.png,image/False/imgf11.png,163,163,0,x,2.8377819000015734,None,0,163,163,163,587.3753103999989,,,,,,,588.8612826999997,588.3630505000001,588.3658381999994,588.3658381999994,588.8552266999995,589.9980188999998,589.9980188999998,x,2.8377819000015734,None,588.8612826999997,588.8612826999997,589.9980188999998,,,,,,,,NU2_en,001,2025-03-07_12h57.17.126,MainFlow,2024.2.4,149.3734530523547,2025-03-07 12h57.38.719394 +0700,
2,16,1,word/worden0161.png,image/True/img16.png,164,164,0,z,0.683953499999916,None,0,164,164,164,592.8466411999998,,,,,,,594.3393355999997,593.8411185000004,593.8443047000001,593.8443047000001,594.3341659999987,595.4719256999997,595.4719256999997,z,0.683953499999916,None,594.3393355999997,594.3393355999997,595.4719256999997,,,,,,,,NU2_en,001,2025-03-07_12h57.17.126,MainFlow,2024.2.4,149.3734530523547,2025-03-07 12h57.38.719394 +0700,
2,1,1,word/worden0011.png,image/True/img01.png,165,165,0,z,1.2811574999996083,None,0,165,165,165,596.1653219999989,,,,,,,597.6580076999999,597.161634,597.1649625999999,597.1649625999999,597.6519910999996,598.7784044,598.7784044,z,1.2811574999996083,None,597.6580076999999,597.6580076999999,598.7784044,,,,,,,,NU2_en,001,2025-03-07_12h57.17.126,MainFlow,2024.2.4,149.3734530523547,2025-03-07 12h57.38.719394 +0700,
2,22,0,word/worden0221.png,image/False/imgf22.png,166,166,0,x,3.2691338999993604,None,0,166,166,166,600.0674308999987,,,,,,,601.5601981,601.0672868999991,601.0708453999996,601.0708453999996,601.5551374999995,602.6916068999999,602.6916068999999,x,3.2691338999993604,None,601.5601981,601.5601981,602.6916068999999,,,,,,,,NU2_en,001,2025-03-07_12h57.17.126,MainFlow,2024.2.4,149.3734530523547,2025-03-07 12h57.38.719394 +0700,
2,63,1,word/worden0631.png,image/True/img63.png,167,167,0,z,0.8330932999997458,None,0,167,167,167,605.9689925000002,,,,,,,607.4548459999987,606.960274699999,606.9634280999999,606.9634280999999,607.449311299999,608.556432899999,608.556432899999,z,0.8330932999997458,None,607.4548459999987,607.4548459999987,608.556432899999,,,,,,,,NU2_en,001,2025-03-07_12h57.17.126,MainFlow,2024.2.4,149.3734530523547,2025-03-07 12h57.38.719394 +0700,
2,87,1,word/worden0871.png,image/True/img87.png,168,168,0,z,0.47948580000047514,None,0,168,168,168,609.3987579000004,,,,,,,610.884780299999,610.3906454999997,610.3940645000002,610.3940645000002,610.8788433999998,612.011162499999,612.011162499999,z,0.47948580000047514,None,610.884780299999,610.884780299999,612.011162499999,,,,,,,,NU2_en,001,2025-03-07_12h57.17.126,MainFlow,2024.2.4,149.3734530523547,2025-03-07 12h57.38.719394 +0700,
2,57,0,word/worden0571.png,image/False/imgf57.png,169,169,0,x,0.9669400999991922,None,0,169,169,169,612.5025618999989,,,,,,,613.988271799999,613.4903256999987,613.4932595999999,613.4932595999999,613.982375399999,615.1097838999995,615.1097838999995,x,0.9669400999991922,None,613.988271799999,613.988271799999,615.1097838999995,,,,,,,,NU2_en,001,2025-03-07_12h57.17.126,MainFlow,2024.2.4,149.3734530523547,2025-03-07 12h57.38.719394 +0700,
2,94,0,word/worden0941.png,image/False/imgf94.png,170,170,0,x,0.6342853000005562,None,0,170,170,170,616.0851048999994,,,,,,,617.5777306999989,617.078632499999,617.0820232999995,617.0820232999995,617.5716245000003,618.7096048000003,618.7096048000003,x,0.6342853000005562,None,617.5777306999989,617.5777306999989,618.7096048000003,,,,,,,,NU2_en,001,2025-03-07_12h57.17.126,MainFlow,2024.2.4,149.3734530523547,2025-03-07 12h57.38.719394 +0700,
2,93,0,word/worden0931.png,image/False/imgf93.png,171,171,0,x,1.2416073999993387,None,0,171,171,171,619.3554942999999,,,,,,,620.8480823999998,620.353172699999,620.3565746000004,620.3565746000004,620.8420867999994,621.9440820999989,621.9440820999989,x,1.2416073999993387,None,620.8480823999998,620.8480823999998,621.9440820999989,,,,,,,,NU2_en,001,2025-03-07_12h57.17.126,MainFlow,2024.2.4,149.3734530523547,2025-03-07 12h57.38.719394 +0700,
2,61,1,word/worden0611.png,image/True/img61.png,172,172,0,z,0.705982600000425,None,0,172,172,172,623.1953121999995,,,,,,,624.6809749999993,624.1883122999989,624.1915888999993,624.1915888999993,624.6759557000005,625.7968954999997,625.7968954999997,z,0.705982600000425,None,624.6809749999993,624.6809749999993,625.7968954999997,,,,,,,,NU2_en,001,2025-03-07_12h57.17.126,MainFlow,2024.2.4,149.3734530523547,2025-03-07 12h57.38.719394 +0700,
2,28,1,word/worden0281.png,image/True/img28.png,173,173,0,z,1.7542384999997012,None,0,173,173,173,626.5152727000004,,,,,,,628.0135737,627.5159850999989,627.5192698999999,627.5192698999999,628.0076527000001,629.1437675999987,629.1437675999987,z,1.7542384999997012,None,628.0135737,628.0135737,629.1437675999987,,,,,,,,NU2_en,001,2025-03-07_12h57.17.126,MainFlow,2024.2.4,149.3734530523547,2025-03-07 12h57.38.719394 +0700,
2,46,1,word/worden0461.png,image/True/img46.png,174,174,0,z,0.4667845000003581,None,0,174,174,174,630.9085727000001,,,,,,,632.3945012000004,631.9006408000005,631.9037994999999,631.9037994999999,632.3886311999995,633.5419643000005,633.5419643000005,z,0.4667845000003581,None,632.3945012000004,632.3945012000004,633.5419643000005,,,,,,,,NU2_en,001,2025-03-07_12h57.17.126,MainFlow,2024.2.4,149.3734530523547,2025-03-07 12h57.38.719394 +0700,
2,22,1,word/worden0221.png,image/True/img22.png,175,175,0,z,0.8350284000007377,None,0,175,175,175,634.0190619999994,,,,,,,635.5119075999992,635.0127726999999,635.0161731999997,635.0161731999997,635.5065717999987,636.6534152999993,636.6534152999993,z,0.8350284000007377,None,635.5119075999992,635.5119075999992,636.6534152999993,,,,,,,,NU2_en,001,2025-03-07_12h57.17.126,MainFlow,2024.2.4,149.3734530523547,2025-03-07 12h57.38.719394 +0700,
2,93,1,word/worden0931.png,image/True/img93.png,176,176,0,z,0.9446595000008529,None,0,176,176,176,637.4976158999998,,,,,,,638.9834501000005,638.4849436999993,638.4877005999988,638.4877005999988,638.9780504999999,640.0813237999992,640.0813237999992,z,0.9446595000008529,None,638.9834501000005,638.9834501000005,640.0813237999992,,,,,,,,NU2_en,001,2025-03-07_12h57.17.126,MainFlow,2024.2.4,149.3734530523547,2025-03-07 12h57.38.719394 +0700,
2,95,1,word/worden0951.png,image/True/img95.png,177,177,0,z,0.7906677999999374,None,0,177,177,177,641.0386605999993,,,,,,,642.5242851000003,642.0308544999989,642.0340462000004,642.0340462000004,642.5182224,643.6730716000002,643.6730716000002,z,0.7906677999999374,None,642.5242851000003,642.5242851000003,643.6730716000002,,,,,,,,NU2_en,001,2025-03-07_12h57.17.126,MainFlow,2024.2.4,149.3734530523547,2025-03-07 12h57.38.719394 +0700,
2,17,0,word/worden0171.png,image/False/imgf17.png,178,178,0,x,1.7105706999991526,None,0,178,178,178,644.4755463000001,,,,,,,645.9683506999991,645.4712775999997,645.4744549999996,645.4744549999996,645.9632454000002,647.0936000000002,647.0936000000002,x,1.7105706999991526,None,645.9683506999991,645.9683506999991,647.0936000000002,,,,,,,,NU2_en,001,2025-03-07_12h57.17.126,MainFlow,2024.2.4,149.3734530523547,2025-03-07 12h57.38.719394 +0700,
2,26,1,word/worden0261.png,image/True/img26.png,179,179,0,z,1.1564883999999438,None,0,179,179,179,648.8149372999997,,,,,,,650.3006668999988,649.8085057999997,649.8116281000002,649.8116281000002,650.2947305999987,651.4235026999995,651.4235026999995,z,1.1564883999999438,None,650.3006668999988,650.3006668999988,651.4235026999995,,,,,,,,NU2_en,001,2025-03-07_12h57.17.126,MainFlow,2024.2.4,149.3734530523547,2025-03-07 12h57.38.719394 +0700,
2,27,1,word/worden0271.png,image/True/img27.png,180,180,0,z,0.5454019999997399,None,0,180,180,180,652.5920287999998,,,,,,,654.0846666999987,653.5863891999998,653.5896292999987,653.5896292999987,654.0787325999991,655.1772626999991,655.1772626999991,z,0.5454019999997399,None,654.0846666999987,654.0846666999987,655.1772626999991,,,,,,,,NU2_en,001,2025-03-07_12h57.17.126,MainFlow,2024.2.4,149.3734530523547,2025-03-07 12h57.38.719394 +0700,
2,31,1,word/worden0311.png,image/True/img31.png,181,181,0,z,0.800737499999741,None,0,181,181,181,655.7301792999988,,,,,,,657.2232991000001,656.7250394999992,656.7286616999991,656.7286616999991,657.2180062999996,658.3188637999992,658.3188637999992,z,0.800737499999741,None,657.2232991000001,657.2232991000001,658.3188637999992,,,,,,,,NU2_en,001,2025-03-07_12h57.17.126,MainFlow,2024.2.4,149.3734530523547,2025-03-07 12h57.38.719394 +0700,
2,33,0,word/worden0331.png,image/False/imgf33.png,182,182,0,x,0.8864021999997931,None,0,182,182,182,659.1254173999987,,,,,,,660.6182095999993,660.1206239999992,660.1239839999998,660.1239839999998,660.6124590999989,661.7378380999999,661.7378380999999,x,0.8864021999997931,None,660.6182095999993,660.6182095999993,661.7378380999999,,,,,,,,NU2_en,001,2025-03-07_12h57.17.126,MainFlow,2024.2.4,149.3734530523547,2025-03-07 12h57.38.719394 +0700,
2,59,1,word/worden0591.png,image/True/img59.png,183,183,0,z,1.0050302999989071,None,0,183,183,183,662.6316162000003,,,,,,,664.1245500000005,663.6319442999993,663.635248999999,663.635248999999,664.1186903999987,665.2085608999987,665.2085608999987,z,1.0050302999989071,None,664.1245500000005,664.1245500000005,665.2085608999987,,,,,,,,NU2_en,001,2025-03-07_12h57.17.126,MainFlow,2024.2.4,149.3734530523547,2025-03-07 12h57.38.719394 +0700,
2,8,1,word/worden0081.png,image/True/img08.png,184,184,0,z,0.6735991000005015,None,0,184,184,184,666.2211539,,,,,,,667.7072693999999,667.2142772999996,667.2173832999997,667.2173832999997,667.7020592999997,668.7963244999992,668.7963244999992,z,0.6735991000005015,None,667.7072693999999,667.7072693999999,668.7963244999992,,,,,,,,NU2_en,001,2025-03-07_12h57.17.126,MainFlow,2024.2.4,149.3734530523547,2025-03-07 12h57.38.719394 +0700,
2,63,0,word/worden0631.png,image/False/imgf63.png,185,185,0,x,0.972384200000306,None,0,185,185,185,669.4775518999995,,,,,,,670.9635782999994,670.4694624999993,670.4726508999993,670.4726508999993,670.9571964999996,672.0829077999988,672.0829077999988,x,0.972384200000306,None,670.9635782999994,670.9635782999994,672.0829077999988,,,,,,,,NU2_en,001,2025-03-07_12h57.17.126,MainFlow,2024.2.4,149.3734530523547,2025-03-07 12h57.38.719394 +0700,
2,30,0,word/worden0301.png,image/False/imgf30.png,186,186,0,x,1.5537485999993805,None,0,186,186,186,673.0673568999991,,,,,,,674.5599205999988,674.0617318999994,674.0648643000004,674.0648643000004,674.5542587999989,675.6655458999994,675.6655458999994,x,1.5537485999993805,None,674.5599205999988,674.5599205999988,675.6655458999994,,,,,,,,NU2_en,001,2025-03-07_12h57.17.126,MainFlow,2024.2.4,149.3734530523547,2025-03-07 12h57.38.719394 +0700,
2,15,0,word/worden0151.png,image/False/imgf15.png,187,187,0,x,1.7991684999997233,None,0,187,187,187,677.2263179000001,,,,,,,678.7118341999994,678.2188583999996,678.2219972000003,678.2219972000003,678.7060119999987,679.8102130999996,679.8102130999996,x,1.7991684999997233,None,678.7118341999994,678.7118341999994,679.8102130999996,,,,,,,,NU2_en,001,2025-03-07_12h57.17.126,MainFlow,2024.2.4,149.3734530523547,2025-03-07 12h57.38.719394 +0700,
2,71,0,word/worden0711.png,image/False/imgf71.png,188,188,0,x,1.2883041000004596,None,0,188,188,188,681.6210047999994,,,,,,,683.1208513999991,682.6218993000002,682.6251276000003,682.6251276000003,683.1159307999988,684.2584970999997,684.2584970999997,x,1.2883041000004596,None,683.1208513999991,683.1208513999991,,,,,,,,,NU2_en,001,2025-03-07_12h57.17.126,MainFlow,2024.2.4,149.3734530523547,2025-03-07 12h57.38.719394 +0700,
2,10,0,word/worden0101.png,image/False/imgf10.png,189,189,0,x,4.098312099999021,None,0,189,189,189,685.5578186000002,,,,,,,687.0505618999996,686.5567350999991,686.560158799999,686.560158799999,687.0447151999997,688.1585863,688.1585863,x,4.098312099999021,None,687.0505618999996,687.0505618999996,688.1585863,,,,,,,,NU2_en,001,2025-03-07_12h57.17.126,MainFlow,2024.2.4,149.3734530523547,2025-03-07 12h57.38.719394 +0700,
2,54,0,word/worden0541.png,image/False/imgf54.png,190,190,0,x,1.1401920000007522,None,0,190,190,190,692.2649315999988,,,,,,,693.7506586999989,693.2549056999997,693.2578390999988,693.2578390999988,693.7447319000003,694.8537259000004,694.8537259000004,x,1.1401920000007522,None,693.7506586999989,693.7506586999989,694.8537259000004,,,,,,,,NU2_en,001,2025-03-07_12h57.17.126,MainFlow,2024.2.4,149.3734530523547,2025-03-07 12h57.38.719394 +0700,
2,60,0,word/worden0601.png,image/False/imgf60.png,191,191,0,x,0.5763950000000477,None,0,191,191,191,696.0001544999996,,,,,,,697.4999219999991,697.0012721999992,697.0048712999996,697.0048712999996,697.4939023999996,698.6010711999988,698.6010711999988,x,0.5763950000000477,None,697.4999219999991,697.4999219999991,,,,,,,,,NU2_en,001,2025-03-07_12h57.17.126,MainFlow,2024.2.4,149.3734530523547,2025-03-07 12h57.38.719394 +0700,
2,16,0,word/worden0161.png,image/False/imgf16.png,192,192,0,x,0.8419542999999976,None,0,192,192,192,699.1871092000001,,,,,,,700.6800881999989,700.1815303999992,700.1848138999994,700.1848138999994,700.6745114999994,701.7943321999992,701.7943321999992,x,0.8419542999999976,None,700.6800881999989,700.6800881999989,701.7943321999992,,,,,,,,NU2_en,001,2025-03-07_12h57.17.126,MainFlow,2024.2.4,149.3734530523547,2025-03-07 12h57.38.719394 +0700,
2,50,1,word/worden0501.png,image/True/img50.png,193,193,0,z,0.7686130999991292,None,0,193,193,193,702.6450077999998,,,,,,,704.1375989999997,703.6441185000003,703.6476779999994,703.6476779999994,704.1322254999995,705.2405806999996,705.2405806999996,z,0.7686130999991292,None,704.1375989999997,704.1375989999997,705.2405806999996,,,,,,,,NU2_en,001,2025-03-07_12h57.17.126,MainFlow,2024.2.4,149.3734530523547,2025-03-07 12h57.38.719394 +0700,
2,63,1,word/worden0631.png,image/True/img63.png,194,194,0,z,0.8761396999998396,None,0,194,194,194,706.0191293999997,,,,,,,707.5049323000003,707.0121115999991,707.0152804999998,707.0152804999998,707.4991795999995,708.6186856000004,708.6186856000004,z,0.8761396999998396,None,707.5049323000003,707.5049323000003,708.6186856000004,,,,,,,,NU2_en,001,2025-03-07_12h57.17.126,MainFlow,2024.2.4,149.3734530523547,2025-03-07 12h57.38.719394 +0700,
2,24,0,word/worden0241.png,image/False/imgf24.png,195,195,0,x,0.5773578000007547,None,0,195,195,195,709.5047514999987,,,,,,,711.0044273000003,710.5092088999991,710.5129275999989,710.5129275999989,710.9984463000001,712.1059076999991,712.1059076999991,x,0.5773578000007547,None,711.0044273000003,711.0044273000003,,,,,,,,,NU2_en,001,2025-03-07_12h57.17.126,MainFlow,2024.2.4,149.3734530523547,2025-03-07 12h57.38.719394 +0700,
2,89,0,word/worden0891.png,image/False/imgf89.png,196,196,0,x,2.0639062999998714,None,0,196,196,196,712.6914591999994,,,,,,,714.1841690000001,713.6872270000003,713.6904078999996,713.6904078999996,714.1785566999988,715.2890671999994,715.2890671999994,x,2.0639062999998714,None,714.1841690000001,714.1841690000001,715.2890671999994,,,,,,,,NU2_en,001,2025-03-07_12h57.17.126,MainFlow,2024.2.4,149.3734530523547,2025-03-07 12h57.38.719394 +0700,
2,6,0,word/worden0061.png,image/False/imgf06.png,197,197,0,x,0.5497533000016119,None,0,197,197,197,717.3642557000003,,,,,,,718.8638947,718.3662532999988,718.3696000999989,718.3696000999989,718.8588645999989,719.9489593999988,719.9489593999988,x,0.5497533000016119,None,718.8638947,718.8638947,,,,,,,,,NU2_en,001,2025-03-07_12h57.17.126,MainFlow,2024.2.4,149.3734530523547,2025-03-07 12h57.38.719394 +0700,
2,41,0,word/worden0411.png,image/False/imgf41.png,198,198,0,x,1.4854605000000447,None,0,198,198,198,720.5095017000003,,,,,,,722.0022939999999,721.5045625999992,721.508135,721.508135,721.9973286999993,723.0820760999995,723.0820760999995,x,1.4854605000000447,None,722.0022939999999,722.0022939999999,723.0820760999995,,,,,,,,NU2_en,001,2025-03-07_12h57.17.126,MainFlow,2024.2.4,149.3734530523547,2025-03-07 12h57.38.719394 +0700,
2,79,0,word/worden0791.png,image/False/imgf79.png,199,199,0,x,1.0431223999985377,None,0,199,199,199,724.5781167000005,,,,,,,726.0707399999992,725.5725896000004,725.5759643000001,725.5759643000001,726.0651130999995,727.1936611000001,727.1936611000001,x,1.0431223999985377,None,726.0707399999992,726.0707399999992,727.1936611000001,,,,,,,,NU2_en,001,2025-03-07_12h57.17.126,MainFlow,2024.2.4,149.3734530523547,2025-03-07 12h57.38.719394 +0700,
2,70,1,word/worden0701.png,image/True/img70.png,200,200,0,z,1.638163199999326,None,0,200,200,200,728.2442690999997,,,,,,,729.7367818000002,729.2389115999995,729.2425519999997,729.2425519999997,729.7313182999987,730.8492327999993,730.8492327999993,z,1.638163199999326,None,729.7367818000002,729.7367818000002,730.8492327999993,,,,,,,,NU2_en,001,2025-03-07_12h57.17.126,MainFlow,2024.2.4,149.3734530523547,2025-03-07 12h57.38.719394 +0700,
2,31,1,word/worden0311.png,image/True/img31.png,201,201,0,z,0.9302435999998124,None,0,201,201,201,732.500213199999,,,,,,,733.9928834999992,733.4940397999999,733.4973915999999,733.4973915999999,733.9869724,735.0975870000002,735.0975870000002,z,0.9302435999998124,None,733.9928834999992,733.9928834999992,735.0975870000002,,,,,,,,NU2_en,001,2025-03-07_12h57.17.126,MainFlow,2024.2.4,149.3734530523547,2025-03-07 12h57.38.719394 +0700,
2,9,1,word/worden0091.png,image/True/img09.png,202,202,0,z,0.8401496000005864,None,0,202,202,202,736.0340816999997,,,,,,,737.5338042000003,737.0388420999989,737.0426375999996,737.0426375999996,737.5279340999987,738.5936335999995,738.5936335999995,z,0.8401496000005864,None,737.5338042000003,737.5338042000003,,,,,,,,,NU2_en,001,2025-03-07_12h57.17.126,MainFlow,2024.2.4,149.3734530523547,2025-03-07 12h57.38.719394 +0700,
2,27,1,word/worden0271.png,image/True/img27.png,203,203,0,z,0.603617499999018,None,0,203,203,203,739.4432617999992,,,,,,,740.9360882000001,740.4397324999991,740.4431293999987,740.4431293999987,740.9308112999988,742.0366505000002,742.0366505000002,z,0.603617499999018,None,740.9360882000001,740.9360882000001,742.0366505000002,,,,,,,,NU2_en,001,2025-03-07_12h57.17.126,MainFlow,2024.2.4,149.3734530523547,2025-03-07 12h57.38.719394 +0700,
2,75,0,word/worden0751.png,image/False/imgf75.png,204,204,0,x,0.7941274999993766,None,0,204,204,204,742.6509322000002,,,,,,,744.1508279999998,743.652334299999,743.6556793,743.6556793,744.1457463999996,745.2539648000002,745.2539648000002,x,0.7941274999993766,None,744.1508279999998,744.1508279999998,,,,,,,,,NU2_en,001,2025-03-07_12h57.17.126,MainFlow,2024.2.4,149.3734530523547,2025-03-07 12h57.38.719394 +0700,
2,87,0,word/worden0871.png,image/False/imgf87.png,205,205,0,x,1.0980079999990267,None,0,205,205,205,746.0599536999998,,,,,,,747.559699899999,747.0612928999999,747.0646079999988,747.0646079999988,747.5537638999995,748.6482734000001,748.6482734000001,x,1.0980079999990267,None,747.559699899999,747.559699899999,,,,,,,,,NU2_en,001,2025-03-07_12h57.17.126,MainFlow,2024.2.4,149.3734530523547,2025-03-07 12h57.38.719394 +0700,
2,8,0,word/worden0081.png,image/False/imgf08.png,206,206,0,x,1.10050560000127,None,0,206,206,206,749.7536719999989,,,,,,,751.239467899999,750.7444104999995,750.7475618999997,750.7475618999997,751.2335770999998,752.3438206999999,752.3438206999999,x,1.10050560000127,None,751.239467899999,751.239467899999,752.3438206999999,,,,,,,,NU2_en,001,2025-03-07_12h57.17.126,MainFlow,2024.2.4,149.3734530523547,2025-03-07 12h57.38.719394 +0700,
2,24,1,word/worden0241.png,image/True/img24.png,207,207,0,z,0.450173299999733,None,0,207,207,207,753.454396699999,,,,,,,754.947020399999,754.4510716999994,754.4543589999994,754.4543589999994,754.9409674999988,756.0280552000004,756.0280552000004,z,0.450173299999733,None,754.947020399999,754.947020399999,756.0280552000004,,,,,,,,NU2_en,001,2025-03-07_12h57.17.126,MainFlow,2024.2.4,149.3734530523547,2025-03-07 12h57.38.719394 +0700,
2,14,1,word/worden0141.png,image/True/img14.png,208,208,0,z,0.6971640000010666,None,0,208,208,208,756.4889810000004,,,,,,,757.9813869999998,757.4882433999992,757.4915076999987,757.4915076999987,757.976357399999,759.1034235999996,759.1034235999996,z,0.6971640000010666,None,757.9813869999998,757.9813869999998,759.1034235999996,,,,,,,,NU2_en,001,2025-03-07_12h57.17.126,MainFlow,2024.2.4,149.3734530523547,2025-03-07 12h57.38.719394 +0700,
2,87,1,word/worden0871.png,image/True/img87.png,209,209,0,z,1.9013189999986935,None,0,209,209,209,759.8082011999995,,,,,,,761.3005290000001,760.804714599999,760.8085044999989,760.8085044999989,761.2946468999999,762.4218891,762.4218891,z,1.9013189999986935,None,761.3005290000001,761.3005290000001,762.4218891,,,,,,,,NU2_en,001,2025-03-07_12h57.17.126,MainFlow,2024.2.4,149.3734530523547,2025-03-07 12h57.38.719394 +0700,
2,42,0,word/worden0421.png,image/False/imgf42.png,210,210,0,x,0.8110228999994433,None,0,210,210,210,764.3342622,,,,,,,765.8270262999995,765.3279256999995,765.3313491999997,765.3313491999997,765.8216243999996,766.9559795000005,766.9559795000005,x,0.8110228999994433,None,765.8270262999995,765.8270262999995,766.9559795000005,,,,,,,,NU2_en,001,2025-03-07_12h57.17.126,MainFlow,2024.2.4,149.3734530523547,2025-03-07 12h57.38.719394 +0700,
2,48,0,word/worden0481.png,image/False/imgf48.png,211,211,0,x,0.7699396000007255,None,0,211,211,211,767.7780175999997,,,,,,,769.263976799999,768.771464899999,768.7749086000003,768.7749086000003,769.2580605000003,770.4019210999995,770.4019210999995,x,0.7699396000007255,None,769.263976799999,769.263976799999,770.4019210999995,,,,,,,,NU2_en,001,2025-03-07_12h57.17.126,MainFlow,2024.2.4,149.3734530523547,2025-03-07 12h57.38.719394 +0700,
2,56,0,word/worden0561.png,image/False/imgf56.png,212,212,0,x,0.6140742999996291,None,0,212,212,212,771.1800318999994,,,,,,,772.6799766000004,772.1817828999992,772.1852421000003,772.1852421000003,772.6740446000003,773.8280316,773.8280316,x,0.6140742999996291,None,772.6799766000004,772.6799766000004,,,,,,,,,NU2_en,001,2025-03-07_12h57.17.126,MainFlow,2024.2.4,149.3734530523547,2025-03-07 12h57.38.719394 +0700,
2,18,0,word/worden0181.png,image/False/imgf18.png,213,213,0,x,0.7342422999990958,None,0,213,213,213,774.4502764999997,,,,,,,775.9431654,775.4457703999997,775.4491230000003,775.4491230000003,775.9372180999999,777.0639176000004,777.0639176000004,x,0.7342422999990958,None,775.9431654,775.9431654,777.0639176000004,,,,,,,,NU2_en,001,2025-03-07_12h57.17.126,MainFlow,2024.2.4,149.3734530523547,2025-03-07 12h57.38.719394 +0700,
2,18,0,word/worden0181.png,image/False/imgf18.png,214,214,0,x,0.8160231000001659,None,0,214,214,214,777.8107901000003,,,,,,,779.3035218999994,778.8085622999988,778.8117947999999,778.8117947999999,779.2979386999996,780.4080209999993,780.4080209999993,x,0.8160231000001659,None,779.3035218999994,779.3035218999994,780.4080209999993,,,,,,,,NU2_en,001,2025-03-07_12h57.17.126,MainFlow,2024.2.4,149.3734530523547,2025-03-07 12h57.38.719394 +0700,
2,9,0,word/worden0091.png,image/False/imgf09.png,215,215,0,x,2.036837400000877,None,0,215,215,215,781.2339554999999,,,,,,,782.7195512999988,782.2272205999998,782.2304734999998,782.2304734999998,782.7136114000004,783.8108868999989,783.8108868999989,x,2.036837400000877,None,782.7195512999988,782.7195512999988,783.8108868999989,,,,,,,,NU2_en,001,2025-03-07_12h57.17.126,MainFlow,2024.2.4,149.3734530523547,2025-03-07 12h57.38.719394 +0700,
2,55,0,word/worden0551.png,image/False/imgf55.png,216,216,0,x,1.0701598999985436,None,0,216,216,216,785.8578715000003,,,,,,,787.3438793000005,786.8473300999995,786.8503209999999,786.8503209999999,787.3378668000005,788.4446530999994,788.4446530999994,x,1.0701598999985436,None,787.3438793000005,787.3438793000005,788.4446530999994,,,,,,,,NU2_en,001,2025-03-07_12h57.17.126,MainFlow,2024.2.4,149.3734530523547,2025-03-07 12h57.38.719394 +0700,
2,17,0,word/worden0171.png,image/False/imgf17.png,217,217,0,x,5.180997000001298,None,0,217,217,217,789.523919199999,,,,,,,791.0165641999993,790.5176594999994,790.5208831,790.5208831,791.0108732999997,792.1459256999988,792.1459256999988,x,5.180997000001298,None,791.0165641999993,791.0165641999993,792.1459256999988,,,,,,,,NU2_en,001,2025-03-07_12h57.17.126,MainFlow,2024.2.4,149.3734530523547,2025-03-07 12h57.38.719394 +0700,
2,50,1,word/worden0501.png,image/True/img50.png,218,218,0,z,2.0494930999993812,None,0,218,218,218,797.334887699999,,,,,,,798.8275890000004,798.3292236999987,798.3323906999995,798.3323906999995,798.8217282999994,799.9379831999995,799.9379831999995,z,2.0494930999993812,None,798.8275890000004,798.8275890000004,799.9379831999995,,,,,,,,NU2_en,001,2025-03-07_12h57.17.126,MainFlow,2024.2.4,149.3734530523547,2025-03-07 12h57.38.719394 +0700,
2,20,0,word/worden0201.png,image/False/imgf20.png,219,219,0,x,0.8713072999998985,None,0,219,219,219,801.9937928999989,,,,,,,803.4795720999991,802.9872768000005,802.9904452999999,802.9904452999999,803.4736432999998,804.617793899999,804.617793899999,x,0.8713072999998985,None,803.4795720999991,803.4795720999991,804.617793899999,,,,,,,,NU2_en,001,2025-03-07_12h57.17.126,MainFlow,2024.2.4,149.3734530523547,2025-03-07 12h57.38.719394 +0700,
2,36,0,word/worden0361.png,image/False/imgf36.png,220,220,0,x,1.3499276999991707,None,0,220,220,220,805.4998853999987,,,,,,,806.9995643000002,806.5011020000002,806.5045214999991,806.5045214999991,806.9936956999991,808.0967306000002,808.0967306000002,x,1.3499276999991707,None,806.9995643000002,806.9995643000002,,,,,,,,,NU2_en,001,2025-03-07_12h57.17.126,MainFlow,2024.2.4,149.3734530523547,2025-03-07 12h57.38.719394 +0700,
2,7,0,word/worden0071.png,image/False/imgf07.png,221,221,0,x,0.8055270999993809,None,0,221,221,221,809.4575112000002,,,,,,,810.9433520999992,810.4498389,810.4529832999997,810.4529832999997,810.9377396999989,812.0499020999996,812.0499020999996,x,0.8055270999993809,None,810.9433520999992,810.9433520999992,812.0499020999996,,,,,,,,NU2_en,001,2025-03-07_12h57.17.126,MainFlow,2024.2.4,149.3734530523547,2025-03-07 12h57.38.719394 +0700,
2,7,1,word/worden0071.png,image/True/img07.png,222,222,0,z,1.1842224000010901,None,0,222,222,222,812.8666216999991,,,,,,,814.3592236000004,813.8604438000002,813.8639108999996,813.8639108999996,814.3534693999991,815.4750769999991,815.4750769999991,z,1.1842224000010901,None,814.3592236000004,814.3592236000004,815.4750769999991,,,,,,,,NU2_en,001,2025-03-07_12h57.17.126,MainFlow,2024.2.4,149.3734530523547,2025-03-07 12h57.38.719394 +0700,
2,70,0,word/worden0701.png,image/False/imgf70.png,223,223,0,x,1.9427293999997346,None,0,223,223,223,816.6714037999991,,,,,,,818.1642018000002,817.6689852999989,817.6723344999991,817.6723344999991,818.1583898999997,819.2636129999992,819.2636129999992,x,1.9427293999997346,None,818.1642018000002,818.1642018000002,819.2636129999992,,,,,,,,NU2_en,001,2025-03-07_12h57.17.126,MainFlow,2024.2.4,149.3734530523547,2025-03-07 12h57.38.719394 +0700,
2,68,0,word/worden0681.png,image/False/imgf68.png,224,224,0,x,0.9239167000014277,None,0,224,224,224,821.2122698000003,,,,,,,822.7048529999993,822.2128159000004,822.216029199999,822.216029199999,822.6991957999999,823.7948724999987,823.7948724999987,x,0.9239167000014277,None,822.7048529999993,822.7048529999993,823.7948724999987,,,,,,,,NU2_en,001,2025-03-07_12h57.17.126,MainFlow,2024.2.4,149.3734530523547,2025-03-07 12h57.38.719394 +0700,
2,23,0,word/worden0231.png,image/False/imgf23.png,225,225,0,x,1.8749833999991097,None,0,225,225,225,824.7254911999989,,,,,,,826.2113207999992,825.7167845999993,825.7198933999989,825.7198933999989,826.2062198999993,827.3706960999989,827.3706960999989,x,1.8749833999991097,None,826.2113207999992,826.2113207999992,827.3706960999989,,,,,,,,NU2_en,001,2025-03-07_12h57.17.126,MainFlow,2024.2.4,149.3734530523547,2025-03-07 12h57.38.719394 +0700,
2,56,0,word/worden0561.png,image/False/imgf56.png,226,226,0,x,3.056987999998455,None,0,226,226,226,829.2522649000002,,,,,,,830.7452899,830.2468001999987,830.2500694999999,830.2500694999999,830.7393419999989,831.8853732999996,831.8853732999996,x,3.056987999998455,None,830.7452899,830.7452899,831.8853732999996,,,,,,,,NU2_en,001,2025-03-07_12h57.17.126,MainFlow,2024.2.4,149.3734530523547,2025-03-07 12h57.38.719394 +0700,
2,17,1,word/worden0171.png,image/True/img17.png,227,227,0,z,0.6803511999987677,None,0,227,227,227,834.9526323999999,,,,,,,836.445323599999,835.9526764000002,835.9559006999989,835.9559006999989,836.4399316999989,837.553280099999,837.553280099999,z,0.6803511999987677,None,836.445323599999,836.445323599999,837.553280099999,,,,,,,,NU2_en,001,2025-03-07_12h57.17.126,MainFlow,2024.2.4,149.3734530523547,2025-03-07 12h57.38.719394 +0700,
