lang,wordid,truestate,worddir,imgdir,thisN,thisTrialN,thisRepN,key_resp.keys,key_resp.rt,key_resp.duration,trials.thisRepN,trials.thisTrialN,trials.thisN,trials.thisIndex,thisRow.t,notes,tutorial.started,tutorial.stopped,key_instruct.keys,key_instruct.rt,key_instruct.duration,plusblank.started,wordshow.started,image.started,plsuer.started,wordshow.stopped,imageword.started,key_resp.started,trials.key_resp.keys,trials.key_resp.rt,trials.key_resp.duration,plusblank.stopped,image.stopped,plsuer.stopped,ending.started,text_3.started,ending_key.started,ending.stopped,ending_key.keys,ending_key.rt,ending_key.duration,participant,session,date,expName,psychopyVersion,frameRate,expStart,
,,,,,,,,,,,,,,,,,0.003250300000217976,126.77670249999937,space,126.73604519999935,None,,,,,,,,,,,,,,,,,,,,,OAT_en,001,2025-03-12_16h49.01.948,MainFlow,2024.2.4,144.0882742398532,2025-03-12 16h49.13.554609 +0700,
2,87,0,word/worden0871.png,image/False/imgf87.png,0,0,0,x,0.4412119000007806,None,0,0,0,0,126.82412869999825,,,,,,,128.28981769999882,127.79163400000107,127.81867770000099,127.81867770000099,128.2835868000002,129.42706120000003,129.42706120000003,x,0.4412119000007806,None,,,,,,,,,,,OAT_en,001,2025-03-12_16h49.01.948,MainFlow,2024.2.4,144.0882742398532,2025-03-12 16h49.13.554609 +0700,
2,93,0,word/worden0931.png,image/False/imgf93.png,1,1,0,x,0.45082710000133375,None,0,1,1,1,129.8795499000007,,,,,,,131.38626020000083,130.90008450000096,130.90343779999967,130.90343779999967,131.3798139999999,132.47426410000116,132.47426410000116,x,0.45082710000133375,None,,,,,,,,,,,OAT_en,001,2025-03-12_16h49.01.948,MainFlow,2024.2.4,144.0882742398532,2025-03-12 16h49.13.554609 +0700,
2,23,0,word/worden0231.png,image/False/imgf23.png,2,2,0,x,0.5733099999997648,None,0,2,2,2,132.93457149999813,,,,,,,134.44109240000034,133.9526436999986,133.95585370000117,133.95585370000117,134.43462759999966,135.58618899999783,135.58618899999783,x,0.5733099999997648,None,,,,,,,,,,,OAT_en,001,2025-03-12_16h49.01.948,MainFlow,2024.2.4,144.0882742398532,2025-03-12 16h49.13.554609 +0700,
2,10,1,word/worden0101.png,image/True/img10.png,3,3,0,z,0.33962420000170823,None,0,3,3,3,136.1701843999981,,,,,,,137.67684630000076,137.18426529999851,137.18766870000036,137.18766870000036,137.67055809999874,138.7609663000003,138.7609663000003,z,0.33962420000170823,None,,,,,,,,,,,OAT_en,001,2025-03-12_16h49.01.948,MainFlow,2024.2.4,144.0882742398532,2025-03-12 16h49.13.554609 +0700,
2,50,0,word/worden0501.png,image/False/imgf50.png,4,4,0,x,0.6707157999990159,None,0,4,4,4,139.107041700001,,,,,,,140.61399119999987,140.13055769999846,140.13402169999972,140.13402169999972,140.60782749999998,141.71529889999874,141.71529889999874,x,0.6707157999990159,None,,,,,,,,,,,OAT_en,001,2025-03-12_16h49.01.948,MainFlow,2024.2.4,144.0882742398532,2025-03-12 16h49.13.554609 +0700,
2,33,1,word/worden0331.png,image/True/img33.png,5,5,0,z,0.5261919000004127,None,0,5,5,5,142.39787309999883,,,,,,,143.90493340000103,143.41153190000114,143.4148853000006,143.4148853000006,143.8983933999989,145.01714319999883,145.01714319999883,z,0.5261919000004127,None,,,,,,,,,,,OAT_en,001,2025-03-12_16h49.01.948,MainFlow,2024.2.4,144.0882742398532,2025-03-12 16h49.13.554609 +0700,
2,95,0,word/worden0951.png,image/False/imgf95.png,6,6,0,x,0.5152622999994492,None,0,6,6,6,145.55008269999962,,,,,,,147.05692529999942,146.56062380000003,146.5633534999979,146.5633534999979,147.0504793,148.17378330000065,148.17378330000065,x,0.5152622999994492,None,,,,,,,,,,,OAT_en,001,2025-03-12_16h49.01.948,MainFlow,2024.2.4,144.0882742398532,2025-03-12 16h49.13.554609 +0700,
2,7,0,word/worden0071.png,image/False/imgf07.png,7,7,0,x,0.5822432999993907,None,0,7,7,7,148.69713219999903,,,,,,,150.20219859999997,149.70949290000135,149.71275609999793,149.71275609999793,150.19595819999813,151.31014499999947,151.31014499999947,x,0.5822432999993907,None,149.71275609999793,,,,,,,,,,OAT_en,001,2025-03-12_16h49.01.948,MainFlow,2024.2.4,144.0882742398532,2025-03-12 16h49.13.554609 +0700,
2,28,1,word/worden0281.png,image/True/img28.png,8,8,0,z,0.6295865000029153,None,0,8,8,8,151.90312650000124,,,,,,,153.40980099999797,152.91969229999813,152.92311079999854,152.92311079999854,153.40337210000143,154.53990609999892,154.53990609999892,z,0.6295865000029153,None,,,,,,,,,,,OAT_en,001,2025-03-12_16h49.01.948,MainFlow,2024.2.4,144.0882742398532,2025-03-12 16h49.13.554609 +0700,
2,38,1,word/worden0381.png,image/True/img38.png,9,9,0,z,0.4168409000012616,None,0,9,9,9,155.18016720000014,,,,,,,156.68724279999878,156.1975765999996,156.20055810000122,156.20055810000122,156.68101670000033,157.78378090000115,157.78378090000115,z,0.4168409000012616,None,,,,,,,,,,,OAT_en,001,2025-03-12_16h49.01.948,MainFlow,2024.2.4,144.0882742398532,2025-03-12 16h49.13.554609 +0700,
2,33,0,word/worden0331.png,image/False/imgf33.png,10,10,0,x,0.5098762000015995,None,0,10,10,10,158.20952240000042,,,,,,,159.70034419999865,159.2038137999989,159.20708939999895,159.20708939999895,159.69465819999823,160.823214,160.823214,x,0.5098762000015995,None,160.823214,159.70034419999865,159.70034419999865,,,,,,,,OAT_en,001,2025-03-12_16h49.01.948,MainFlow,2024.2.4,144.0882742398532,2025-03-12 16h49.13.554609 +0700,
2,76,1,word/worden0761.png,image/True/img76.png,11,11,0,z,0.41626040000119247,None,0,11,11,11,161.34558169999946,,,,,,,162.85237639999832,162.3591290000004,162.36197840000023,162.36197840000023,162.84599470000103,163.95866970000134,163.95866970000134,z,0.41626040000119247,None,,,,,,,,,,,OAT_en,001,2025-03-12_16h49.01.948,MainFlow,2024.2.4,144.0882742398532,2025-03-12 16h49.13.554609 +0700,
2,75,0,word/worden0751.png,image/False/imgf75.png,12,12,0,x,0.416736299997865,None,0,12,12,12,164.38673149999886,,,,,,,165.89361459999782,165.40689809999822,165.41011050000088,165.41011050000088,165.88737150000088,166.98819490000096,166.98819490000096,x,0.416736299997865,None,,,,,,,,,,,OAT_en,001,2025-03-12_16h49.01.948,MainFlow,2024.2.4,144.0882742398532,2025-03-12 16h49.13.554609 +0700,
2,7,1,word/worden0071.png,image/True/img07.png,13,13,0,x,0.39593069999682484,None,0,13,13,13,167.41544539999813,,,,,,,168.9138400999982,168.41541289999805,168.41901230000076,168.41901230000076,168.90800599999784,170.03476379999847,170.03476379999847,x,0.39593069999682484,None,,168.9138400999982,168.9138400999982,,,,,,,,OAT_en,001,2025-03-12_16h49.01.948,MainFlow,2024.2.4,144.0882742398532,2025-03-12 16h49.13.554609 +0700,
2,51,1,word/worden0511.png,image/True/img51.png,14,14,0,z,0.48351370000091265,None,0,14,14,14,170.44111150000026,,,,,,,171.94808089999788,171.4561399000013,171.4593793999993,171.4593793999993,171.94166580000092,173.05601430000024,173.05601430000024,z,0.48351370000091265,None,,,,,,,,,,,OAT_en,001,2025-03-12_16h49.01.948,MainFlow,2024.2.4,144.0882742398532,2025-03-12 16h49.13.554609 +0700,
2,59,0,word/worden0591.png,image/False/imgf59.png,15,15,0,z,0.375047599998652,None,0,15,15,15,173.5516549999993,,,,,,,175.0585198000008,174.5713778999998,174.57456549999915,174.57456549999915,175.05222510000021,176.11452799999824,176.11452799999824,z,0.375047599998652,None,,,,,,,,,,,OAT_en,001,2025-03-12_16h49.01.948,MainFlow,2024.2.4,144.0882742398532,2025-03-12 16h49.13.554609 +0700,
2,54,0,word/worden0541.png,image/False/imgf54.png,16,16,0,x,0.44940809999752673,None,0,16,16,16,176.49558629999956,,,,,,,178.0022968000012,177.50697639999999,177.51011730000027,177.51011730000027,177.9957590999984,179.1030017999983,179.1030017999983,x,0.44940809999752673,None,,,,,,,,,,,OAT_en,001,2025-03-12_16h49.01.948,MainFlow,2024.2.4,144.0882742398532,2025-03-12 16h49.13.554609 +0700,
2,6,1,word/worden0061.png,image/True/img06.png,17,17,0,z,0.4513440000009723,None,0,17,17,17,179.56428289999894,,,,,,,181.07113449999815,180.5822847999989,180.58545899999808,180.58545899999808,181.06482649999816,182.16787079999995,182.16787079999995,z,0.4513440000009723,None,,,,,,,,,,,OAT_en,001,2025-03-12_16h49.01.948,MainFlow,2024.2.4,144.0882742398532,2025-03-12 16h49.13.554609 +0700,
2,41,1,word/worden0411.png,image/True/img41.png,18,18,0,z,0.4114937000013015,None,0,18,18,18,182.62628480000058,,,,,,,184.1330840999981,183.64330899999914,183.6464171000007,183.6464171000007,184.12664249999943,185.24451879999833,185.24451879999833,z,0.4114937000013015,None,,,,,,,,,,,OAT_en,001,2025-03-12_16h49.01.948,MainFlow,2024.2.4,144.0882742398532,2025-03-12 16h49.13.554609 +0700,
2,42,0,word/worden0421.png,image/False/imgf42.png,19,19,0,x,0.42550870000195573,None,0,19,19,19,185.66740049999862,,,,,,,187.17434499999945,186.68104010000025,186.68377880000116,186.68377880000116,187.16789609999978,188.30445029999828,188.30445029999828,x,0.42550870000195573,None,,,,,,,,,,,OAT_en,001,2025-03-12_16h49.01.948,MainFlow,2024.2.4,144.0882742398532,2025-03-12 16h49.13.554609 +0700,
2,64,0,word/worden0641.png,image/False/imgf64.png,20,20,0,x,0.4414772999989509,None,0,20,20,20,188.73635429999922,,,,,,,190.24304869999833,189.75088870000036,189.75443050000104,189.75443050000104,190.23684439999852,191.3181474999983,191.3181474999983,x,0.4414772999989509,None,,,,,,,,,,,OAT_en,001,2025-03-12_16h49.01.948,MainFlow,2024.2.4,144.0882742398532,2025-03-12 16h49.13.554609 +0700,
2,96,1,word/worden0961.png,image/True/img96.png,21,21,0,z,0.44246879999991506,None,0,21,21,21,191.77030989999912,,,,,,,193.26324569999997,192.7696791999988,192.77269349999915,192.77269349999915,193.25762659999964,194.3730371999991,194.3730371999991,z,0.44246879999991506,None,194.3730371999991,193.26324569999997,193.26324569999997,,,,,,,,OAT_en,001,2025-03-12_16h49.01.948,MainFlow,2024.2.4,144.0882742398532,2025-03-12 16h49.13.554609 +0700,
2,76,0,word/worden0761.png,image/False/imgf76.png,22,22,0,x,0.5064414000007673,None,0,22,22,22,194.82533169999806,,,,,,,196.31844980000096,195.82047890000104,195.82416250000097,195.82416250000097,196.3129728999993,197.45458789999975,197.45458789999975,x,0.5064414000007673,None,197.45458789999975,196.31844980000096,196.31844980000096,,,,,,,,OAT_en,001,2025-03-12_16h49.01.948,MainFlow,2024.2.4,144.0882742398532,2025-03-12 16h49.13.554609 +0700,
2,17,1,word/worden0171.png,image/True/img17.png,23,23,0,z,0.57490289999987,None,0,23,23,23,197.9704348999985,,,,,,,199.47732420000102,198.9878306999999,198.99065100000007,198.99065100000007,199.4709342999995,200.5806761999993,200.5806761999993,z,0.57490289999987,None,,,,,,,,,,,OAT_en,001,2025-03-12_16h49.01.948,MainFlow,2024.2.4,144.0882742398532,2025-03-12 16h49.13.554609 +0700,
2,6,1,word/worden0061.png,image/True/img06.png,24,24,0,z,0.7591535999999905,None,0,24,24,24,201.1643894000008,,,,,,,202.65727139999944,202.16389730000083,202.16661039999963,202.16661039999963,202.65168059999996,203.75446269999884,203.75446269999884,z,0.7591535999999905,None,203.75446269999884,202.65727139999944,202.65727139999944,,,,,,,,OAT_en,001,2025-03-12_16h49.01.948,MainFlow,2024.2.4,144.0882742398532,2025-03-12 16h49.13.554609 +0700,
2,88,1,word/worden0881.png,image/True/img88.png,25,25,0,z,0.7395729999989271,None,0,25,25,25,204.5248447999984,,,,,,,206.02464390000023,205.52904320000016,205.5318460999988,205.5318460999988,206.0194460999992,207.14893859999938,207.14893859999938,z,0.7395729999989271,None,,206.02464390000023,206.02464390000023,,,,,,,,OAT_en,001,2025-03-12_16h49.01.948,MainFlow,2024.2.4,144.0882742398532,2025-03-12 16h49.13.554609 +0700,
2,44,1,word/worden0441.png,image/True/img44.png,26,26,0,z,0.5884976999986975,None,0,26,26,26,207.89928299999883,,,,,,,209.40573779999977,208.92055249999976,208.92393660000016,208.92393660000016,209.39928869999858,210.50555199999872,210.50555199999872,z,0.5884976999986975,None,,,,,,,,,,,OAT_en,001,2025-03-12_16h49.01.948,MainFlow,2024.2.4,144.0882742398532,2025-03-12 16h49.13.554609 +0700,
2,27,0,word/worden0271.png,image/False/imgf27.png,27,27,0,x,0.4920812999989721,None,0,27,27,27,211.10685699999885,,,,,,,212.61370579999857,212.12325209999835,212.12663819999943,212.12663819999943,212.60731579999992,213.70057919999817,213.70057919999817,x,0.4920812999989721,None,,,,,,,,,,,OAT_en,001,2025-03-12_16h49.01.948,MainFlow,2024.2.4,144.0882742398532,2025-03-12 16h49.13.554609 +0700,
2,14,0,word/worden0141.png,image/False/imgf14.png,28,28,0,x,0.576675600001181,None,0,28,28,28,214.20358000000124,,,,,,,215.70336580000003,215.20554899999843,215.20859859999837,215.20859859999837,215.69745469999907,216.80844839999918,216.80844839999918,x,0.576675600001181,None,,215.70336580000003,215.70336580000003,,,,,,,,OAT_en,001,2025-03-12_16h49.01.948,MainFlow,2024.2.4,144.0882742398532,2025-03-12 16h49.13.554609 +0700,
2,40,0,word/worden0401.png,image/False/imgf40.png,29,29,0,x,0.6173020000023826,None,0,29,29,29,217.3973079999996,,,,,,,218.90401869999914,218.4088225000014,218.4119713,218.4119713,218.89757119999922,220.00526499999978,220.00526499999978,x,0.6173020000023826,None,,,,,,,,,,,OAT_en,001,2025-03-12_16h49.01.948,MainFlow,2024.2.4,144.0882742398532,2025-03-12 16h49.13.554609 +0700,
2,1,0,word/worden0011.png,image/False/imgf01.png,30,30,0,x,0.47910480000064126,None,0,30,30,30,220.6341081999999,,,,,,,222.13955870000063,221.6473862999992,221.65048580000075,221.65048580000075,222.13328489999913,223.23209670000142,223.23209670000142,x,0.47910480000064126,None,,,,,,,,,,,OAT_en,001,2025-03-12_16h49.01.948,MainFlow,2024.2.4,144.0882742398532,2025-03-12 16h49.13.554609 +0700,
2,3,0,word/worden0031.png,image/False/imgf03.png,31,31,0,x,0.5313255999972171,None,0,31,31,31,223.72256199999902,,,,,,,225.229338000001,224.73744159999842,224.7407220999994,224.7407220999994,225.2230563000012,226.32651769999939,226.32651769999939,x,0.5313255999972171,None,,,,,,,,,,,OAT_en,001,2025-03-12_16h49.01.948,MainFlow,2024.2.4,144.0882742398532,2025-03-12 16h49.13.554609 +0700,
2,57,1,word/worden0571.png,image/True/img57.png,32,32,0,z,0.8528184000024339,None,0,32,32,32,226.86769999999888,,,,,,,228.37471540000115,227.88317670000106,227.88663100000122,227.88663100000122,228.3683467999981,229.4757447000011,229.4757447000011,z,0.8528184000024339,None,,,,,,,,,,,OAT_en,001,2025-03-12_16h49.01.948,MainFlow,2024.2.4,144.0882742398532,2025-03-12 16h49.13.554609 +0700,
2,88,0,word/worden0881.png,image/False/imgf88.png,33,33,0,x,0.6300728999995044,None,0,33,33,33,230.33927680000124,,,,,,,231.832159900001,231.33655709999948,231.3400643999994,231.3400643999994,231.82634880000114,232.95179730000018,232.95179730000018,x,0.6300728999995044,None,232.95179730000018,231.832159900001,231.832159900001,,,,,,,,OAT_en,001,2025-03-12_16h49.01.948,MainFlow,2024.2.4,144.0882742398532,2025-03-12 16h49.13.554609 +0700,
2,52,0,word/worden0521.png,image/False/imgf52.png,34,34,0,x,0.557200000002922,None,0,34,34,34,233.5886146999983,,,,,,,235.09522939999806,234.59960919999867,234.60233339999832,234.60233339999832,235.08875959999932,236.18385869999838,236.18385869999838,x,0.557200000002922,None,,,,,,,,,,,OAT_en,001,2025-03-12_16h49.01.948,MainFlow,2024.2.4,144.0882742398532,2025-03-12 16h49.13.554609 +0700,
2,50,0,word/worden0501.png,image/False/imgf50.png,35,35,0,x,0.5251762000007147,None,0,35,35,35,236.74780839999949,,,,,,,238.24072239999805,237.74706399999923,237.75048460000107,237.75048460000107,238.23527570000078,239.34349400000065,239.34349400000065,x,0.5251762000007147,None,239.34349400000065,238.24072239999805,238.24072239999805,,,,,,,,OAT_en,001,2025-03-12_16h49.01.948,MainFlow,2024.2.4,144.0882742398532,2025-03-12 16h49.13.554609 +0700,
2,78,1,word/worden0781.png,image/True/img78.png,36,36,0,z,0.5859296000016911,None,0,36,36,36,239.8791530999988,,,,,,,241.3719147999982,240.87824159999946,240.8810506000009,240.8810506000009,241.36639360000117,242.47516669999823,242.47516669999823,z,0.5859296000016911,None,242.47516669999823,241.3719147999982,241.3719147999982,,,,,,,,OAT_en,001,2025-03-12_16h49.01.948,MainFlow,2024.2.4,144.0882742398532,2025-03-12 16h49.13.554609 +0700,
2,61,0,word/worden0611.png,image/False/imgf61.png,37,37,0,x,0.5643488999994588,None,0,37,37,37,243.0728029999991,,,,,,,244.57975609999994,244.08921909999845,244.09223329999804,244.09223329999804,244.57334690000062,245.68923329999961,245.68923329999961,x,0.5643488999994588,None,,,,,,,,,,,OAT_en,001,2025-03-12_16h49.01.948,MainFlow,2024.2.4,144.0882742398532,2025-03-12 16h49.13.554609 +0700,
2,36,0,word/worden0361.png,image/False/imgf36.png,38,38,0,x,0.6040820000016538,None,0,38,38,38,246.25982099999965,,,,,,,247.76661410000088,247.27407350000067,247.27754819999973,247.27754819999973,247.76030040000114,248.86695999999938,248.86695999999938,x,0.6040820000016538,None,,,,,,,,,,,OAT_en,001,2025-03-12_16h49.01.948,MainFlow,2024.2.4,144.0882742398532,2025-03-12 16h49.13.554609 +0700,
2,10,1,word/worden0101.png,image/True/img10.png,39,39,0,z,0.6578894999984186,None,0,39,39,39,249.48140919999787,,,,,,,250.97405749999962,250.47531199999867,250.47855739999795,250.47855739999795,250.9679028999999,252.08035720000044,252.08035720000044,z,0.6578894999984186,None,252.08035720000044,250.97405749999962,250.97405749999962,,,,,,,,OAT_en,001,2025-03-12_16h49.01.948,MainFlow,2024.2.4,144.0882742398532,2025-03-12 16h49.13.554609 +0700,
2,75,1,word/worden0751.png,image/True/img75.png,40,40,0,z,0.5409449999970093,None,0,40,40,40,252.7448274999988,,,,,,,254.23747129999902,253.74025020000045,253.7436138999983,253.7436138999983,254.23166689999925,255.3511623000013,255.3511623000013,z,0.5409449999970093,None,255.3511623000013,254.23747129999902,254.23747129999902,,,,,,,,OAT_en,001,2025-03-12_16h49.01.948,MainFlow,2024.2.4,144.0882742398532,2025-03-12 16h49.13.554609 +0700,
2,1,1,word/worden0011.png,image/True/img01.png,41,41,0,z,0.4182814000014332,None,0,41,41,41,255.90372779999961,,,,,,,257.3966024000001,256.9020230999995,256.90532149999854,256.90532149999854,257.3910517000004,258.5234206999994,258.5234206999994,z,0.4182814000014332,None,258.5234206999994,257.3966024000001,257.3966024000001,,,,,,,,OAT_en,001,2025-03-12_16h49.01.948,MainFlow,2024.2.4,144.0882742398532,2025-03-12 16h49.13.554609 +0700,
2,37,1,word/worden0371.png,image/True/img37.png,42,42,0,z,0.3537704999980633,None,0,42,42,42,258.9527836999987,,,,,,,260.4588030999985,259.965604099998,259.96902509999927,259.96902509999927,260.45223049999913,261.58482150000054,261.58482150000054,z,0.3537704999980633,None,,,,,,,,,,,OAT_en,001,2025-03-12_16h49.01.948,MainFlow,2024.2.4,144.0882742398532,2025-03-12 16h49.13.554609 +0700,
2,66,0,word/worden0661.png,image/False/imgf66.png,43,43,0,x,0.4973524000015459,None,0,43,43,43,261.9511648000007,,,,,,,263.45082900000125,262.95569009999963,262.9583883999985,262.9583883999985,263.4446648000012,264.5639904999989,264.5639904999989,x,0.4973524000015459,None,,263.45082900000125,263.45082900000125,,,,,,,,OAT_en,001,2025-03-12_16h49.01.948,MainFlow,2024.2.4,144.0882742398532,2025-03-12 16h49.13.554609 +0700,
2,55,1,word/worden0551.png,image/True/img55.png,44,44,0,z,0.4961044000010588,None,0,44,44,44,265.06862139999794,,,,,,,266.575392499999,266.086724599998,266.08986300000106,266.08986300000106,266.56895109999823,267.6908360999987,267.6908360999987,z,0.4961044000010588,None,,,,,,,,,,,OAT_en,001,2025-03-12_16h49.01.948,MainFlow,2024.2.4,144.0882742398532,2025-03-12 16h49.13.554609 +0700,
2,70,0,word/worden0701.png,image/False/imgf70.png,45,45,0,x,0.4694413000033819,None,0,45,45,45,268.19317779999983,,,,,,,269.6999254000002,269.2089037000005,269.21196989999953,269.21196989999953,269.69355359999827,270.7911623,270.7911623,x,0.4694413000033819,None,,,,,,,,,,,OAT_en,001,2025-03-12_16h49.01.948,MainFlow,2024.2.4,144.0882742398532,2025-03-12 16h49.13.554609 +0700,
2,68,0,word/worden0681.png,image/False/imgf68.png,46,46,0,x,0.557246699998359,None,0,46,46,46,271.2687431000013,,,,,,,272.7617989999999,272.2670827000002,272.2699657000012,272.2699657000012,272.75628380000126,273.8440241999997,273.8440241999997,x,0.557246699998359,None,273.8440241999997,272.7617989999999,272.7617989999999,,,,,,,,OAT_en,001,2025-03-12_16h49.01.948,MainFlow,2024.2.4,144.0882742398532,2025-03-12 16h49.13.554609 +0700,
2,75,1,word/worden0751.png,image/True/img75.png,47,47,0,z,0.5120640999994066,None,0,47,47,47,274.41401960000076,,,,,,,275.906855199999,275.4096968999984,275.4131363999986,275.4131363999986,275.90085499999986,277.0208328000008,277.0208328000008,z,0.5120640999994066,None,277.0208328000008,275.906855199999,275.906855199999,,,,,,,,OAT_en,001,2025-03-12_16h49.01.948,MainFlow,2024.2.4,144.0882742398532,2025-03-12 16h49.13.554609 +0700,
2,38,1,word/worden0381.png,image/True/img38.png,48,48,0,z,0.4162650999969628,None,0,48,48,48,277.5453568999983,,,,,,,279.03831450000143,278.5401792999983,278.54347899999993,278.54347899999993,279.0330549999999,280.142710600001,280.142710600001,z,0.4162650999969628,None,280.142710600001,279.03831450000143,279.03831450000143,,,,,,,,OAT_en,001,2025-03-12_16h49.01.948,MainFlow,2024.2.4,144.0882742398532,2025-03-12 16h49.13.554609 +0700,
2,42,1,word/worden0421.png,image/True/img42.png,49,49,0,z,0.5307261999987531,None,0,49,49,49,280.56820479999806,,,,,,,282.05858889999945,281.566021300001,281.56922289999784,281.56922289999784,282.05327770000076,283.17369619999954,283.17369619999954,z,0.5307261999987531,None,283.17369619999954,282.05858889999945,282.05858889999945,,,,,,,,OAT_en,001,2025-03-12_16h49.01.948,MainFlow,2024.2.4,144.0882742398532,2025-03-12 16h49.13.554609 +0700,
2,11,0,word/worden0111.png,image/False/imgf11.png,50,50,0,x,0.6038213000028918,None,0,50,50,50,283.7108956000011,,,,,,,285.21756639999876,284.7288057000005,284.7320742999982,284.7320742999982,285.21108019999883,286.3430535999978,286.3430535999978,x,0.6038213000028918,None,,,,,,,,,,,OAT_en,001,2025-03-12_16h49.01.948,MainFlow,2024.2.4,144.0882742398532,2025-03-12 16h49.13.554609 +0700,
2,41,0,word/worden0411.png,image/False/imgf41.png,51,51,0,x,0.46012440000049537,None,0,51,51,51,286.9535107999982,,,,,,,288.44607950000136,287.9480896999994,287.95145630000115,287.95145630000115,288.4399240999992,289.5244969000014,289.5244969000014,x,0.46012440000049537,None,289.5244969000014,288.44607950000136,288.44607950000136,,,,,,,,OAT_en,001,2025-03-12_16h49.01.948,MainFlow,2024.2.4,144.0882742398532,2025-03-12 16h49.13.554609 +0700,
2,82,1,word/worden0821.png,image/True/img82.png,52,52,0,z,0.4643614999986312,None,0,52,52,52,289.9953757000003,,,,,,,291.5013607000001,291.0081030000001,291.01141220000136,291.01141220000136,291.4949897000006,292.56211729999995,292.56211729999995,z,0.4643614999986312,None,,,,,,,,,,,OAT_en,001,2025-03-12_16h49.01.948,MainFlow,2024.2.4,144.0882742398532,2025-03-12 16h49.13.554609 +0700,
2,88,0,word/worden0881.png,image/False/imgf88.png,53,53,0,x,0.4806876000002376,None,0,53,53,53,293.0354722999982,,,,,,,294.5282483999981,294.0300207,294.0333833000004,294.0333833000004,294.522419500001,295.64749160000065,295.64749160000065,x,0.4806876000002376,None,295.64749160000065,294.5282483999981,294.5282483999981,,,,,,,,OAT_en,001,2025-03-12_16h49.01.948,MainFlow,2024.2.4,144.0882742398532,2025-03-12 16h49.13.554609 +0700,
2,8,1,word/worden0081.png,image/True/img08.png,54,54,0,z,1.1745577999972738,None,0,54,54,54,296.13911519999965,,,,,,,297.6457683999979,297.1569192999996,297.160046099998,297.160046099998,297.63930940000137,298.72346259999904,298.72346259999904,z,1.1745577999972738,None,,,,,,,,,,,OAT_en,001,2025-03-12_16h49.01.948,MainFlow,2024.2.4,144.0882742398532,2025-03-12 16h49.13.554609 +0700,
2,16,0,word/worden0161.png,image/False/imgf16.png,55,55,0,x,0.4369016999989981,None,0,55,55,55,299.9091827000011,,,,,,,301.4019509999998,300.90694679999797,300.9096806999987,300.9096806999987,301.3961635000014,302.51696059999813,302.51696059999813,x,0.4369016999989981,None,302.51696059999813,301.4019509999998,301.4019509999998,,,,,,,,OAT_en,001,2025-03-12_16h49.01.948,MainFlow,2024.2.4,144.0882742398532,2025-03-12 16h49.13.554609 +0700,
2,10,0,word/worden0101.png,image/False/imgf10.png,56,56,0,x,0.4305765999997675,None,0,56,56,56,302.96406260000003,,,,,,,304.4570242000009,303.9618812999979,303.9653306,303.9653306,304.45116829999824,305.57019990000117,305.57019990000117,x,0.4305765999997675,None,305.57019990000117,304.4570242000009,304.4570242000009,,,,,,,,OAT_en,001,2025-03-12_16h49.01.948,MainFlow,2024.2.4,144.0882742398532,2025-03-12 16h49.13.554609 +0700,
2,76,0,word/worden0761.png,image/False/imgf76.png,57,57,0,x,0.4520528999964881,None,0,57,57,57,306.0120461000006,,,,,,,307.50500509999983,307.0124293999979,307.01597929999843,307.01597929999843,307.49975429999904,308.63843160000033,308.63843160000033,x,0.4520528999964881,None,308.63843160000033,307.50500509999983,307.50500509999983,,,,,,,,OAT_en,001,2025-03-12_16h49.01.948,MainFlow,2024.2.4,144.0882742398532,2025-03-12 16h49.13.554609 +0700,
2,42,1,word/worden0421.png,image/True/img42.png,58,58,0,z,1.1319656999985455,None,0,58,58,58,309.10176219999994,,,,,,,310.60850709999795,310.111288600001,310.1154801999983,310.1154801999983,310.60206969999854,311.7134980999981,311.7134980999981,z,1.1319656999985455,None,,,,,,,,,,,OAT_en,001,2025-03-12_16h49.01.948,MainFlow,2024.2.4,144.0882742398532,2025-03-12 16h49.13.554609 +0700,
2,26,0,word/worden0261.png,image/False/imgf26.png,59,59,0,x,0.573483700001816,None,0,59,59,59,312.8512468000008,,,,,,,314.35785150000083,313.8703080999985,313.8736523999978,313.8736523999978,314.35135810000065,315.4904251000007,315.4904251000007,x,0.573483700001816,None,,,,,,,,,,,OAT_en,001,2025-03-12_16h49.01.948,MainFlow,2024.2.4,144.0882742398532,2025-03-12 16h49.13.554609 +0700,
2,26,1,word/worden0261.png,image/True/img26.png,60,60,0,z,0.4586364999995567,None,0,60,60,60,316.07326359999934,,,,,,,317.56530510000084,317.0716079999984,317.07487670000046,317.07487670000046,317.55913520000104,318.6970089999995,318.6970089999995,z,0.4586364999995567,None,318.6970089999995,317.56530510000084,317.56530510000084,,,,,,,,OAT_en,001,2025-03-12_16h49.01.948,MainFlow,2024.2.4,144.0882742398532,2025-03-12 16h49.13.554609 +0700,
2,48,1,word/worden0481.png,image/True/img48.png,61,61,0,z,0.5549883999992744,None,0,61,61,61,319.1623494000014,,,,,,,320.66934219999894,320.1838107000003,320.18721709999954,320.18721709999954,320.66274949999934,321.77903499999957,321.77903499999957,z,0.5549883999992744,None,,,,,,,,,,,OAT_en,001,2025-03-12_16h49.01.948,MainFlow,2024.2.4,144.0882742398532,2025-03-12 16h49.13.554609 +0700,
2,71,0,word/worden0711.png,image/False/imgf71.png,62,62,0,x,0.4622921000009228,None,0,62,62,62,322.3422572999989,,,,,,,323.8420554000004,323.3483032000004,323.35106689999884,323.35106689999884,323.83618569999817,324.96983829999954,324.96983829999954,x,0.4622921000009228,None,,323.8420554000004,323.8420554000004,,,,,,,,OAT_en,001,2025-03-12_16h49.01.948,MainFlow,2024.2.4,144.0882742398532,2025-03-12 16h49.13.554609 +0700,
2,93,1,word/worden0931.png,image/True/img93.png,63,63,0,z,0.4089633000003232,None,0,63,63,63,325.44173450000017,,,,,,,326.9387500999983,326.4428248000004,326.446068199999,326.446068199999,326.93314180000016,328.03383029999895,328.03383029999895,z,0.4089633000003232,None,328.03383029999895,326.9387500999983,326.9387500999983,,,,,,,,OAT_en,001,2025-03-12_16h49.01.948,MainFlow,2024.2.4,144.0882742398532,2025-03-12 16h49.13.554609 +0700,
2,51,1,word/worden0511.png,image/True/img51.png,64,64,0,z,0.22498029999769642,None,0,64,64,64,328.4539657999994,,,,,,,329.9451509999999,329.4478718999999,329.45143459999963,329.45143459999963,329.93918190000113,331.0602488000004,331.0602488000004,z,0.22498029999769642,None,331.0602488000004,329.9451509999999,329.9451509999999,,,,,,,,OAT_en,001,2025-03-12_16h49.01.948,MainFlow,2024.2.4,144.0882742398532,2025-03-12 16h49.13.554609 +0700,
2,78,0,word/worden0781.png,image/False/imgf78.png,65,65,0,x,0.4936330000018643,None,0,65,65,65,331.2919097999984,,,,,,,332.77796820000003,332.282140299998,332.2849829000006,332.2849829000006,332.77193439999974,333.8662426999981,333.8662426999981,x,0.4936330000018643,None,333.8662426999981,332.77796820000003,332.77796820000003,,,,,,,,OAT_en,001,2025-03-12_16h49.01.948,MainFlow,2024.2.4,144.0882742398532,2025-03-12 16h49.13.554609 +0700,
2,64,0,word/worden0641.png,image/False/imgf64.png,66,66,0,x,0.40817949999836856,None,0,66,66,66,334.3676172000014,,,,,,,335.86069099999804,335.36683149999953,335.37027229999876,335.37027229999876,335.8549810000004,336.9378719999986,336.9378719999986,x,0.40817949999836856,None,336.9378719999986,335.86069099999804,335.86069099999804,,,,,,,,OAT_en,001,2025-03-12_16h49.01.948,MainFlow,2024.2.4,144.0882742398532,2025-03-12 16h49.13.554609 +0700,
2,68,1,word/worden0681.png,image/True/img68.png,67,67,0,z,0.367597399999795,None,0,67,67,67,337.3532278999992,,,,,,,338.8390713000008,338.3400122999992,338.3426808000004,338.3426808000004,338.82630100000097,339.9214982000012,339.9214982000012,z,0.367597399999795,None,339.9214982000012,338.8320872000004,338.8320872000004,,,,,,,,OAT_en,001,2025-03-12_16h49.01.948,MainFlow,2024.2.4,144.0882742398532,2025-03-12 16h49.13.554609 +0700,
2,57,0,word/worden0571.png,image/False/imgf57.png,68,68,0,x,0.448121400000673,None,0,68,68,68,340.2970896000006,,,,,,,341.7968913000004,341.3023656000005,341.3059018999993,341.3059018999993,341.7910281000004,342.9088742999993,342.9088742999993,x,0.448121400000673,None,,341.7968913000004,341.7968913000004,,,,,,,,OAT_en,001,2025-03-12_16h49.01.948,MainFlow,2024.2.4,144.0882742398532,2025-03-12 16h49.13.554609 +0700,
2,31,0,word/worden0311.png,image/False/imgf31.png,69,69,0,x,0.4781202999984089,None,0,69,69,69,343.3712083999999,,,,,,,344.8729905,344.3783764,344.3815015,344.3815015,344.86663340000086,345.9297007999994,345.9297007999994,x,0.4781202999984089,None,,,,,,,,,,,OAT_en,001,2025-03-12_16h49.01.948,MainFlow,2024.2.4,144.0882742398532,2025-03-12 16h49.13.554609 +0700,
2,31,0,word/worden0311.png,image/False/imgf31.png,70,70,0,x,0.40148369999951683,None,0,70,70,70,346.4154740999984,,,,,,,347.91390690000117,347.41501349999817,347.41834879999806,347.41834879999806,347.9086070000012,348.9892623000014,348.9892623000014,x,0.40148369999951683,None,348.9892623000014,347.91390690000117,347.91390690000117,,,,,,,,OAT_en,001,2025-03-12_16h49.01.948,MainFlow,2024.2.4,144.0882742398532,2025-03-12 16h49.13.554609 +0700,
2,55,1,word/worden0551.png,image/True/img55.png,71,71,0,z,0.5224782999976014,None,0,71,71,71,349.399525599998,,,,,,,350.89221030000044,350.3939309999987,350.3972075999991,350.3972075999991,350.88607299999785,352.0168328,352.0168328,z,0.5224782999976014,None,352.0168328,350.89221030000044,350.89221030000044,,,,,,,,OAT_en,001,2025-03-12_16h49.01.948,MainFlow,2024.2.4,144.0882742398532,2025-03-12 16h49.13.554609 +0700,
2,36,1,word/worden0361.png,image/True/img36.png,72,72,0,z,0.6851615000014135,None,0,72,72,72,352.5450443000009,,,,,,,354.0376510999995,353.54233999999997,353.54561269999977,353.54561269999977,354.03191779999906,355.12429979999797,355.12429979999797,z,0.6851615000014135,None,355.12429979999797,354.0376510999995,354.0376510999995,,,,,,,,OAT_en,001,2025-03-12_16h49.01.948,MainFlow,2024.2.4,144.0882742398532,2025-03-12 16h49.13.554609 +0700,
2,8,0,word/worden0081.png,image/False/imgf08.png,73,73,0,x,0.38879610000003595,None,0,73,73,73,355.82194099999833,,,,,,,357.3147503,356.81585559999803,356.81937019999896,356.81937019999896,357.3095195999995,358.40974709999864,358.40974709999864,x,0.38879610000003595,None,358.40974709999864,357.3147503,357.3147503,,,,,,,,OAT_en,001,2025-03-12_16h49.01.948,MainFlow,2024.2.4,144.0882742398532,2025-03-12 16h49.13.554609 +0700,
2,82,0,word/worden0821.png,image/False/imgf82.png,74,74,0,x,0.45596609999847715,None,0,74,74,74,358.8074067999987,,,,,,,360.30045809999865,359.8024970000006,359.80581299999903,359.80581299999903,360.2943317999998,361.4124029000013,361.4124029000013,x,0.45596609999847715,None,361.4124029000013,360.30045809999865,360.30045809999865,,,,,,,,OAT_en,001,2025-03-12_16h49.01.948,MainFlow,2024.2.4,144.0882742398532,2025-03-12 16h49.13.554609 +0700,
2,14,0,word/worden0141.png,image/False/imgf14.png,75,75,0,x,0.7133943000008003,None,0,75,75,75,361.8779359,,,,,,,363.37590980000095,362.8792270999984,362.88275799999974,362.88275799999974,363.3697571999983,364.48702349999803,364.48702349999803,x,0.7133943000008003,None,,363.37590980000095,363.37590980000095,,,,,,,,OAT_en,001,2025-03-12_16h49.01.948,MainFlow,2024.2.4,144.0882742398532,2025-03-12 16h49.13.554609 +0700,
2,71,1,word/worden0711.png,image/True/img71.png,76,76,0,z,0.6035578999981226,None,0,76,76,76,365.2102516999985,,,,,,,366.7019173999979,366.20711179999853,366.2104227999989,366.2104227999989,366.69653819999803,367.83524789999865,367.83524789999865,z,0.6035578999981226,None,367.83524789999865,366.7019173999979,366.7019173999979,,,,,,,,OAT_en,001,2025-03-12_16h49.01.948,MainFlow,2024.2.4,144.0882742398532,2025-03-12 16h49.13.554609 +0700,
2,22,0,word/worden0221.png,image/False/imgf22.png,77,77,0,x,0.4745702000000165,None,0,77,77,77,368.45148309999786,,,,,,,369.9513361999998,369.4554814000003,369.45819389999815,369.45819389999815,369.9459347000011,371.0758414999982,371.0758414999982,x,0.4745702000000165,None,,369.9513361999998,369.9513361999998,,,,,,,,OAT_en,001,2025-03-12_16h49.01.948,MainFlow,2024.2.4,144.0882742398532,2025-03-12 16h49.13.554609 +0700,
2,78,1,word/worden0781.png,image/True/img78.png,78,78,0,z,0.35765519999768003,None,0,78,78,78,371.56191200000103,,,,,,,373.0547450999984,372.5614319999986,372.56491129999995,372.56491129999995,373.0495809999993,374.1667888000011,374.1667888000011,z,0.35765519999768003,None,374.1667888000011,373.0547450999984,373.0547450999984,,,,,,,,OAT_en,001,2025-03-12_16h49.01.948,MainFlow,2024.2.4,144.0882742398532,2025-03-12 16h49.13.554609 +0700,
2,51,0,word/worden0511.png,image/False/imgf51.png,79,79,0,x,0.44811480000134907,None,0,79,79,79,374.5334938999986,,,,,,,376.03356239999994,375.5350217999985,375.53860709999935,375.53860709999935,376.0282582,377.13422730000093,377.13422730000093,x,0.44811480000134907,None,,376.03356239999994,376.03356239999994,,,,,,,,OAT_en,001,2025-03-12_16h49.01.948,MainFlow,2024.2.4,144.0882742398532,2025-03-12 16h49.13.554609 +0700,
2,56,1,word/worden0561.png,image/True/img56.png,80,80,0,z,0.7453600000008009,None,0,80,80,80,377.5905013999982,,,,,,,379.09525589999976,378.6070799000008,378.61028330000045,378.61028330000045,379.0888116999995,380.18090550000124,380.18090550000124,z,0.7453600000008009,None,,,,,,,,,,,OAT_en,001,2025-03-12_16h49.01.948,MainFlow,2024.2.4,144.0882742398532,2025-03-12 16h49.13.554609 +0700,
2,60,1,word/worden0601.png,image/True/img60.png,81,81,0,z,0.39855009999882895,None,0,81,81,81,380.93500380000114,,,,,,,382.4418250999988,381.949206199999,381.9525437000011,381.9525437000011,382.4354276999984,383.5327260999984,383.5327260999984,z,0.39855009999882895,None,,,,,,,,,,,OAT_en,001,2025-03-12_16h49.01.948,MainFlow,2024.2.4,144.0882742398532,2025-03-12 16h49.13.554609 +0700,
2,96,0,word/worden0961.png,image/False/imgf96.png,82,82,0,z,0.43420100000003004,None,0,82,82,82,383.94156609999845,,,,,,,385.4342660000002,384.9416013000009,384.9448971999991,384.9448971999991,385.42845699999816,386.5568944000006,386.5568944000006,z,0.43420100000003004,None,386.5568944000006,385.4342660000002,385.4342660000002,,,,,,,,OAT_en,001,2025-03-12_16h49.01.948,MainFlow,2024.2.4,144.0882742398532,2025-03-12 16h49.13.554609 +0700,
2,3,0,word/worden0031.png,image/False/imgf03.png,83,83,0,x,0.5593217999994522,None,0,83,83,83,387.003332100001,,,,,,,388.5031780999998,388.0049661000012,388.00861390000136,388.00861390000136,388.4973065999984,389.60641340000075,389.60641340000075,x,0.5593217999994522,None,,388.5031780999998,388.5031780999998,,,,,,,,OAT_en,001,2025-03-12_16h49.01.948,MainFlow,2024.2.4,144.0882742398532,2025-03-12 16h49.13.554609 +0700,
2,55,0,word/worden0551.png,image/False/imgf55.png,84,84,0,x,0.7657233999998425,None,0,84,84,84,390.1763800999979,,,,,,,391.6694079000008,391.17156109999996,391.1749310999985,391.1749310999985,391.6636593000003,392.7698926000012,392.7698926000012,x,0.7657233999998425,None,392.7698926000012,391.6694079000008,391.6694079000008,,,,,,,,OAT_en,001,2025-03-12_16h49.01.948,MainFlow,2024.2.4,144.0882742398532,2025-03-12 16h49.13.554609 +0700,
2,71,1,word/worden0711.png,image/True/img71.png,85,85,0,z,0.4734478999998828,None,0,85,85,85,393.5437227000002,,,,,,,395.03675029999795,394.53798689999894,394.541258199999,394.541258199999,395.03133909999815,396.1588018000002,396.1588018000002,z,0.4734478999998828,None,396.1588018000002,395.03675029999795,395.03675029999795,,,,,,,,OAT_en,001,2025-03-12_16h49.01.948,MainFlow,2024.2.4,144.0882742398532,2025-03-12 16h49.13.554609 +0700,
2,3,1,word/worden0031.png,image/True/img03.png,86,86,0,z,0.6938221999989764,None,0,86,86,86,396.6404345999981,,,,,,,398.133214999998,397.64070340000035,397.6441855999983,397.6441855999983,398.12740180000037,399.251694999999,399.251694999999,z,0.6938221999989764,None,399.251694999999,398.133214999998,398.133214999998,,,,,,,,OAT_en,001,2025-03-12_16h49.01.948,MainFlow,2024.2.4,144.0882742398532,2025-03-12 16h49.13.554609 +0700,
2,52,1,word/worden0521.png,image/True/img52.png,87,87,0,z,0.5669444999984989,None,0,87,87,87,399.95232730000134,,,,,,,401.43818979999924,400.9395245000014,400.94220349999887,400.94220349999887,401.4260967000009,402.5589602,402.5589602,z,0.5669444999984989,None,402.5589602,401.4312538999984,401.4312538999984,,,,,,,,OAT_en,001,2025-03-12_16h49.01.948,MainFlow,2024.2.4,144.0882742398532,2025-03-12 16h49.13.554609 +0700,
2,95,0,word/worden0951.png,image/False/imgf95.png,88,88,0,x,0.61229430000094,None,0,88,88,88,403.1321237999982,,,,,,,404.63208440000017,404.134010400001,404.13781279999967,404.13781279999967,404.6262883999989,405.75298570000086,405.75298570000086,x,0.61229430000094,None,,404.63208440000017,404.63208440000017,,,,,,,,OAT_en,001,2025-03-12_16h49.01.948,MainFlow,2024.2.4,144.0882742398532,2025-03-12 16h49.13.554609 +0700,
2,6,0,word/worden0061.png,image/False/imgf06.png,89,89,0,x,0.574293800000305,None,0,89,89,89,406.3745678000014,,,,,,,407.87442680000095,407.3781209999979,407.38182439999946,407.38182439999946,407.86867789999815,408.9676236000014,408.9676236000014,x,0.574293800000305,None,,407.87442680000095,407.87442680000095,,,,,,,,OAT_en,001,2025-03-12_16h49.01.948,MainFlow,2024.2.4,144.0882742398532,2025-03-12 16h49.13.554609 +0700,
2,79,1,word/worden0791.png,image/True/img79.png,90,90,0,z,0.3742058999996516,None,0,90,90,90,409.5497929000012,,,,,,,411.05432089999886,410.57495740000013,410.57805949999965,410.57805949999965,411.04808200000116,412.16567049999867,412.16567049999867,z,0.3742058999996516,None,410.57805949999965,,,,,,,,,,OAT_en,001,2025-03-12_16h49.01.948,MainFlow,2024.2.4,144.0882742398532,2025-03-12 16h49.13.554609 +0700,
2,61,0,word/worden0611.png,image/False/imgf61.png,91,91,0,x,0.585436800000025,None,0,91,91,91,412.5471465999981,,,,,,,414.0468019,413.5490146999982,413.5525056000006,413.5525056000006,414.0408845999991,415.1677610000006,415.1677610000006,x,0.585436800000025,None,,414.0468019,414.0468019,,,,,,,,OAT_en,001,2025-03-12_16h49.01.948,MainFlow,2024.2.4,144.0882742398532,2025-03-12 16h49.13.554609 +0700,
2,46,0,word/worden0461.png,image/False/imgf46.png,92,92,0,x,0.4546269999991637,None,0,92,92,92,415.7617204999988,,,,,,,417.26851969999916,416.7780536999999,416.7813740999991,416.7813740999991,417.26194530000066,418.4002376999997,418.4002376999997,x,0.4546269999991637,None,,,,,,,,,,,OAT_en,001,2025-03-12_16h49.01.948,MainFlow,2024.2.4,144.0882742398532,2025-03-12 16h49.13.554609 +0700,
2,89,1,word/worden0891.png,image/True/img89.png,93,93,0,z,0.46996710000166786,None,0,93,93,93,418.8652570999984,,,,,,,420.3720241999981,419.8829679999981,419.8872401000008,419.8872401000008,420.3657639999983,421.45182379999824,421.45182379999824,z,0.46996710000166786,None,,,,,,,,,,,OAT_en,001,2025-03-12_16h49.01.948,MainFlow,2024.2.4,144.0882742398532,2025-03-12 16h49.13.554609 +0700,
2,26,0,word/worden0261.png,image/False/imgf26.png,94,94,0,x,0.552270000000135,None,0,94,94,94,421.93400230000043,,,,,,,423.4270077000001,422.928759800001,422.93205020000096,422.93205020000096,423.42148349999843,424.565857900001,424.565857900001,x,0.552270000000135,None,424.565857900001,423.4270077000001,423.4270077000001,,,,,,,,OAT_en,001,2025-03-12_16h49.01.948,MainFlow,2024.2.4,144.0882742398532,2025-03-12 16h49.13.554609 +0700,
2,44,0,word/worden0441.png,image/False/imgf44.png,95,95,0,x,0.12530190000325092,None,0,95,95,95,425.12798399999883,,,,,,,426.6208583999978,426.1236495999983,426.1268321999996,426.1268321999996,426.6155027999994,427.74735560000045,427.74735560000045,x,0.12530190000325092,None,427.74735560000045,426.6208583999978,426.6208583999978,,,,,,,,OAT_en,001,2025-03-12_16h49.01.948,MainFlow,2024.2.4,144.0882742398532,2025-03-12 16h49.13.554609 +0700,
2,82,1,word/worden0821.png,image/True/img82.png,96,96,0,z,0.4008009999997739,None,0,96,96,96,427.8848001000006,,,,,,,429.3771145999999,428.87958419999995,428.88282679999975,428.88282679999975,429.3713108999982,430.45995960000073,430.45995960000073,z,0.4008009999997739,None,430.45995960000073,429.3771145999999,429.3771145999999,,,,,,,,OAT_en,001,2025-03-12_16h49.01.948,MainFlow,2024.2.4,144.0882742398532,2025-03-12 16h49.13.554609 +0700,
2,16,1,word/worden0161.png,image/True/img16.png,97,97,0,z,0.2819657999971241,None,0,97,97,97,430.86989189999804,,,,,,,432.3627744000005,431.86696839999786,431.8703518000002,431.8703518000002,432.3570484000011,433.48583979999967,433.48583979999967,z,0.2819657999971241,None,433.48583979999967,432.3627744000005,432.3627744000005,,,,,,,,OAT_en,001,2025-03-12_16h49.01.948,MainFlow,2024.2.4,144.0882742398532,2025-03-12 16h49.13.554609 +0700,
2,20,1,word/worden0201.png,image/True/img20.png,98,98,0,z,0.399216300000262,None,0,98,98,98,433.7795421999981,,,,,,,435.2857148000003,434.7917735999981,434.79505939999945,434.79505939999945,435.2793109999984,436.397351399999,436.397351399999,z,0.399216300000262,None,,,,,,,,,,,OAT_en,001,2025-03-12_16h49.01.948,MainFlow,2024.2.4,144.0882742398532,2025-03-12 16h49.13.554609 +0700,
2,20,1,word/worden0201.png,image/True/img20.png,99,99,0,z,0.4419582000009541,None,0,99,99,99,436.80623840000044,,,,,,,438.29886239999905,437.80188389999967,437.80515709999963,437.80515709999963,438.29264519999924,439.42329020000034,439.42329020000034,z,0.4419582000009541,None,439.42329020000034,438.29886239999905,438.29886239999905,,,,,,,,OAT_en,001,2025-03-12_16h49.01.948,MainFlow,2024.2.4,144.0882742398532,2025-03-12 16h49.13.554609 +0700,
2,96,1,word/worden0961.png,image/True/img96.png,100,100,0,z,0.517395700000634,None,0,100,100,100,439.87513879999824,,,,,,,441.3749475000004,440.8788018999985,440.8824280999979,440.8824280999979,441.36959529999876,442.4965938999994,442.4965938999994,z,0.517395700000634,None,,441.3749475000004,441.3749475000004,,,,,,,,OAT_en,001,2025-03-12_16h49.01.948,MainFlow,2024.2.4,144.0882742398532,2025-03-12 16h49.13.554609 +0700,
2,64,1,word/worden0641.png,image/True/img64.png,101,101,0,z,0.4219484999994165,None,0,101,101,101,443.0203485999991,,,,,,,444.51322749999963,444.0149409000005,444.0184799999988,444.0184799999988,444.5074581999979,445.59685700000045,445.59685700000045,z,0.4219484999994165,None,445.59685700000045,444.51322749999963,444.51322749999963,,,,,,,,OAT_en,001,2025-03-12_16h49.01.948,MainFlow,2024.2.4,144.0882742398532,2025-03-12 16h49.13.554609 +0700,
2,78,0,word/worden0781.png,image/False/imgf78.png,102,102,0,x,0.48664450000069337,None,0,102,102,102,446.0267297999999,,,,,,,447.51954829999886,447.02379780000047,447.02718470000036,447.02718470000036,447.5138679999982,448.61605789999885,448.61605789999885,x,0.48664450000069337,None,448.61605789999885,447.51954829999886,447.51954829999886,,,,,,,,OAT_en,001,2025-03-12_16h49.01.948,MainFlow,2024.2.4,144.0882742398532,2025-03-12 16h49.13.554609 +0700,
2,20,0,word/worden0201.png,image/False/imgf20.png,103,103,0,x,0.558391999999003,None,0,103,103,103,449.1095232000007,,,,,,,450.602285500001,450.10414160000073,450.10743569999977,450.10743569999977,450.5969780000014,451.7447092000002,451.7447092000002,x,0.558391999999003,None,451.7447092000002,450.602285500001,450.602285500001,,,,,,,,OAT_en,001,2025-03-12_16h49.01.948,MainFlow,2024.2.4,144.0882742398532,2025-03-12 16h49.13.554609 +0700,
2,89,1,word/worden0891.png,image/True/img89.png,104,104,0,z,0.7173656999984814,None,0,104,104,104,452.31028719999813,,,,,,,453.8100068999993,453.31084719999853,453.314239299998,453.314239299998,453.80425000000105,454.89681779999955,454.89681779999955,z,0.7173656999984814,None,,453.8100068999993,453.8100068999993,,,,,,,,OAT_en,001,2025-03-12_16h49.01.948,MainFlow,2024.2.4,144.0882742398532,2025-03-12 16h49.13.554609 +0700,
2,59,0,word/worden0591.png,image/False/imgf59.png,105,105,0,x,0.6595591000004788,None,0,105,105,105,455.6221738999993,,,,,,,457.11480289999963,456.6202994000014,456.62341970000125,456.62341970000125,457.1093089999995,458.201008,458.201008,x,0.6595591000004788,None,458.201008,457.11480289999963,457.11480289999963,,,,,,,,OAT_en,001,2025-03-12_16h49.01.948,MainFlow,2024.2.4,144.0882742398532,2025-03-12 16h49.13.554609 +0700,
2,24,0,word/worden0241.png,image/False/imgf24.png,106,106,0,x,0.46644710000327905,None,0,106,106,106,458.87147299999924,,,,,,,460.37823809999827,459.8875541999987,459.8910125000002,459.8910125000002,460.3719072999993,461.4688857000001,461.4688857000001,x,0.46644710000327905,None,,,,,,,,,,,OAT_en,001,2025-03-12_16h49.01.948,MainFlow,2024.2.4,144.0882742398532,2025-03-12 16h49.13.554609 +0700,
2,28,0,word/worden0281.png,image/False/imgf28.png,107,107,0,z,0.4235385000029055,None,0,107,107,107,461.9490326000014,,,,,,,463.44690379999884,462.94956770000135,462.9529156999997,462.9529156999997,463.4413347000009,464.553611299998,464.553611299998,z,0.4235385000029055,None,464.553611299998,463.44690379999884,463.44690379999884,,,,,,,,OAT_en,001,2025-03-12_16h49.01.948,MainFlow,2024.2.4,144.0882742398532,2025-03-12 16h49.13.554609 +0700,
2,15,0,word/worden0151.png,image/False/imgf15.png,108,108,0,x,0.5487144000035187,None,0,108,108,108,464.98829099999784,,,,,,,466.49498409999796,466.0022080999988,466.0052947000004,466.0052947000004,466.4888233999991,467.57817649999924,467.57817649999924,x,0.5487144000035187,None,,,,,,,,,,,OAT_en,001,2025-03-12_16h49.01.948,MainFlow,2024.2.4,144.0882742398532,2025-03-12 16h49.13.554609 +0700,
2,30,1,word/worden0301.png,image/True/img30.png,109,109,0,z,0.531899000001431,None,0,109,109,109,468.1359526999986,,,,,,,469.64029989999835,469.1477300000006,469.15104169999904,469.15104169999904,469.63406140000006,470.73135959999854,470.73135959999854,z,0.531899000001431,None,,,,,,,,,,,OAT_en,001,2025-03-12_16h49.01.948,MainFlow,2024.2.4,144.0882742398532,2025-03-12 16h49.13.554609 +0700,
2,64,1,word/worden0641.png,image/True/img64.png,110,110,0,z,0.46536230000128853,None,0,110,110,110,471.2718222000003,,,,,,,472.7645918999988,472.27121070000067,472.2747507999993,472.2747507999993,472.75940009999977,473.853766799999,473.853766799999,z,0.46536230000128853,None,473.853766799999,472.7645918999988,472.7645918999988,,,,,,,,OAT_en,001,2025-03-12_16h49.01.948,MainFlow,2024.2.4,144.0882742398532,2025-03-12 16h49.13.554609 +0700,
2,52,0,word/worden0521.png,image/False/imgf52.png,111,111,0,z,0.4296186999999918,None,0,111,111,111,474.32671029999983,,,,,,,475.81250100000034,475.3187390999992,475.32151560000057,475.32151560000057,475.80634759999884,476.9133761000012,476.9133761000012,z,0.4296186999999918,None,476.9133761000012,475.81250100000034,475.81250100000034,,,,,,,,OAT_en,001,2025-03-12_16h49.01.948,MainFlow,2024.2.4,144.0882742398532,2025-03-12 16h49.13.554609 +0700,
2,33,1,word/worden0331.png,image/True/img33.png,112,112,0,z,0.4894118000011076,None,0,112,112,112,477.3538655000011,,,,,,,478.8467075000008,478.35268599999836,478.3559529000013,478.3559529000013,478.84119680000003,479.968413300001,479.968413300001,z,0.4894118000011076,None,479.968413300001,478.8467075000008,478.8467075000008,,,,,,,,OAT_en,001,2025-03-12_16h49.01.948,MainFlow,2024.2.4,144.0882742398532,2025-03-12 16h49.13.554609 +0700,
2,23,1,word/worden0231.png,image/True/img23.png,113,113,0,z,0.42108169999846723,None,0,113,113,113,480.46457179999925,,,,,,,481.95716529999845,481.4623791000013,481.46565270000065,481.46565270000065,481.951367499998,483.06963729999916,483.06963729999916,z,0.42108169999846723,None,483.06963729999916,481.95716529999845,481.95716529999845,,,,,,,,OAT_en,001,2025-03-12_16h49.01.948,MainFlow,2024.2.4,144.0882742398532,2025-03-12 16h49.13.554609 +0700,
2,11,1,word/worden0111.png,image/True/img11.png,114,114,0,z,0.4477358000003733,None,0,114,114,114,483.4997328999998,,,,,,,484.99138239999957,484.4943194000007,484.4977776000014,484.4977776000014,484.98581130000093,486.1306302000012,486.1306302000012,z,0.4477358000003733,None,486.1306302000012,484.99138239999957,484.99138239999957,,,,,,,,OAT_en,001,2025-03-12_16h49.01.948,MainFlow,2024.2.4,144.0882742398532,2025-03-12 16h49.13.554609 +0700,
2,22,1,word/worden0221.png,image/True/img22.png,115,115,0,z,0.5233149000014237,None,0,115,115,115,486.5883200999997,,,,,,,488.08804769999915,487.5891699999993,487.5928658999983,487.5928658999983,488.08224960000007,489.22553640000115,489.22553640000115,z,0.5233149000014237,None,,488.08804769999915,488.08804769999915,,,,,,,,OAT_en,001,2025-03-12_16h49.01.948,MainFlow,2024.2.4,144.0882742398532,2025-03-12 16h49.13.554609 +0700,
2,37,0,word/worden0371.png,image/False/imgf37.png,116,116,0,z,0.46850040000208537,None,0,116,116,116,489.7611907999999,,,,,,,491.2540537999994,490.7613874999988,490.76504990000103,490.76504990000103,491.2482401999987,492.4070580000007,492.4070580000007,z,0.46850040000208537,None,492.4070580000007,491.2540537999994,491.2540537999994,,,,,,,,OAT_en,001,2025-03-12_16h49.01.948,MainFlow,2024.2.4,144.0882742398532,2025-03-12 16h49.13.554609 +0700,
2,79,0,word/worden0791.png,image/False/imgf79.png,117,117,0,x,0.6213172999996459,None,0,117,117,117,492.88682999999946,,,,,,,494.3716491999985,493.8730227999986,493.8758057999985,493.8758057999985,494.3663109000008,495.499582299999,495.499582299999,x,0.6213172999996459,None,495.499582299999,494.3716491999985,494.3716491999985,,,,,,,,OAT_en,001,2025-03-12_16h49.01.948,MainFlow,2024.2.4,144.0882742398532,2025-03-12 16h49.13.554609 +0700,
2,56,1,word/worden0561.png,image/True/img56.png,118,118,0,z,0.5019227000011597,None,0,118,118,118,496.12811689999944,,,,,,,497.62781859999814,497.1296485999992,497.13326640000014,497.13326640000014,497.621946700001,498.72462950000045,498.72462950000045,z,0.5019227000011597,None,,497.62781859999814,497.62781859999814,,,,,,,,OAT_en,001,2025-03-12_16h49.01.948,MainFlow,2024.2.4,144.0882742398532,2025-03-12 16h49.13.554609 +0700,
2,68,1,word/worden0681.png,image/True/img68.png,119,119,0,z,0.4608492000006663,None,0,119,119,119,499.23871979999967,,,,,,,500.73121909999827,500.23607919999995,500.23965509999834,500.23965509999834,500.72506019999855,501.8116721000006,501.8116721000006,z,0.4608492000006663,None,501.8116721000006,500.73121909999827,500.73121909999827,,,,,,,,OAT_en,001,2025-03-12_16h49.01.948,MainFlow,2024.2.4,144.0882742398532,2025-03-12 16h49.13.554609 +0700,
2,27,0,word/worden0271.png,image/False/imgf27.png,120,120,0,x,0.521944899999653,None,0,120,120,120,502.279692600001,,,,,,,503.77264699999796,503.2746463000003,503.2782721000003,503.2782721000003,503.7674760000009,504.88408569999956,504.88408569999956,x,0.521944899999653,None,504.88408569999956,503.77264699999796,503.77264699999796,,,,,,,,OAT_en,001,2025-03-12_16h49.01.948,MainFlow,2024.2.4,144.0882742398532,2025-03-12 16h49.13.554609 +0700,
2,3,1,word/worden0031.png,image/True/img03.png,121,121,0,z,0.44193430000086664,None,0,121,121,121,505.41802219999954,,,,,,,506.9106991000008,506.4165847000004,506.4199019999978,506.4199019999978,506.9047009999995,508.01877969999987,508.01877969999987,z,0.44193430000086664,None,508.01877969999987,506.9106991000008,506.9106991000008,,,,,,,,OAT_en,001,2025-03-12_16h49.01.948,MainFlow,2024.2.4,144.0882742398532,2025-03-12 16h49.13.554609 +0700,
2,38,0,word/worden0381.png,image/False/imgf38.png,122,122,0,x,0.671840400002111,None,0,122,122,122,508.47299009999915,,,,,,,509.9587260999979,509.46398659999977,509.46674559999883,509.46674559999883,509.95273670000097,511.1011776000014,511.1011776000014,x,0.671840400002111,None,511.1011776000014,509.9587260999979,509.9587260999979,,,,,,,,OAT_en,001,2025-03-12_16h49.01.948,MainFlow,2024.2.4,144.0882742398532,2025-03-12 16h49.13.554609 +0700,
2,59,1,word/worden0591.png,image/True/img59.png,123,123,0,z,0.4918536999975913,None,0,123,123,123,511.7849234999994,,,,,,,513.2773798999988,512.7800702999994,512.7835439999981,512.7835439999981,513.2712259,514.3699018000007,514.3699018000007,z,0.4918536999975913,None,514.3699018000007,513.2773798999988,513.2773798999988,,,,,,,,OAT_en,001,2025-03-12_16h49.01.948,MainFlow,2024.2.4,144.0882742398532,2025-03-12 16h49.13.554609 +0700,
2,18,1,word/worden0181.png,image/True/img18.png,124,124,0,z,0.4128707000018039,None,0,124,124,124,514.8744402000011,,,,,,,516.3813898000008,515.8912650999991,515.8942704000001,515.8942704000001,516.3751459000014,517.4517792000006,517.4517792000006,z,0.4128707000018039,None,,,,,,,,,,,OAT_en,001,2025-03-12_16h49.01.948,MainFlow,2024.2.4,144.0882742398532,2025-03-12 16h49.13.554609 +0700,
2,60,1,word/worden0601.png,image/True/img60.png,125,125,0,z,0.5203803000003973,None,0,125,125,125,517.8738689999991,,,,,,,519.366670899999,518.8723207000003,518.8756942,518.8756942,519.3608113000009,520.4868207,520.4868207,z,0.5203803000003973,None,520.4868207,519.366670899999,519.366670899999,,,,,,,,OAT_en,001,2025-03-12_16h49.01.948,MainFlow,2024.2.4,144.0882742398532,2025-03-12 16h49.13.554609 +0700,
2,9,1,word/worden0091.png,image/True/img09.png,126,126,0,z,0.6529811000000336,None,0,126,126,126,521.0192781000005,,,,,,,522.5258319999994,522.0312736999986,522.034596999998,522.034596999998,522.5198490000002,523.5855852999994,523.5855852999994,z,0.6529811000000336,None,,,,,,,,,,,OAT_en,001,2025-03-12_16h49.01.948,MainFlow,2024.2.4,144.0882742398532,2025-03-12 16h49.13.554609 +0700,
2,9,0,word/worden0091.png,image/False/imgf09.png,127,127,0,x,0.4568418000017118,None,0,127,127,127,524.247781099999,,,,,,,525.7402514999994,525.2430290000011,525.2463075000014,525.2463075000014,525.7341363999985,526.8237077999984,526.8237077999984,x,0.4568418000017118,None,526.8237077999984,525.7402514999994,525.7402514999994,,,,,,,,OAT_en,001,2025-03-12_16h49.01.948,MainFlow,2024.2.4,144.0882742398532,2025-03-12 16h49.13.554609 +0700,
2,94,0,word/worden0941.png,image/False/imgf94.png,128,128,0,x,0.5955862999981036,None,0,128,128,128,527.291240999999,,,,,,,528.7954342999983,528.3036414999988,528.3070843999994,528.3070843999994,528.789201399999,529.9241617000007,529.9241617000007,x,0.5955862999981036,None,,,,,,,,,,,OAT_en,001,2025-03-12_16h49.01.948,MainFlow,2024.2.4,144.0882742398532,2025-03-12 16h49.13.554609 +0700,
2,66,1,word/worden0661.png,image/True/img66.png,129,129,0,z,0.5936443999999028,None,0,129,129,129,530.5316387999992,,,,,,,532.0240236999998,531.5313195999988,531.5350806999995,531.5350806999995,532.0182744999984,533.148721900001,533.148721900001,z,0.5936443999999028,None,533.148721900001,532.0240236999998,532.0240236999998,,,,,,,,OAT_en,001,2025-03-12_16h49.01.948,MainFlow,2024.2.4,144.0882742398532,2025-03-12 16h49.13.554609 +0700,
2,1,0,word/worden0011.png,image/False/imgf01.png,130,130,0,x,0.5440740000012738,None,0,130,130,130,533.7527425999979,,,,,,,535.2386589999987,534.7460535999999,534.7492428000005,534.7492428000005,535.2337015000012,536.3267212999999,536.3267212999999,x,0.5440740000012738,None,536.3267212999999,535.2386589999987,535.2386589999987,,,,,,,,OAT_en,001,2025-03-12_16h49.01.948,MainFlow,2024.2.4,144.0882742398532,2025-03-12 16h49.13.554609 +0700,
2,89,0,word/worden0891.png,image/False/imgf89.png,131,131,0,x,0.6580063000001246,None,0,131,131,131,536.8771039999992,,,,,,,538.3698545000007,537.8736394999978,537.8771917999984,537.8771917999984,538.3637447000001,539.4780857000005,539.4780857000005,x,0.6580063000001246,None,539.4780857000005,538.3698545000007,538.3698545000007,,,,,,,,OAT_en,001,2025-03-12_16h49.01.948,MainFlow,2024.2.4,144.0882742398532,2025-03-12 16h49.13.554609 +0700,
2,48,1,word/worden0481.png,image/True/img48.png,132,132,0,z,0.5091290000018489,None,0,132,132,132,540.1475380999982,,,,,,,541.6471907999985,541.1487818999994,541.1523350999996,541.1523350999996,541.6419003999981,542.7685109000013,542.7685109000013,z,0.5091290000018489,None,,541.6471907999985,541.6471907999985,,,,,,,,OAT_en,001,2025-03-12_16h49.01.948,MainFlow,2024.2.4,144.0882742398532,2025-03-12 16h49.13.554609 +0700,
2,63,0,word/worden0631.png,image/False/imgf63.png,133,133,0,x,0.5991242999989481,None,0,133,133,133,543.2856438999988,,,,,,,544.7926090000001,544.2985890999989,544.3020729999989,544.3020729999989,544.7862662000007,545.9009703000011,545.9009703000011,x,0.5991242999989481,None,,,,,,,,,,,OAT_en,001,2025-03-12_16h49.01.948,MainFlow,2024.2.4,144.0882742398532,2025-03-12 16h49.13.554609 +0700,
2,23,1,word/worden0231.png,image/True/img23.png,134,134,0,z,0.3969909999977972,None,0,134,134,134,546.507086900001,,,,,,,548.000088599998,547.5064720000009,547.5098029000001,547.5098029000001,547.994211199999,549.1229717999995,549.1229717999995,z,0.3969909999977972,None,549.1229717999995,548.000088599998,548.000088599998,,,,,,,,OAT_en,001,2025-03-12_16h49.01.948,MainFlow,2024.2.4,144.0882742398532,2025-03-12 16h49.13.554609 +0700,
2,40,0,word/worden0401.png,image/False/imgf40.png,135,135,0,x,0.5225541999971028,None,0,135,135,135,549.5274208999981,,,,,,,551.0132569999987,550.5145205000008,550.5173102000008,550.5173102000008,551.0005950999985,552.1331285999986,552.1331285999986,x,0.5225541999971028,None,552.1331285999986,551.0063072999983,551.0063072999983,,,,,,,,OAT_en,001,2025-03-12_16h49.01.948,MainFlow,2024.2.4,144.0882742398532,2025-03-12 16h49.13.554609 +0700,
2,52,1,word/worden0521.png,image/True/img52.png,136,136,0,z,0.5090668999982881,None,0,136,136,136,552.6684950999988,,,,,,,554.1655664999998,553.6719358999981,553.6755632999993,553.6755632999993,554.1602787000011,555.2891767000001,555.2891767000001,z,0.5090668999982881,None,555.2891767000001,554.1655664999998,554.1655664999998,,,,,,,,OAT_en,001,2025-03-12_16h49.01.948,MainFlow,2024.2.4,144.0882742398532,2025-03-12 16h49.13.554609 +0700,
2,30,1,word/worden0301.png,image/True/img30.png,137,137,0,z,0.44165090000024065,None,0,137,137,137,555.8042304999981,,,,,,,557.2969230999988,556.8021890999989,556.8054535999981,556.8054535999981,557.2916731000005,558.3966252999999,558.3966252999999,z,0.44165090000024065,None,558.3966252999999,557.2969230999988,557.2969230999988,,,,,,,,OAT_en,001,2025-03-12_16h49.01.948,MainFlow,2024.2.4,144.0882742398532,2025-03-12 16h49.13.554609 +0700,
2,15,1,word/worden0151.png,image/True/img15.png,138,138,0,z,0.519737200000236,None,0,138,138,138,558.8463656999993,,,,,,,560.3381508999992,559.8423077000007,559.8456953999994,559.8456953999994,560.3329527999995,561.4669157999997,561.4669157999997,z,0.519737200000236,None,561.4669157999997,560.3381508999992,560.3381508999992,,,,,,,,OAT_en,001,2025-03-12_16h49.01.948,MainFlow,2024.2.4,144.0882742398532,2025-03-12 16h49.13.554609 +0700,
2,46,1,word/worden0461.png,image/True/img46.png,139,139,0,z,0.45101029999932507,None,0,139,139,139,561.9972749999979,,,,,,,563.4901356999981,562.9931948000012,562.9964861000008,562.9964861000008,563.4842745999995,564.6312732000006,564.6312732000006,z,0.45101029999932507,None,564.6312732000006,563.4901356999981,563.4901356999981,,,,,,,,OAT_en,001,2025-03-12_16h49.01.948,MainFlow,2024.2.4,144.0882742398532,2025-03-12 16h49.13.554609 +0700,
2,14,1,word/worden0141.png,image/True/img14.png,140,140,0,z,0.422755399999005,None,0,140,140,140,565.0939918000004,,,,,,,566.5866437000004,566.0888871999996,566.092154599999,566.092154599999,566.581204099999,567.6915776999995,567.6915776999995,z,0.422755399999005,None,567.6915776999995,566.5866437000004,566.5866437000004,,,,,,,,OAT_en,001,2025-03-12_16h49.01.948,MainFlow,2024.2.4,144.0882742398532,2025-03-12 16h49.13.554609 +0700,
2,66,0,word/worden0661.png,image/False/imgf66.png,141,141,0,x,0.4287501999970118,None,0,141,141,141,568.1211610999999,,,,,,,569.6139810999994,569.1162538999997,569.1196496999983,569.1196496999983,569.6087540000008,570.7302847999999,570.7302847999999,x,0.4287501999970118,None,570.7302847999999,569.6139810999994,569.6139810999994,,,,,,,,OAT_en,001,2025-03-12_16h49.01.948,MainFlow,2024.2.4,144.0882742398532,2025-03-12 16h49.13.554609 +0700,
2,46,0,word/worden0461.png,image/False/imgf46.png,142,142,0,x,0.6087499000022945,None,0,142,142,142,571.1690401000014,,,,,,,572.6691739999987,572.1701300999994,572.1738646999984,572.1738646999984,572.6638045,573.7968398999983,573.7968398999983,x,0.6087499000022945,None,,572.6691739999987,572.6691739999987,,,,,,,,OAT_en,001,2025-03-12_16h49.01.948,MainFlow,2024.2.4,144.0882742398532,2025-03-12 16h49.13.554609 +0700,
2,18,1,word/worden0181.png,image/True/img18.png,143,143,0,z,0.3812327000014193,None,0,143,143,143,574.4115285999978,,,,,,,575.9045029000008,575.4100478,575.4136894000003,575.4136894000003,575.8991344999995,576.9983943000007,576.9983943000007,z,0.3812327000014193,None,576.9983943000007,575.9045029000008,575.9045029000008,,,,,,,,OAT_en,001,2025-03-12_16h49.01.948,MainFlow,2024.2.4,144.0882742398532,2025-03-12 16h49.13.554609 +0700,
2,51,0,word/worden0511.png,image/False/imgf51.png,144,144,0,x,0.47649359999923036,None,0,144,144,144,577.3910560000004,,,,,,,578.8829971000014,578.386896,578.3901554000004,578.3901554000004,578.8777776999996,579.9698274000002,579.9698274000002,x,0.47649359999923036,None,579.9698274000002,578.8829971000014,578.8829971000014,,,,,,,,OAT_en,001,2025-03-12_16h49.01.948,MainFlow,2024.2.4,144.0882742398532,2025-03-12 16h49.13.554609 +0700,
2,76,1,word/worden0761.png,image/True/img76.png,145,145,0,z,0.9797099999996135,None,0,145,145,145,580.4521926999987,,,,,,,581.9379019000007,581.4393290999978,581.4421084999994,581.4421084999994,581.9258203999998,583.0538696000003,583.0538696000003,z,0.9797099999996135,None,583.0538696000003,581.9309919000007,581.9309919000007,,,,,,,,OAT_en,001,2025-03-12_16h49.01.948,MainFlow,2024.2.4,144.0882742398532,2025-03-12 16h49.13.554609 +0700,
2,57,1,word/worden0571.png,image/True/img57.png,146,146,0,z,2.149645400000736,None,0,146,146,146,584.0415283000002,,,,,,,585.5343393000003,585.0383198999989,585.0415475000009,585.0415475000009,585.5285215000004,586.654733299998,586.654733299998,z,2.149645400000736,None,586.654733299998,585.5343393000003,585.5343393000003,,,,,,,,OAT_en,001,2025-03-12_16h49.01.948,MainFlow,2024.2.4,144.0882742398532,2025-03-12 16h49.13.554609 +0700,
2,48,0,word/worden0481.png,image/False/imgf48.png,147,147,0,x,0.5705228000006173,None,0,147,147,147,588.8177252999994,,,,,,,590.3112202999982,589.8177418999985,589.8210500999994,589.8210500999994,590.3054496000004,591.4612750999986,591.4612750999986,x,0.5705228000006173,None,591.4612750999986,590.3112202999982,590.3112202999982,,,,,,,,OAT_en,001,2025-03-12_16h49.01.948,MainFlow,2024.2.4,144.0882742398532,2025-03-12 16h49.13.554609 +0700,
2,37,0,word/worden0371.png,image/False/imgf37.png,148,148,0,x,0.4620550999970874,None,0,148,148,148,592.0399809999981,,,,,,,593.5261047999993,593.0315554000008,593.0343635999998,593.0343635999998,593.5208196999993,594.6746902000014,594.6746902000014,x,0.4620550999970874,None,594.6746902000014,593.5261047999993,593.5261047999993,,,,,,,,OAT_en,001,2025-03-12_16h49.01.948,MainFlow,2024.2.4,144.0882742398532,2025-03-12 16h49.13.554609 +0700,
2,60,0,word/worden0601.png,image/False/imgf60.png,149,149,0,x,0.5087238000014622,None,0,149,149,149,595.1445521999995,,,,,,,596.6362250999991,596.1411546999989,596.1443841,596.1443841,596.630077400001,597.7554209000009,597.7554209000009,x,0.5087238000014622,None,597.7554209000009,596.6362250999991,596.6362250999991,,,,,,,,OAT_en,001,2025-03-12_16h49.01.948,MainFlow,2024.2.4,144.0882742398532,2025-03-12 16h49.13.554609 +0700,
2,24,1,word/worden0241.png,image/True/img24.png,150,150,0,z,0.5976869000005536,None,0,150,150,150,598.2750823999995,,,,,,,599.767732100001,599.2752040999985,599.2785330000006,599.2785330000006,599.7624050999984,600.8369682000011,600.8369682000011,z,0.5976869000005536,None,600.8369682000011,599.767732100001,599.767732100001,,,,,,,,OAT_en,001,2025-03-12_16h49.01.948,MainFlow,2024.2.4,144.0882742398532,2025-03-12 16h49.13.554609 +0700,
2,40,1,word/worden0401.png,image/True/img40.png,151,151,0,z,0.3947288000017579,None,0,151,151,151,601.4411140000011,,,,,,,602.9268372000006,602.4306007999985,602.4336435000005,602.4336435000005,602.9208581999992,604.0768614000008,604.0768614000008,z,0.3947288000017579,None,604.0768614000008,602.9268372000006,602.9268372000006,,,,,,,,OAT_en,001,2025-03-12_16h49.01.948,MainFlow,2024.2.4,144.0882742398532,2025-03-12 16h49.13.554609 +0700,
2,54,1,word/worden0541.png,image/True/img54.png,152,152,0,z,0.4841777000001457,None,0,152,152,152,604.4827713000013,,,,,,,605.9682047999995,605.475147000001,605.4784039000006,605.4784039000006,605.9629662000007,607.1100796999999,607.1100796999999,z,0.4841777000001457,None,607.1100796999999,605.9682047999995,605.9682047999995,,,,,,,,OAT_en,001,2025-03-12_16h49.01.948,MainFlow,2024.2.4,144.0882742398532,2025-03-12 16h49.13.554609 +0700,
2,44,0,word/worden0441.png,image/False/imgf44.png,153,153,0,x,0.5798160999984248,None,0,153,153,153,607.6063896000014,,,,,,,609.099138900001,608.6039290999979,608.6074578999978,608.6074578999978,609.0929561000012,610.2387904999996,610.2387904999996,x,0.5798160999984248,None,610.2387904999996,609.099138900001,609.099138900001,,,,,,,,OAT_en,001,2025-03-12_16h49.01.948,MainFlow,2024.2.4,144.0882742398532,2025-03-12 16h49.13.554609 +0700,
2,79,1,word/worden0791.png,image/True/img79.png,154,154,0,z,0.4217711000019335,None,0,154,154,154,610.8289923999982,,,,,,,612.3207762999991,611.8224186000007,611.8260093999997,611.8260093999997,612.3148561999988,613.4287364000011,613.4287364000011,z,0.4217711000019335,None,613.4287364000011,612.3207762999991,612.3207762999991,,,,,,,,OAT_en,001,2025-03-12_16h49.01.948,MainFlow,2024.2.4,144.0882742398532,2025-03-12 16h49.13.554609 +0700,
2,95,1,word/worden0951.png,image/True/img95.png,155,155,0,z,0.7488907000006293,None,0,155,155,155,613.8643143000008,,,,,,,615.3620659999979,614.8634057999989,614.8666782,614.8666782,615.3566921999991,616.5026140000009,616.5026140000009,z,0.7488907000006293,None,616.5026140000009,615.3620659999979,615.3620659999979,,,,,,,,OAT_en,001,2025-03-12_16h49.01.948,MainFlow,2024.2.4,144.0882742398532,2025-03-12 16h49.13.554609 +0700,
2,37,1,word/worden0371.png,image/True/img37.png,156,156,0,z,0.5453097999998135,None,0,156,156,156,617.2574115999996,,,,,,,618.7500240000008,618.2550362000002,618.2586565999991,618.2586565999991,618.7438908000004,619.9006663,619.9006663,z,0.5453097999998135,None,619.9006663,618.7500240000008,618.7500240000008,,,,,,,,OAT_en,001,2025-03-12_16h49.01.948,MainFlow,2024.2.4,144.0882742398532,2025-03-12 16h49.13.554609 +0700,
2,70,1,word/worden0701.png,image/True/img70.png,157,157,0,z,0.3791610000007495,None,0,157,157,157,620.4579970000013,,,,,,,621.9510249999985,621.4569721999978,621.4603035,621.4603035,621.9452534000011,623.0715066999983,623.0715066999983,z,0.3791610000007495,None,623.0715066999983,621.9510249999985,621.9510249999985,,,,,,,,OAT_en,001,2025-03-12_16h49.01.948,MainFlow,2024.2.4,144.0882742398532,2025-03-12 16h49.13.554609 +0700,
2,40,1,word/worden0401.png,image/True/img40.png,158,158,0,z,0.3063227000020561,None,0,158,158,158,623.4575646000012,,,,,,,624.9505411999999,624.4521089000009,624.455363699999,624.455363699999,624.9456471999983,626.1003318000003,626.1003318000003,z,0.3063227000020561,None,626.1003318000003,624.9505411999999,624.9505411999999,,,,,,,,OAT_en,001,2025-03-12_16h49.01.948,MainFlow,2024.2.4,144.0882742398532,2025-03-12 16h49.13.554609 +0700,
2,30,0,word/worden0301.png,image/False/imgf30.png,159,159,0,x,0.466889600000286,None,0,159,159,159,626.4154358000014,,,,,,,627.9150348000003,627.4180138999982,627.4216372999981,627.4216372999981,627.9092141000001,629.0130256999983,629.0130256999983,x,0.466889600000286,None,,627.9150348000003,627.9150348000003,,,,,,,,OAT_en,001,2025-03-12_16h49.01.948,MainFlow,2024.2.4,144.0882742398532,2025-03-12 16h49.13.554609 +0700,
2,88,1,word/worden0881.png,image/True/img88.png,160,160,0,z,0.5470076000019617,None,0,160,160,160,629.4918706999997,,,,,,,630.9909729999999,630.4934308999982,630.496962199999,630.496962199999,630.9858014999991,632.118490599998,632.118490599998,z,0.5470076000019617,None,632.118490599998,630.9909729999999,630.9909729999999,,,,,,,,OAT_en,001,2025-03-12_16h49.01.948,MainFlow,2024.2.4,144.0882742398532,2025-03-12 16h49.13.554609 +0700,
2,15,1,word/worden0151.png,image/True/img15.png,161,161,0,z,0.42020209999827784,None,0,161,161,161,632.6737276999993,,,,,,,634.171011800001,633.6760576999986,633.6793706999997,633.6793706999997,634.1655223999987,635.3025697999983,635.3025697999983,z,0.42020209999827784,None,635.3025697999983,634.171011800001,634.171011800001,,,,,,,,OAT_en,001,2025-03-12_16h49.01.948,MainFlow,2024.2.4,144.0882742398532,2025-03-12 16h49.13.554609 +0700,
2,54,1,word/worden0541.png,image/True/img54.png,162,162,0,z,0.3342320000010659,None,0,162,162,162,635.7329171999991,,,,,,,637.225776299998,636.7272755999984,636.7305305000009,636.7305305000009,637.2199834999992,638.3506061999979,638.3506061999979,z,0.3342320000010659,None,638.3506061999979,637.225776299998,637.225776299998,,,,,,,,OAT_en,001,2025-03-12_16h49.01.948,MainFlow,2024.2.4,144.0882742398532,2025-03-12 16h49.13.554609 +0700,
2,11,0,word/worden0111.png,image/False/imgf11.png,163,163,0,x,0.5065980000035779,None,0,163,163,163,638.6906579999995,,,,,,,640.1904694000004,639.6937346999985,639.6972252000014,639.6972252000014,640.1845963000014,641.3148851000005,641.3148851000005,x,0.5065980000035779,None,,640.1904694000004,640.1904694000004,,,,,,,,OAT_en,001,2025-03-12_16h49.01.948,MainFlow,2024.2.4,144.0882742398532,2025-03-12 16h49.13.554609 +0700,
2,16,1,word/worden0161.png,image/True/img16.png,164,164,0,z,0.7094299000018509,None,0,164,164,164,641.8290183999998,,,,,,,643.3219212000004,642.8232949000012,642.8265676999981,642.8265676999981,643.3165816000001,644.4650619999993,644.4650619999993,z,0.7094299000018509,None,644.4650619999993,643.3219212000004,643.3219212000004,,,,,,,,OAT_en,001,2025-03-12_16h49.01.948,MainFlow,2024.2.4,144.0882742398532,2025-03-12 16h49.13.554609 +0700,
2,1,1,word/worden0011.png,image/True/img01.png,165,165,0,z,1.0613880999990215,None,0,165,165,165,645.1825322000004,,,,,,,646.6823552999995,646.1870132000004,646.1907603,646.1907603,646.6769982000005,647.799190400001,647.799190400001,z,1.0613880999990215,None,,646.6823552999995,646.6823552999995,,,,,,,,OAT_en,001,2025-03-12_16h49.01.948,MainFlow,2024.2.4,144.0882742398532,2025-03-12 16h49.13.554609 +0700,
2,22,0,word/worden0221.png,image/False/imgf22.png,166,166,0,x,0.5127530000027036,None,0,166,166,166,648.8692364999988,,,,,,,650.3622082000002,649.8643850999979,649.8678194999993,649.8678194999993,650.3562385000005,651.4925380999994,651.4925380999994,x,0.5127530000027036,None,651.4925380999994,650.3622082000002,650.3622082000002,,,,,,,,OAT_en,001,2025-03-12_16h49.01.948,MainFlow,2024.2.4,144.0882742398532,2025-03-12 16h49.13.554609 +0700,
2,63,1,word/worden0631.png,image/True/img63.png,167,167,0,z,0.37985029999981634,None,0,167,167,167,652.0145322999997,,,,,,,653.5004746000013,653.0045301999999,653.0074056000012,653.0074056000012,653.4948403999988,654.6166928999992,654.6166928999992,z,0.37985029999981634,None,654.6166928999992,653.5004746000013,653.5004746000013,,,,,,,,OAT_en,001,2025-03-12_16h49.01.948,MainFlow,2024.2.4,144.0882742398532,2025-03-12 16h49.13.554609 +0700,
2,87,1,word/worden0871.png,image/True/img87.png,168,168,0,z,0.48112440000113565,None,0,168,168,168,655.0069681999994,,,,,,,656.4999019999996,656.0018463999986,656.0051213000006,656.0051213000006,656.4945866999988,657.6277784999984,657.6277784999984,z,0.48112440000113565,None,657.6277784999984,656.4999019999996,656.4999019999996,,,,,,,,OAT_en,001,2025-03-12_16h49.01.948,MainFlow,2024.2.4,144.0882742398532,2025-03-12 16h49.13.554609 +0700,
2,57,0,word/worden0571.png,image/False/imgf57.png,169,169,0,x,1.0126880000025267,None,0,169,169,169,658.1175718000013,,,,,,,659.6034708000007,659.1044585999989,659.1071489999995,659.1071489999995,659.5915281999987,660.735612299999,660.735612299999,x,1.0126880000025267,None,660.735612299999,659.5964662000006,659.5964662000006,,,,,,,,OAT_en,001,2025-03-12_16h49.01.948,MainFlow,2024.2.4,144.0882742398532,2025-03-12 16h49.13.554609 +0700,
2,94,0,word/worden0941.png,image/False/imgf94.png,170,170,0,x,0.5382481999986339,None,0,170,170,170,661.7577195999984,,,,,,,663.2483276999992,662.752553899998,662.7557937999991,662.7557937999991,663.2421795000009,664.3984066000012,664.3984066000012,x,0.5382481999986339,None,664.3984066000012,663.2483276999992,663.2483276999992,,,,,,,,OAT_en,001,2025-03-12_16h49.01.948,MainFlow,2024.2.4,144.0882742398532,2025-03-12 16h49.13.554609 +0700,
2,93,0,word/worden0931.png,image/False/imgf93.png,171,171,0,x,0.5659403999998176,None,0,171,171,171,664.9425917000008,,,,,,,666.4355027999991,665.940344300001,665.9438427999994,665.9438427999994,666.4297167000004,667.5192999999999,667.5192999999999,x,0.5659403999998176,None,667.5192999999999,666.4355027999991,666.4355027999991,,,,,,,,OAT_en,001,2025-03-12_16h49.01.948,MainFlow,2024.2.4,144.0882742398532,2025-03-12 16h49.13.554609 +0700,
2,61,1,word/worden0611.png,image/True/img61.png,172,172,0,z,0.6458690999970713,None,0,172,172,172,668.0947737999995,,,,,,,669.5875956999989,669.0915549999991,669.0948446000002,669.0948446000002,669.5818734999993,670.7026689000013,670.7026689000013,z,0.6458690999970713,None,670.7026689000013,669.5875956999989,669.5875956999989,,,,,,,,OAT_en,001,2025-03-12_16h49.01.948,MainFlow,2024.2.4,144.0882742398532,2025-03-12 16h49.13.554609 +0700,
2,28,1,word/worden0281.png,image/True/img28.png,173,173,0,z,0.5577276000003621,None,0,173,173,173,671.3579767999981,,,,,,,672.850755200001,672.3535479999991,672.3568763000003,672.3568763000003,672.8448774999997,673.9894846999996,673.9894846999996,z,0.5577276000003621,None,673.9894846999996,672.850755200001,672.850755200001,,,,,,,,OAT_en,001,2025-03-12_16h49.01.948,MainFlow,2024.2.4,144.0882742398532,2025-03-12 16h49.13.554609 +0700,
2,46,1,word/worden0461.png,image/True/img46.png,174,174,0,z,0.42702940000162926,None,0,174,174,174,674.5587995999995,,,,,,,676.058629799998,675.5651749999997,675.568493499999,675.568493499999,676.0533732000004,677.2007178999993,677.2007178999993,z,0.42702940000162926,None,677.2007178999993,676.058629799998,676.058629799998,,,,,,,,OAT_en,001,2025-03-12_16h49.01.948,MainFlow,2024.2.4,144.0882742398532,2025-03-12 16h49.13.554609 +0700,
2,22,1,word/worden0221.png,image/True/img22.png,175,175,0,x,0.7167621000007784,None,0,175,175,175,677.6344973999985,,,,,,,679.1273185999999,678.6343357000005,678.637995699999,678.637995699999,679.1215742999993,680.2669220999996,680.2669220999996,x,0.7167621000007784,None,680.2669220999996,679.1273185999999,679.1273185999999,,,,,,,,OAT_en,001,2025-03-12_16h49.01.948,MainFlow,2024.2.4,144.0882742398532,2025-03-12 16h49.13.554609 +0700,
2,93,1,word/worden0931.png,image/True/img93.png,176,176,0,z,0.6301473999992595,None,0,176,176,176,680.9950312000001,,,,,,,682.4879968999994,681.993524999998,681.997296900001,681.997296900001,682.4822113000009,683.5882318000004,683.5882318000004,z,0.6301473999992595,None,683.5882318000004,682.4879968999994,682.4879968999994,,,,,,,,OAT_en,001,2025-03-12_16h49.01.948,MainFlow,2024.2.4,144.0882742398532,2025-03-12 16h49.13.554609 +0700,
2,95,1,word/worden0951.png,image/True/img95.png,177,177,0,z,0.5215277999996033,None,0,177,177,177,684.2318735999979,,,,,,,685.7373196999979,685.244201999998,685.2481406000006,685.2481406000006,685.7311336999992,686.8681352999993,686.8681352999993,z,0.5215277999996033,None,685.2481406000006,,,,,,,,,,OAT_en,001,2025-03-12_16h49.01.948,MainFlow,2024.2.4,144.0882742398532,2025-03-12 16h49.13.554609 +0700,
2,17,0,word/worden0171.png,image/False/imgf17.png,178,178,0,x,0.7155611000016506,None,0,178,178,178,687.3965007000006,,,,,,,688.896325499998,688.3985666999979,688.4021189999985,688.4021189999985,688.8903982999982,690.0190627000011,690.0190627000011,x,0.7155611000016506,None,,688.896325499998,688.896325499998,,,,,,,,OAT_en,001,2025-03-12_16h49.01.948,MainFlow,2024.2.4,144.0882742398532,2025-03-12 16h49.13.554609 +0700,
2,26,1,word/worden0261.png,image/True/img26.png,179,179,0,x,0.9240931999993336,None,0,179,179,179,690.7430710000008,,,,,,,692.2289550999994,691.736524699998,691.7396678000005,691.7396678000005,692.2231584000001,693.3750032999997,693.3750032999997,x,0.9240931999993336,None,693.3750032999997,692.2289550999994,692.2289550999994,,,,,,,,OAT_en,001,2025-03-12_16h49.01.948,MainFlow,2024.2.4,144.0882742398532,2025-03-12 16h49.13.554609 +0700,
2,27,1,word/worden0271.png,image/True/img27.png,180,180,0,z,0.43403290000060224,None,0,180,180,180,694.305057900001,,,,,,,695.7976825000005,695.3012656999999,695.304527100001,695.304527100001,695.7917849000005,696.9071299999996,696.9071299999996,z,0.43403290000060224,None,696.9071299999996,695.7976825000005,695.7976825000005,,,,,,,,OAT_en,001,2025-03-12_16h49.01.948,MainFlow,2024.2.4,144.0882742398532,2025-03-12 16h49.13.554609 +0700,
2,31,1,word/worden0311.png,image/True/img31.png,181,181,0,z,0.41163070000038715,None,0,181,181,181,697.3529530999986,,,,,,,698.8457123000007,698.3510505999984,698.3544861999981,698.3544861999981,698.8401106999991,699.9533569999985,699.9533569999985,z,0.41163070000038715,None,699.9533569999985,698.8457123000007,698.8457123000007,,,,,,,,OAT_en,001,2025-03-12_16h49.01.948,MainFlow,2024.2.4,144.0882742398532,2025-03-12 16h49.13.554609 +0700,
2,33,0,word/worden0331.png,image/False/imgf33.png,182,182,0,x,0.7500247000025411,None,0,182,182,182,700.3732343000011,,,,,,,701.8730097000007,701.3746849999989,701.3781629000005,701.3781629000005,701.8670643000005,702.997825800001,702.997825800001,x,0.7500247000025411,None,,701.8730097000007,701.8730097000007,,,,,,,,OAT_en,001,2025-03-12_16h49.01.948,MainFlow,2024.2.4,144.0882742398532,2025-03-12 16h49.13.554609 +0700,
2,59,1,word/worden0591.png,image/True/img59.png,183,183,0,z,0.4035254000009445,None,0,183,183,183,703.7544387999988,,,,,,,705.247508299999,704.7496095999995,704.7532176999994,704.7532176999994,705.2421510999993,706.3434087999995,706.3434087999995,z,0.4035254000009445,None,706.3434087999995,705.247508299999,705.247508299999,,,,,,,,OAT_en,001,2025-03-12_16h49.01.948,MainFlow,2024.2.4,144.0882742398532,2025-03-12 16h49.13.554609 +0700,
2,8,1,word/worden0081.png,image/True/img08.png,184,184,0,z,0.44200419999833684,None,0,184,184,184,706.7539029,,,,,,,708.2397372000014,707.7453896000006,707.7481159999988,707.7481159999988,708.2341300999979,709.3366719000005,709.3366719000005,z,0.44200419999833684,None,709.3366719000005,708.2397372000014,708.2397372000014,,,,,,,,OAT_en,001,2025-03-12_16h49.01.948,MainFlow,2024.2.4,144.0882742398532,2025-03-12 16h49.13.554609 +0700,
2,63,0,word/worden0631.png,image/False/imgf63.png,185,185,0,z,0.357902899999317,None,0,185,185,185,709.7880583000006,,,,,,,711.287724400001,710.7923675999991,710.7959622999988,710.7959622999988,711.2818062000006,712.4167576,712.4167576,z,0.357902899999317,None,,711.287724400001,711.287724400001,,,,,,,,OAT_en,001,2025-03-12_16h49.01.948,MainFlow,2024.2.4,144.0882742398532,2025-03-12 16h49.13.554609 +0700,
2,30,0,word/worden0301.png,image/False/imgf30.png,186,186,0,x,0.5909978000017873,None,0,186,186,186,712.7805144000013,,,,,,,714.2734345999997,713.7805809999991,713.7839989999993,713.7839989999993,714.2674497000007,715.3887025000004,715.3887025000004,x,0.5909978000017873,None,715.3887025000004,714.2734345999997,714.2734345999997,,,,,,,,OAT_en,001,2025-03-12_16h49.01.948,MainFlow,2024.2.4,144.0882742398532,2025-03-12 16h49.13.554609 +0700,
2,15,0,word/worden0151.png,image/False/imgf15.png,187,187,0,x,0.4199146999999357,None,0,187,187,187,715.9900056000006,,,,,,,717.4739889000011,716.980275599999,716.9831196999985,716.9831196999985,717.467994300001,718.595634199999,718.595634199999,x,0.4199146999999357,None,718.595634199999,717.4739889000011,717.4739889000011,,,,,,,,OAT_en,001,2025-03-12_16h49.01.948,MainFlow,2024.2.4,144.0882742398532,2025-03-12 16h49.13.554609 +0700,
2,71,0,word/worden0711.png,image/False/imgf71.png,188,188,0,x,0.687645900001371,None,0,188,188,188,719.0223545999979,,,,,,,720.5152818999995,720.0179064000004,720.0211459999991,720.0211459999991,720.510012499999,721.6569148999988,721.6569148999988,x,0.687645900001371,None,721.6569148999988,720.5152818999995,720.5152818999995,,,,,,,,OAT_en,001,2025-03-12_16h49.01.948,MainFlow,2024.2.4,144.0882742398532,2025-03-12 16h49.13.554609 +0700,
2,10,0,word/worden0101.png,image/False/imgf10.png,189,189,0,x,0.4886250999988988,None,0,189,189,189,722.3551016999991,,,,,,,723.8547981000011,723.361052100001,723.3645360999981,723.3645360999981,723.8491826999998,724.969790799998,724.969790799998,x,0.4886250999988988,None,,723.8547981000011,723.8547981000011,,,,,,,,OAT_en,001,2025-03-12_16h49.01.948,MainFlow,2024.2.4,144.0882742398532,2025-03-12 16h49.13.554609 +0700,
2,54,0,word/worden0541.png,image/False/imgf54.png,190,190,0,x,0.6742442000031588,None,0,190,190,190,725.4655630999987,,,,,,,726.9584269000006,726.4588747999987,726.4629443000013,726.4629443000013,726.9528772000012,728.0731621000014,728.0731621000014,x,0.6742442000031588,None,728.0731621000014,726.9584269000006,726.9584269000006,,,,,,,,OAT_en,001,2025-03-12_16h49.01.948,MainFlow,2024.2.4,144.0882742398532,2025-03-12 16h49.13.554609 +0700,
2,60,0,word/worden0601.png,image/False/imgf60.png,191,191,0,x,0.6031237000024703,None,0,191,191,191,728.7565240000004,,,,,,,730.2565972000011,729.7586221999991,729.7623472000014,729.7623472000014,730.2513216000007,731.3793318999997,731.3793318999997,x,0.6031237000024703,None,,730.2565972000011,730.2565972000011,,,,,,,,OAT_en,001,2025-03-12_16h49.01.948,MainFlow,2024.2.4,144.0882742398532,2025-03-12 16h49.13.554609 +0700,
2,16,0,word/worden0161.png,image/False/imgf16.png,192,192,0,x,0.6347409000009065,None,0,192,192,192,731.9920563999985,,,,,,,733.4851206999992,732.9876812000002,732.9909702000004,732.9909702000004,733.479718300001,734.6099135000004,734.6099135000004,x,0.6347409000009065,None,734.6099135000004,733.4851206999992,733.4851206999992,,,,,,,,OAT_en,001,2025-03-12_16h49.01.948,MainFlow,2024.2.4,144.0882742398532,2025-03-12 16h49.13.554609 +0700,
2,50,1,word/worden0501.png,image/True/img50.png,193,193,0,z,0.8719512999996368,None,0,193,193,193,735.2552781999984,,,,,,,736.7481402999983,736.2521921000007,736.2554205999986,736.2554205999986,736.7423596000008,737.8727911999995,737.8727911999995,z,0.8719512999996368,None,737.8727911999995,736.7481402999983,736.7481402999983,,,,,,,,OAT_en,001,2025-03-12_16h49.01.948,MainFlow,2024.2.4,144.0882742398532,2025-03-12 16h49.13.554609 +0700,
2,63,1,word/worden0631.png,image/True/img63.png,194,194,0,z,0.40945730000021285,None,0,194,194,194,738.7546246999991,,,,,,,740.2474560999981,739.7497000000003,739.7530010999981,739.7530010999981,740.2415756999981,741.3570534999999,741.3570534999999,z,0.40945730000021285,None,741.3570534999999,740.2474560999981,740.2474560999981,,,,,,,,OAT_en,001,2025-03-12_16h49.01.948,MainFlow,2024.2.4,144.0882742398532,2025-03-12 16h49.13.554609 +0700,
2,24,0,word/worden0241.png,image/False/imgf24.png,195,195,0,z,0.36737710000306834,None,0,195,195,195,741.7748628000008,,,,,,,743.2746110000007,742.7780550999996,742.7816090999986,742.7816090999986,743.268764299999,744.3833683000012,744.3833683000012,z,0.36737710000306834,None,,743.2746110000007,743.2746110000007,,,,,,,,OAT_en,001,2025-03-12_16h49.01.948,MainFlow,2024.2.4,144.0882742398532,2025-03-12 16h49.13.554609 +0700,
2,89,0,word/worden0891.png,image/False/imgf89.png,196,196,0,x,0.6768713000019488,None,0,196,196,196,744.7603689999996,,,,,,,746.2533216999982,745.7572935999997,745.7607260000004,745.7607260000004,746.247495399999,747.3609957999979,747.3609957999979,x,0.6768713000019488,None,747.3609957999979,746.2533216999982,746.2533216999982,,,,,,,,OAT_en,001,2025-03-12_16h49.01.948,MainFlow,2024.2.4,144.0882742398532,2025-03-12 16h49.13.554609 +0700,
2,6,0,word/worden0061.png,image/False/imgf06.png,197,197,0,x,0.5751734000004944,None,0,197,197,197,748.0444915000007,,,,,,,749.5375614000004,749.0421855999994,749.0456311999988,749.0456311999988,749.5321564000005,750.6390567999988,750.6390567999988,x,0.5751734000004944,None,750.6390567999988,749.5375614000004,749.5375614000004,,,,,,,,OAT_en,001,2025-03-12_16h49.01.948,MainFlow,2024.2.4,144.0882742398532,2025-03-12 16h49.13.554609 +0700,
2,41,0,word/worden0411.png,image/False/imgf41.png,198,198,0,x,0.8407614000025205,None,0,198,198,198,751.2264703000001,,,,,,,752.7174140999996,752.2219662999996,752.2253459999993,752.2253459999993,752.7114221000011,753.8004924999987,753.8004924999987,x,0.8407614000025205,None,753.8004924999987,752.7174140999996,752.7174140999996,,,,,,,,OAT_en,001,2025-03-12_16h49.01.948,MainFlow,2024.2.4,144.0882742398532,2025-03-12 16h49.13.554609 +0700,
2,79,0,word/worden0791.png,image/False/imgf79.png,199,199,0,x,0.4258148999979312,None,0,199,199,199,754.6491376000013,,,,,,,756.1402005999989,755.6462369000001,755.6492933000009,755.6492933000009,756.1343382000014,757.2750723999998,757.2750723999998,x,0.4258148999979312,None,757.2750723999998,756.1402005999989,756.1402005999989,,,,,,,,OAT_en,001,2025-03-12_16h49.01.948,MainFlow,2024.2.4,144.0882742398532,2025-03-12 16h49.13.554609 +0700,
2,70,1,word/worden0701.png,image/True/img70.png,200,200,0,z,0.3547086999969906,None,0,200,200,200,757.709264699999,,,,,,,759.2091493000007,758.7128769999981,758.7165048999996,758.7165048999996,759.2037792999981,760.3163305999988,760.3163305999988,z,0.3547086999969906,None,,759.2091493000007,759.2091493000007,,,,,,,,OAT_en,001,2025-03-12_16h49.01.948,MainFlow,2024.2.4,144.0882742398532,2025-03-12 16h49.13.554609 +0700,
2,31,1,word/worden0311.png,image/True/img31.png,201,201,0,z,0.3898871000019426,None,0,201,201,201,760.6810616000002,,,,,,,762.1738499999992,761.6800149999981,761.6834979000014,761.6834979000014,762.1680023999979,763.2661449000007,763.2661449000007,z,0.3898871000019426,None,763.2661449000007,762.1738499999992,762.1738499999992,,,,,,,,OAT_en,001,2025-03-12_16h49.01.948,MainFlow,2024.2.4,144.0882742398532,2025-03-12 16h49.13.554609 +0700,
2,9,1,word/worden0091.png,image/True/img09.png,202,202,0,z,0.4081657999995514,None,0,202,202,202,763.6664278999997,,,,,,,765.1594746999981,764.6659710999993,764.6695397000003,764.6695397000003,765.1541522000007,766.2439328,766.2439328,z,0.4081657999995514,None,766.2439328,765.1594746999981,765.1594746999981,,,,,,,,OAT_en,001,2025-03-12_16h49.01.948,MainFlow,2024.2.4,144.0882742398532,2025-03-12 16h49.13.554609 +0700,
2,27,1,word/worden0271.png,image/True/img27.png,203,203,0,z,0.4806958000008308,None,0,203,203,203,766.6597847999983,,,,,,,768.1588279999996,767.6617924999991,767.6653755000007,767.6653755000007,768.1528763999995,769.2563176000003,769.2563176000003,z,0.4806958000008308,None,,768.1588279999996,768.1588279999996,,,,,,,,OAT_en,001,2025-03-12_16h49.01.948,MainFlow,2024.2.4,144.0882742398532,2025-03-12 16h49.13.554609 +0700,
2,75,0,word/worden0751.png,image/False/imgf75.png,204,204,0,x,0.47905180000088876,None,0,204,204,204,769.7486901000011,,,,,,,771.2414224999993,770.7463419000014,770.7497139000006,770.7497139000006,771.2356083999985,772.3564583000007,772.3564583000007,x,0.47905180000088876,None,772.3564583000007,771.2414224999993,771.2414224999993,,,,,,,,OAT_en,001,2025-03-12_16h49.01.948,MainFlow,2024.2.4,144.0882742398532,2025-03-12 16h49.13.554609 +0700,
2,87,0,word/worden0871.png,image/False/imgf87.png,205,205,0,x,0.4900670999995782,None,0,205,205,205,772.8452443999995,,,,,,,774.3381917000006,773.8415341,773.844956099998,773.844956099998,774.3323925000004,775.4441217999993,775.4441217999993,x,0.4900670999995782,None,775.4441217999993,774.3381917000006,774.3381917000006,,,,,,,,OAT_en,001,2025-03-12_16h49.01.948,MainFlow,2024.2.4,144.0882742398532,2025-03-12 16h49.13.554609 +0700,
2,8,0,word/worden0081.png,image/False/imgf08.png,206,206,0,x,0.5561828999998397,None,0,206,206,206,775.9418072999979,,,,,,,777.4349101000007,776.9366631999983,776.9400764999991,776.9400764999991,777.4295409000006,778.5307326000002,778.5307326000002,x,0.5561828999998397,None,778.5307326000002,777.4349101000007,777.4349101000007,,,,,,,,OAT_en,001,2025-03-12_16h49.01.948,MainFlow,2024.2.4,144.0882742398532,2025-03-12 16h49.13.554609 +0700,
2,24,1,word/worden0241.png,image/True/img24.png,207,207,0,z,0.7155349000022397,None,0,207,207,207,779.0960650999987,,,,,,,780.5869364999999,780.0945854999991,780.0979694999987,780.0979694999987,780.581704799999,781.6684807999991,781.6684807999991,z,0.7155349000022397,None,781.6684807999991,780.5869364999999,780.5869364999999,,,,,,,,OAT_en,001,2025-03-12_16h49.01.948,MainFlow,2024.2.4,144.0882742398532,2025-03-12 16h49.13.554609 +0700,
2,14,1,word/worden0141.png,image/True/img14.png,208,208,0,z,0.40352440000060597,None,0,208,208,208,782.3937585999993,,,,,,,783.8847894999999,783.3911340000013,783.3943623999985,783.3943623999985,783.8793015999981,785.0113309999979,785.0113309999979,z,0.40352440000060597,None,785.0113309999979,783.8847894999999,783.8847894999999,,,,,,,,OAT_en,001,2025-03-12_16h49.01.948,MainFlow,2024.2.4,144.0882742398532,2025-03-12 16h49.13.554609 +0700,
2,87,1,word/worden0871.png,image/True/img87.png,209,209,0,z,0.45617140000103973,None,0,209,209,209,785.4261752999992,,,,,,,786.9119632000002,786.4195016000012,786.4229774000014,786.4229774000014,786.9064639999997,788.0464146000013,788.0464146000013,z,0.45617140000103973,None,788.0464146000013,786.9119632000002,786.9119632000002,,,,,,,,OAT_en,001,2025-03-12_16h49.01.948,MainFlow,2024.2.4,144.0882742398532,2025-03-12 16h49.13.554609 +0700,
2,42,0,word/worden0421.png,image/False/imgf42.png,210,210,0,x,0.4665076000019326,None,0,210,210,210,788.5088391999998,,,,,,,790.0086745000008,789.5122153999982,789.5158033000007,789.5158033000007,790.0027205000006,791.1319173000011,791.1319173000011,x,0.4665076000019326,None,,790.0086745000008,790.0086745000008,,,,,,,,OAT_en,001,2025-03-12_16h49.01.948,MainFlow,2024.2.4,144.0882742398532,2025-03-12 16h49.13.554609 +0700,
2,48,0,word/worden0481.png,image/False/imgf48.png,211,211,0,x,0.5379567000018142,None,0,211,211,211,791.6055874000012,,,,,,,793.0983779999988,792.6047193999984,792.6081252000004,792.6081252000004,793.0931572000009,794.232907499998,794.232907499998,x,0.5379567000018142,None,794.232907499998,793.0983779999988,793.0983779999988,,,,,,,,OAT_en,001,2025-03-12_16h49.01.948,MainFlow,2024.2.4,144.0882742398532,2025-03-12 16h49.13.554609 +0700,
2,56,0,word/worden0561.png,image/False/imgf56.png,212,212,0,x,0.4260400999992271,None,0,212,212,212,794.7784332999981,,,,,,,796.2714401000012,795.7764031000006,795.7795989000006,795.7795989000006,796.266077100001,797.4194921999988,797.4194921999988,x,0.4260400999992271,None,797.4194921999988,796.2714401000012,796.2714401000012,,,,,,,,OAT_en,001,2025-03-12_16h49.01.948,MainFlow,2024.2.4,144.0882742398532,2025-03-12 16h49.13.554609 +0700,
2,18,0,word/worden0181.png,image/False/imgf18.png,213,213,0,x,0.6332994999975199,None,0,213,213,213,797.8543695000008,,,,,,,799.3472161999998,798.8492499999993,798.8525603999988,798.8525603999988,799.3419007999983,800.466691499998,800.466691499998,x,0.6332994999975199,None,800.466691499998,799.3472161999998,799.3472161999998,,,,,,,,OAT_en,001,2025-03-12_16h49.01.948,MainFlow,2024.2.4,144.0882742398532,2025-03-12 16h49.13.554609 +0700,
2,18,0,word/worden0181.png,image/False/imgf18.png,214,214,0,x,0.39840860000185785,None,0,214,214,214,801.1106001000007,,,,,,,802.603497199998,802.1101271000007,802.113768700001,802.113768700001,802.598221799999,803.7196034000008,803.7196034000008,x,0.39840860000185785,None,803.7196034000008,802.603497199998,802.603497199998,,,,,,,,OAT_en,001,2025-03-12_16h49.01.948,MainFlow,2024.2.4,144.0882742398532,2025-03-12 16h49.13.554609 +0700,
2,9,0,word/worden0091.png,image/False/imgf09.png,215,215,0,x,0.6608830000004673,None,0,215,215,215,804.1267460999989,,,,,,,805.6169769000007,805.1225556999998,805.125723000001,805.125723000001,805.6115797999992,806.7042837000008,806.7042837000008,x,0.6608830000004673,None,806.7042837000008,805.6169769000007,805.6169769000007,,,,,,,,OAT_en,001,2025-03-12_16h49.01.948,MainFlow,2024.2.4,144.0882742398532,2025-03-12 16h49.13.554609 +0700,
2,55,0,word/worden0551.png,image/False/imgf55.png,216,216,0,x,0.6429449999995995,None,0,216,216,216,807.3733417000003,,,,,,,808.8662081000002,808.3705302999988,808.3738095999979,808.3738095999979,808.861186099999,809.9684680999999,809.9684680999999,x,0.6429449999995995,None,809.9684680999999,808.8662081000002,808.8662081000002,,,,,,,,OAT_en,001,2025-03-12_16h49.01.948,MainFlow,2024.2.4,144.0882742398532,2025-03-12 16h49.13.554609 +0700,
2,17,0,word/worden0171.png,image/False/imgf17.png,217,217,0,x,0.4506136999989394,None,0,217,217,217,810.6225845999979,,,,,,,812.1155274000012,811.6209911000005,811.6242211999997,811.6242211999997,812.1098354999995,813.2385995000004,813.2385995000004,x,0.4506136999989394,None,813.2385995000004,812.1155274000012,812.1155274000012,,,,,,,,OAT_en,001,2025-03-12_16h49.01.948,MainFlow,2024.2.4,144.0882742398532,2025-03-12 16h49.13.554609 +0700,
2,50,1,word/worden0501.png,image/True/img50.png,218,218,0,z,0.43837730000086594,None,0,218,218,218,813.6984869999978,,,,,,,815.1914238999998,814.6961726000009,814.6994252000004,814.6994252000004,815.1858114999995,816.3156916000007,816.3156916000007,z,0.43837730000086594,None,816.3156916000007,815.1914238999998,815.1914238999998,,,,,,,,OAT_en,001,2025-03-12_16h49.01.948,MainFlow,2024.2.4,144.0882742398532,2025-03-12 16h49.13.554609 +0700,
2,20,0,word/worden0201.png,image/False/imgf20.png,219,219,0,x,0.6206897999982175,None,0,219,219,219,816.7603417999999,,,,,,,818.2602539,817.7611672999992,817.7649873999981,817.7649873999981,818.2546684000008,819.4006115000011,819.4006115000011,x,0.6206897999982175,None,,818.2602539,818.2602539,,,,,,,,OAT_en,001,2025-03-12_16h49.01.948,MainFlow,2024.2.4,144.0882742398532,2025-03-12 16h49.13.554609 +0700,
2,36,0,word/worden0361.png,image/False/imgf36.png,220,220,0,x,0.7705629999982193,None,0,220,220,220,820.0305396000003,,,,,,,821.5232842000005,821.0290137999982,821.032667200001,821.032667200001,821.5171077000014,822.6366549999984,822.6366549999984,x,0.7705629999982193,None,822.6366549999984,821.5232842000005,821.5232842000005,,,,,,,,OAT_en,001,2025-03-12_16h49.01.948,MainFlow,2024.2.4,144.0882742398532,2025-03-12 16h49.13.554609 +0700,
2,7,0,word/worden0071.png,image/False/imgf07.png,221,221,0,x,0.5445758000023488,None,0,221,221,221,823.418660299998,,,,,,,824.9117530000003,824.413169200001,824.4165126999978,824.4165126999978,824.9063620999987,826.0112919999992,826.0112919999992,x,0.5445758000023488,None,826.0112919999992,824.9117530000003,824.9117530000003,,,,,,,,OAT_en,001,2025-03-12_16h49.01.948,MainFlow,2024.2.4,144.0882742398532,2025-03-12 16h49.13.554609 +0700,
2,7,1,word/worden0071.png,image/True/img07.png,222,222,0,z,0.4033129999988887,None,0,222,222,222,826.5642503999989,,,,,,,828.064074599999,827.5645966000011,827.568005699999,827.568005699999,828.0585432999978,829.1844310999986,829.1844310999986,z,0.4033129999988887,None,,828.064074599999,828.064074599999,,,,,,,,OAT_en,001,2025-03-12_16h49.01.948,MainFlow,2024.2.4,144.0882742398532,2025-03-12 16h49.13.554609 +0700,
2,70,0,word/worden0701.png,image/False/imgf70.png,223,223,0,x,0.6266686999988451,None,0,223,223,223,829.5982113999999,,,,,,,831.0978737000005,830.5993439000013,830.6027832,830.6027832,831.0920733999992,832.1993791999994,832.1993791999994,x,0.6266686999988451,None,,831.0978737000005,831.0978737000005,,,,,,,,OAT_en,001,2025-03-12_16h49.01.948,MainFlow,2024.2.4,144.0882742398532,2025-03-12 16h49.13.554609 +0700,
2,68,0,word/worden0681.png,image/False/imgf68.png,224,224,0,x,0.6693766999997024,None,0,224,224,224,832.8335757999994,,,,,,,834.3266036999994,833.8331620999998,833.8370485999985,833.8370485999985,834.3208033999981,835.4136719999988,835.4136719999988,x,0.6693766999997024,None,835.4136719999988,834.3266036999994,834.3266036999994,,,,,,,,OAT_en,001,2025-03-12_16h49.01.948,MainFlow,2024.2.4,144.0882742398532,2025-03-12 16h49.13.554609 +0700,
2,23,0,word/worden0231.png,image/False/imgf23.png,225,225,0,x,0.6368690999988758,None,0,225,225,225,836.0902755999996,,,,,,,837.5897640000003,837.0927511000009,837.0963728999996,837.0963728999996,837.5842677,838.7353695999991,838.7353695999991,x,0.6368690999988758,None,,837.5897640000003,837.5897640000003,,,,,,,,OAT_en,001,2025-03-12_16h49.01.948,MainFlow,2024.2.4,144.0882742398532,2025-03-12 16h49.13.554609 +0700,
2,56,0,word/worden0561.png,image/False/imgf56.png,226,226,0,x,0.42207060000146157,None,0,226,226,226,839.3810296999982,,,,,,,840.8739255,840.3772142999987,840.3804717999992,840.3804717999992,840.8686576,842.0189595999982,842.0189595999982,x,0.42207060000146157,None,842.0189595999982,840.8739255,840.8739255,,,,,,,,OAT_en,001,2025-03-12_16h49.01.948,MainFlow,2024.2.4,144.0882742398532,2025-03-12 16h49.13.554609 +0700,
2,17,1,word/worden0171.png,image/True/img17.png,227,227,0,z,0.40363409999918076,None,0,227,227,227,842.4499467999995,,,,,,,843.9426086999993,843.4464660999984,843.4496574000004,843.4496574000004,843.9368337999986,845.0632435999978,845.0632435999978,z,0.40363409999918076,None,845.0632435999978,843.9426086999993,843.9426086999993,,,,,,,,OAT_en,001,2025-03-12_16h49.01.948,MainFlow,2024.2.4,144.0882742398532,2025-03-12 16h49.13.554609 +0700,
2,94,1,word/worden0941.png,image/True/img94.png,228,228,0,z,0.42210740000155056,None,0,228,228,228,845.4770540999998,,,,,,,846.9629384,846.4643505999993,846.4672452000013,846.4672452000013,846.9572784999982,848.0826459999989,848.0826459999989,z,0.42210740000155056,None,848.0826459999989,846.9629384,846.9629384,,,,,,,,OAT_en,001,2025-03-12_16h49.01.948,MainFlow,2024.2.4,144.0882742398532,2025-03-12 16h49.13.554609 +0700,
2,96,0,word/worden0961.png,image/False/imgf96.png,229,229,0,x,0.5389052000027732,None,0,229,229,229,848.511121399999,,,,,,,850.0039953000014,849.5076588999982,849.5112690999995,849.5112690999995,849.9982608999999,851.1315314999993,851.1315314999993,x,0.5389052000027732,None,851.1315314999993,850.0039953000014,850.0039953000014,,,,,,,,OAT_en,001,2025-03-12_16h49.01.948,MainFlow,2024.2.4,144.0882742398532,2025-03-12 16h49.13.554609 +0700,
2,82,0,word/worden0821.png,image/False/imgf82.png,230,230,0,x,0.5476988999980676,None,0,230,230,230,851.677200099999,,,,,,,853.1699842999988,852.6745138000006,852.6777517999981,852.6777517999981,853.1642260000008,854.2909800999987,854.2909800999987,x,0.5476988999980676,None,854.2909800999987,853.1699842999988,853.1699842999988,,,,,,,,OAT_en,001,2025-03-12_16h49.01.948,MainFlow,2024.2.4,144.0882742398532,2025-03-12 16h49.13.554609 +0700,
2,36,1,word/worden0361.png,image/True/img36.png,231,231,0,z,0.5124916999993729,None,0,231,231,231,854.8501004999998,,,,,,,856.343058800001,855.8503950999984,855.8539678999987,855.8539678999987,856.3374681999994,857.4519129,857.4519129,z,0.5124916999993729,None,857.4519129,856.343058800001,856.343058800001,,,,,,,,OAT_en,001,2025-03-12_16h49.01.948,MainFlow,2024.2.4,144.0882742398532,2025-03-12 16h49.13.554609 +0700,
2,44,1,word/worden0441.png,image/True/img44.png,232,232,0,z,0.5275366999994731,None,0,232,232,232,857.9746173999993,,,,,,,859.4603248999993,858.9617461999987,858.964398199998,858.964398199998,859.4474741000013,860.5635732999981,860.5635732999981,z,0.5275366999994731,None,860.5635732999981,859.4533917000008,859.4533917000008,,,,,,,,OAT_en,001,2025-03-12_16h49.01.948,MainFlow,2024.2.4,144.0882742398532,2025-03-12 16h49.13.554609 +0700,
