lang,wordid,truestate,worddir,imgdir,thisN,thisTrialN,thisRepN,key_resp.keys,key_resp.rt,key_resp.duration,trials.thisRepN,trials.thisTrialN,trials.thisN,trials.thisIndex,thisRow.t,notes,tutorial.started,tutorial.stopped,key_instruct.keys,key_instruct.rt,key_instruct.duration,plusblank.started,wordshow.started,image.started,plsuer.started,wordshow.stopped,imageword.started,key_resp.started,trials.key_resp.keys,trials.key_resp.rt,trials.key_resp.duration,image.stopped,plsuer.stopped,plusblank.stopped,ending.started,text_3.started,ending_key.started,ending.stopped,ending_key.keys,ending_key.rt,ending_key.duration,participant,session,date,expName,psychopyVersion,frameRate,expStart,
,,,,,,,,,,,,,,,,,0.0030002999992575496,4.976359399999637,space,4.94577720000234,None,,,,,,,,,,,,,,,,,,,,,OAT_th,001,2025-03-12_16h35.09.762,MainFlow,2024.2.4,144.01979407948687,2025-03-12 16h35.37.189298 +0700,
1,51,0,word/wordth0511.png,image/False/imgf51.png,0,0,0,x,0.7452719000029902,None,0,0,0,0,5.030826599999273,,,,,,,6.483074600000691,5.999066000000312,6.022823700001027,6.022823700001027,6.4768111999983375,7.628995700000814,7.628995700000814,x,0.7452719000029902,None,,,,,,,,,,,OAT_th,001,2025-03-12_16h35.09.762,MainFlow,2024.2.4,144.01979407948687,2025-03-12 16h35.37.189298 +0700,
1,66,1,word/wordth0661.png,image/True/img66.png,1,1,0,x,0.8790583999980299,None,0,1,1,1,8.385206599999947,,,,,,,9.884968300000764,9.388307900000655,9.391149799997947,9.391149799997947,9.879151099998126,11.002837299998646,11.002837299998646,x,0.8790583999980299,None,9.884968300000764,9.884968300000764,,,,,,,,,OAT_th,001,2025-03-12_16h35.09.762,MainFlow,2024.2.4,144.01979407948687,2025-03-12 16h35.37.189298 +0700,
1,60,1,word/wordth0601.png,image/True/img60.png,2,2,0,z,0.5776335999980802,None,0,2,2,2,11.891498799999681,,,,,,,13.39813470000081,12.917433300000994,12.920833100000891,12.920833100000891,13.391676899998856,14.506631699998252,14.506631699998252,z,0.5776335999980802,None,,,,,,,,,,,OAT_th,001,2025-03-12_16h35.09.762,MainFlow,2024.2.4,144.01979407948687,2025-03-12 16h35.37.189298 +0700,
1,46,0,word/wordth0461.png,image/False/imgf46.png,3,3,0,x,0.4113978999994288,None,0,3,3,3,15.092259699998976,,,,,,,16.59208089999811,16.095578799999203,16.09836119999818,16.09836119999818,16.586396899998363,17.71886760000052,17.71886760000052,x,0.4113978999994288,None,16.59208089999811,16.59208089999811,,,,,,,,,OAT_th,001,2025-03-12_16h35.09.762,MainFlow,2024.2.4,144.01979407948687,2025-03-12 16h35.37.189298 +0700,
1,24,1,word/wordth0241.png,image/True/img24.png,4,4,0,z,0.37369979999857605,None,0,4,4,4,18.14078149999841,,,,,,,19.640256800001225,19.145850699998846,19.148779499999364,19.148779499999364,19.63497880000068,20.72470809999868,20.72470809999868,z,0.37369979999857605,None,19.640256800001225,19.640256800001225,20.72470809999868,,,,,,,,OAT_th,001,2025-03-12_16h35.09.762,MainFlow,2024.2.4,144.01979407948687,2025-03-12 16h35.37.189298 +0700,
1,68,1,word/wordth0681.png,image/True/img68.png,5,5,0,z,0.40593470000021625,None,0,5,5,5,21.10592280000128,,,,,,,22.604876900000818,22.111318200000824,22.114055800000642,22.114055800000642,22.59960019999926,23.69038549999823,23.69038549999823,z,0.40593470000021625,None,22.604876900000818,22.604876900000818,23.69038549999823,,,,,,,,OAT_th,001,2025-03-12_16h35.09.762,MainFlow,2024.2.4,144.01979407948687,2025-03-12 16h35.37.189298 +0700,
1,22,0,word/wordth0221.png,image/False/imgf22.png,6,6,0,x,0.647962600000028,None,0,6,6,6,24.1045438000001,,,,,,,25.604269200001,25.108786199998576,25.11162719999993,25.11162719999993,25.598302200000035,26.730565099998785,26.730565099998785,x,0.647962600000028,None,25.604269200001,25.604269200001,,,,,,,,,OAT_th,001,2025-03-12_16h35.09.762,MainFlow,2024.2.4,144.01979407948687,2025-03-12 16h35.37.189298 +0700,
1,36,1,word/wordth0361.png,image/True/img36.png,7,7,0,x,0.4527622000023257,None,0,7,7,7,27.389767599997867,,,,,,,28.895171399999526,28.397505599998112,28.400205499998265,28.400205499998265,28.88898479999989,29.99155249999967,29.99155249999967,x,0.4527622000023257,None,,,28.400205499998265,,,,,,,,OAT_th,001,2025-03-12_16h35.09.762,MainFlow,2024.2.4,144.01979407948687,2025-03-12 16h35.37.189298 +0700,
1,68,0,word/wordth0681.png,image/False/imgf68.png,8,8,0,x,0.43449239999972633,None,0,8,8,8,30.45720739999888,,,,,,,31.957336499999656,31.46223249999821,31.465924500000256,31.465924500000256,31.951954000000114,33.04175109999778,33.04175109999778,x,0.43449239999972633,None,31.957336499999656,31.957336499999656,,,,,,,,,OAT_th,001,2025-03-12_16h35.09.762,MainFlow,2024.2.4,144.01979407948687,2025-03-12 16h35.37.189298 +0700,
1,16,1,word/wordth0161.png,image/True/img16.png,9,9,0,z,0.34754619999876013,None,0,9,9,9,33.48627299999862,,,,,,,34.984363999999914,34.491432499999064,34.49415279999812,34.49415279999812,34.97924069999863,36.12373970000044,36.12373970000044,z,0.34754619999876013,None,34.984363999999914,34.984363999999914,,,,,,,,,OAT_th,001,2025-03-12_16h35.09.762,MainFlow,2024.2.4,144.01979407948687,2025-03-12 16h35.37.189298 +0700,
1,94,1,word/wordth0941.png,image/True/img94.png,10,10,0,x,0.3079786999987846,None,0,10,10,10,36.4838333000007,,,,,,,37.98379049999858,37.48674359999859,37.48974610000005,37.48974610000005,37.97781499999837,39.09035260000019,39.09035260000019,x,0.3079786999987846,None,37.98379049999858,37.98379049999858,,,,,,,,,OAT_th,001,2025-03-12_16h35.09.762,MainFlow,2024.2.4,144.01979407948687,2025-03-12 16h35.37.189298 +0700,
1,95,0,word/wordth0951.png,image/False/imgf95.png,11,11,0,x,0.5579386999997951,None,0,11,11,11,39.40700310000102,,,,,,,40.90680430000066,40.40970329999982,40.41269259999899,40.41269259999899,40.901510899999266,42.03378059999886,42.03378059999886,x,0.5579386999997951,None,40.90680430000066,40.90680430000066,,,,,,,,,OAT_th,001,2025-03-12_16h35.09.762,MainFlow,2024.2.4,144.01979407948687,2025-03-12 16h35.37.189298 +0700,
1,30,0,word/wordth0301.png,image/False/imgf30.png,12,12,0,x,1.0098722000002454,None,0,12,12,12,42.600765899998805,,,,,,,44.10066999999981,43.60514669999975,43.60826349999843,43.60826349999843,44.09486660000039,45.216304099998524,45.216304099998524,x,1.0098722000002454,None,44.10066999999981,44.10066999999981,,,,,,,,,OAT_th,001,2025-03-12_16h35.09.762,MainFlow,2024.2.4,144.01979407948687,2025-03-12 16h35.37.189298 +0700,
1,20,1,word/wordth0201.png,image/True/img20.png,13,13,0,z,0.3869208999967668,None,0,13,13,13,46.232016199999634,,,,,,,47.725058199997875,47.22999709999931,47.23304300000018,47.23304300000018,47.71912140000131,48.87921170000118,48.87921170000118,z,0.3869208999967668,None,47.725058199997875,47.725058199997875,48.87921170000118,,,,,,,,OAT_th,001,2025-03-12_16h35.09.762,MainFlow,2024.2.4,144.01979407948687,2025-03-12 16h35.37.189298 +0700,
1,42,0,word/wordth0421.png,image/False/imgf42.png,14,14,0,z,0.5256028000003425,None,0,14,14,14,49.27309940000123,,,,,,,50.77979680000135,50.29326890000084,50.29656989999785,50.29656989999785,50.77336759999889,51.909167900001194,51.909167900001194,z,0.5256028000003425,None,,,,,,,,,,,OAT_th,001,2025-03-12_16h35.09.762,MainFlow,2024.2.4,144.01979407948687,2025-03-12 16h35.37.189298 +0700,
1,31,1,word/wordth0311.png,image/True/img31.png,15,15,0,z,0.60765739999988,None,0,15,15,15,52.44609710000077,,,,,,,53.93905799999993,53.44653330000074,53.44933880000099,53.44933880000099,53.93372869999803,55.06112750000102,55.06112750000102,z,0.60765739999988,None,53.93905799999993,53.93905799999993,55.06112750000102,,,,,,,,OAT_th,001,2025-03-12_16h35.09.762,MainFlow,2024.2.4,144.01979407948687,2025-03-12 16h35.37.189298 +0700,
1,55,1,word/wordth0551.png,image/True/img55.png,16,16,0,z,0.6661526999996568,None,0,16,16,16,55.67471989999831,,,,,,,57.174547300000995,56.67693710000094,56.68016069999794,56.68016069999794,57.16923970000062,58.32307379999838,58.32307379999838,z,0.6661526999996568,None,57.174547300000995,57.174547300000995,,,,,,,,,OAT_th,001,2025-03-12_16h35.09.762,MainFlow,2024.2.4,144.01979407948687,2025-03-12 16h35.37.189298 +0700,
1,36,1,word/wordth0361.png,image/True/img36.png,17,17,0,z,0.48489189999963855,None,0,17,17,17,59.0003704999981,,,,,,,60.49350779999804,59.997758199999225,60.001124999998865,60.001124999998865,60.48818150000079,61.59675140000036,61.59675140000036,z,0.48489189999963855,None,60.49350779999804,60.49350779999804,61.59675140000036,,,,,,,,OAT_th,001,2025-03-12_16h35.09.762,MainFlow,2024.2.4,144.01979407948687,2025-03-12 16h35.37.189298 +0700,
1,9,1,word/wordth0091.png,image/True/img09.png,18,18,0,z,0.4610614000011992,None,0,18,18,18,62.09005469999829,,,,,,,63.596769899999344,63.11198940000031,63.115354800000205,63.115354800000205,63.59037520000129,64.66152560000046,64.66152560000046,z,0.4610614000011992,None,,,,,,,,,,,OAT_th,001,2025-03-12_16h35.09.762,MainFlow,2024.2.4,144.01979407948687,2025-03-12 16h35.37.189298 +0700,
1,64,1,word/wordth0641.png,image/True/img64.png,19,19,0,z,0.4506309999997029,None,0,19,19,19,65.13360599999942,,,,,,,66.63828579999972,66.14340810000067,66.14707669999916,66.14707669999916,66.63217280000026,67.71667259999958,67.71667259999958,z,0.4506309999997029,None,,,,,,,,,,,OAT_th,001,2025-03-12_16h35.09.762,MainFlow,2024.2.4,144.01979407948687,2025-03-12 16h35.37.189298 +0700,
1,95,1,word/wordth0951.png,image/True/img95.png,20,20,0,z,0.41761229999974603,None,0,20,20,20,68.17996190000122,,,,,,,69.67204649999985,69.17733600000065,69.18067410000003,69.18067410000003,69.66680120000092,70.83056759999818,70.83056759999818,z,0.41761229999974603,None,69.67204649999985,69.67204649999985,70.83056759999818,,,,,,,,OAT_th,001,2025-03-12_16h35.09.762,MainFlow,2024.2.4,144.01979407948687,2025-03-12 16h35.37.189298 +0700,
1,41,1,word/wordth0411.png,image/True/img41.png,21,21,0,z,0.6470078999991529,None,0,21,21,21,71.25494919999983,,,,,,,72.75481560000117,72.25676910000038,72.25962869999785,72.25962869999785,72.74924819999796,73.87848559999838,73.87848559999838,z,0.6470078999991529,None,72.75481560000117,72.75481560000117,,,,,,,,,OAT_th,001,2025-03-12_16h35.09.762,MainFlow,2024.2.4,144.01979407948687,2025-03-12 16h35.37.189298 +0700,
1,8,1,word/wordth0081.png,image/True/img08.png,22,22,0,z,0.3109788000001572,None,0,22,22,22,74.53389429999879,,,,,,,76.03204460000052,75.53384770000048,75.53676540000015,75.53676540000015,76.0263836999984,77.12059389999922,77.12059389999922,z,0.3109788000001572,None,76.03204460000052,76.03204460000052,,,,,,,,,OAT_th,001,2025-03-12_16h35.09.762,MainFlow,2024.2.4,144.01979407948687,2025-03-12 16h35.37.189298 +0700,
1,60,1,word/wordth0601.png,image/True/img60.png,23,23,0,z,0.39788290000069537,None,0,23,23,23,77.44140490000063,,,,,,,78.94148149999819,78.44202099999893,78.44585039999947,78.44585039999947,78.93569360000038,80.0435733000013,80.0435733000013,z,0.39788290000069537,None,78.94148149999819,78.94148149999819,,,,,,,,,OAT_th,001,2025-03-12_16h35.09.762,MainFlow,2024.2.4,144.01979407948687,2025-03-12 16h35.37.189298 +0700,
1,48,0,word/wordth0481.png,image/False/imgf48.png,24,24,0,z,0.16516000000046915,None,0,24,24,24,80.44831770000019,,,,,,,81.94744680000076,81.45176319999882,81.4545403000011,81.4545403000011,81.94148280000081,83.10084550000101,83.10084550000101,z,0.16516000000046915,None,81.94744680000076,81.94744680000076,,,,,,,,,OAT_th,001,2025-03-12_16h35.09.762,MainFlow,2024.2.4,144.01979407948687,2025-03-12 16h35.37.189298 +0700,
1,41,0,word/wordth0411.png,image/False/imgf41.png,25,25,0,x,0.5686032999983581,None,0,25,25,25,83.27345939999941,,,,,,,84.76664800000071,84.26968599999964,84.27340600000025,84.27340600000025,84.76124179999897,85.85391900000104,85.85391900000104,x,0.5686032999983581,None,84.76664800000071,84.76664800000071,85.85391900000104,,,,,,,,OAT_th,001,2025-03-12_16h35.09.762,MainFlow,2024.2.4,144.01979407948687,2025-03-12 16h35.37.189298 +0700,
1,54,0,word/wordth0541.png,image/False/imgf54.png,26,26,0,z,0.367257800000516,None,0,26,26,26,86.43255900000077,,,,,,,87.93948100000125,87.45155570000134,87.45497039999827,87.45497039999827,87.93281660000139,89.04720090000046,89.04720090000046,z,0.367257800000516,None,,,,,,,,,,,OAT_th,001,2025-03-12_16h35.09.762,MainFlow,2024.2.4,144.01979407948687,2025-03-12 16h35.37.189298 +0700,
1,54,1,word/wordth0541.png,image/True/img54.png,27,27,0,x,0.4417262999995728,None,0,27,27,27,89.42702360000112,,,,,,,90.91782919999969,90.41972239999814,90.42302389999895,90.42302389999895,90.91203010000027,92.08146380000107,92.08146380000107,x,0.4417262999995728,None,90.91782919999969,90.91782919999969,92.08146380000107,,,,,,,,OAT_th,001,2025-03-12_16h35.09.762,MainFlow,2024.2.4,144.01979407948687,2025-03-12 16h35.37.189298 +0700,
1,63,0,word/wordth0631.png,image/False/imgf63.png,28,28,0,x,0.6774279000019305,None,0,28,28,28,92.53559160000077,,,,,,,94.03544529999999,93.53881890000048,93.5415295999992,93.5415295999992,94.0295260999992,95.18293360000098,95.18293360000098,x,0.6774279000019305,None,94.03544529999999,94.03544529999999,,,,,,,,,OAT_th,001,2025-03-12_16h35.09.762,MainFlow,2024.2.4,144.01979407948687,2025-03-12 16h35.37.189298 +0700,
1,37,0,word/wordth0371.png,image/False/imgf37.png,29,29,0,x,0.8462465999982669,None,0,29,29,29,95.86956899999859,,,,,,,97.36795780000102,96.87124779999795,96.87414989999888,96.87414989999888,97.36202799999955,98.52277160000085,98.52277160000085,x,0.8462465999982669,None,97.36795780000102,97.36795780000102,98.52277160000085,,,,,,,,OAT_th,001,2025-03-12_16h35.09.762,MainFlow,2024.2.4,144.01979407948687,2025-03-12 16h35.37.189298 +0700,
1,54,0,word/wordth0541.png,image/False/imgf54.png,30,30,0,x,0.4295313999973587,None,0,30,30,30,99.37615100000039,,,,,,,100.87462709999818,100.37838859999829,100.38239969999995,100.38239969999995,100.86930589999974,101.99322709999979,101.99322709999979,x,0.4295313999973587,None,100.87462709999818,100.87462709999818,101.99322709999979,,,,,,,,OAT_th,001,2025-03-12_16h35.09.762,MainFlow,2024.2.4,144.01979407948687,2025-03-12 16h35.37.189298 +0700,
1,48,1,word/wordth0481.png,image/True/img48.png,31,31,0,z,0.46593379999831086,None,0,31,31,31,102.42943419999938,,,,,,,103.91535830000066,103.42277800000011,103.42592779999904,103.42592779999904,103.90940490000139,105.04745809999804,105.04745809999804,z,0.46593379999831086,None,103.91535830000066,103.91535830000066,105.04745809999804,,,,,,,,OAT_th,001,2025-03-12_16h35.09.762,MainFlow,2024.2.4,144.01979407948687,2025-03-12 16h35.37.189298 +0700,
1,26,0,word/wordth0261.png,image/False/imgf26.png,32,32,0,x,0.6850102999997034,None,0,32,32,32,105.52608849999888,,,,,,,107.03272089999882,106.5489763000005,106.55223860000115,106.55223860000115,107.02633349999815,108.15967000000092,108.15967000000092,x,0.6850102999997034,None,,,,,,,,,,,OAT_th,001,2025-03-12_16h35.09.762,MainFlow,2024.2.4,144.01979407948687,2025-03-12 16h35.37.189298 +0700,
1,59,0,word/wordth0591.png,image/False/imgf59.png,33,33,0,z,0.41043310000168276,None,0,33,33,33,108.85194609999962,,,,,,,110.35867890000009,109.87447179999799,109.87784290000127,109.87784290000127,110.35230189999857,111.43413090000104,111.43413090000104,z,0.41043310000168276,None,,,,,,,,,,,OAT_th,001,2025-03-12_16h35.09.762,MainFlow,2024.2.4,144.01979407948687,2025-03-12 16h35.37.189298 +0700,
1,8,1,word/wordth0081.png,image/True/img08.png,34,34,0,z,0.552616199998738,None,0,34,34,34,111.85128899999836,,,,,,,113.3515077000011,112.85187919999953,112.85537159999876,112.85537159999876,113.3453628999996,114.43350229999851,114.43350229999851,z,0.552616199998738,None,113.3515077000011,113.3515077000011,,,,,,,,,OAT_th,001,2025-03-12_16h35.09.762,MainFlow,2024.2.4,144.01979407948687,2025-03-12 16h35.37.189298 +0700,
1,66,1,word/wordth0661.png,image/True/img66.png,35,35,0,z,0.4753188000031514,None,0,35,35,35,114.99641640000118,,,,,,,116.48930409999957,115.99287929999991,115.9962314000004,115.9962314000004,116.48349400000006,117.60582489999797,117.60582489999797,z,0.4753188000031514,None,116.48930409999957,116.48930409999957,117.60582489999797,,,,,,,,OAT_th,001,2025-03-12_16h35.09.762,MainFlow,2024.2.4,144.01979407948687,2025-03-12 16h35.37.189298 +0700,
1,24,0,word/wordth0241.png,image/False/imgf24.png,36,36,0,x,0.5476636999992479,None,0,36,36,36,118.09309650000068,,,,,,,119.58604610000111,119.09129939999912,119.09462429999985,119.09462429999985,119.57967469999858,120.72162929999831,120.72162929999831,x,0.5476636999992479,None,119.58604610000111,119.58604610000111,120.72162929999831,,,,,,,,OAT_th,001,2025-03-12_16h35.09.762,MainFlow,2024.2.4,144.01979407948687,2025-03-12 16h35.37.189298 +0700,
1,14,1,word/wordth0141.png,image/True/img14.png,37,37,0,z,0.38177790000190726,None,0,37,37,37,121.28091549999954,,,,,,,122.7867081000004,122.29690979999941,122.30034869999872,122.30034869999872,122.78036699999939,123.92943259999811,123.92943259999811,z,0.38177790000190726,None,,,,,,,,,,,OAT_th,001,2025-03-12_16h35.09.762,MainFlow,2024.2.4,144.01979407948687,2025-03-12 16h35.37.189298 +0700,
1,20,0,word/wordth0201.png,image/False/imgf20.png,38,38,0,x,0.5469814999996743,None,0,38,38,38,124.32106199999907,,,,,,,125.81412419999833,125.31801319999795,125.32177859999865,125.32177859999865,125.80886290000126,126.96773359999861,126.96773359999861,x,0.5469814999996743,None,125.81412419999833,125.81412419999833,126.96773359999861,,,,,,,,OAT_th,001,2025-03-12_16h35.09.762,MainFlow,2024.2.4,144.01979407948687,2025-03-12 16h35.37.189298 +0700,
1,89,0,word/wordth0891.png,image/False/imgf89.png,39,39,0,x,0.789271199999348,None,0,39,39,39,127.52182879999964,,,,,,,129.02176309999777,128.52359779999824,128.5264997000013,128.5264997000013,129.01576579999892,130.1291960999988,130.1291960999988,x,0.789271199999348,None,129.02176309999777,129.02176309999777,,,,,,,,,OAT_th,001,2025-03-12_16h35.09.762,MainFlow,2024.2.4,144.01979407948687,2025-03-12 16h35.37.189298 +0700,
1,64,0,word/wordth0641.png,image/False/imgf64.png,40,40,0,x,0.9314496999977564,None,0,40,40,40,130.93084409999938,,,,,,,132.4306175999991,131.93355800000063,131.93713859999843,131.93713859999843,132.4248555999984,133.5127051999989,133.5127051999989,x,0.9314496999977564,None,132.4306175999991,132.4306175999991,,,,,,,,,OAT_th,001,2025-03-12_16h35.09.762,MainFlow,2024.2.4,144.01979407948687,2025-03-12 16h35.37.189298 +0700,
1,56,1,word/wordth0561.png,image/True/img56.png,41,41,0,z,0.4454618000017945,None,0,41,41,41,134.45105949999925,,,,,,,135.94390289999865,135.4492797999992,135.45205559999886,135.45205559999886,135.9382564999978,137.06850190000114,137.06850190000114,z,0.4454618000017945,None,135.94390289999865,135.94390289999865,137.06850190000114,,,,,,,,OAT_th,001,2025-03-12_16h35.09.762,MainFlow,2024.2.4,144.01979407948687,2025-03-12 16h35.37.189298 +0700,
1,15,1,word/wordth0151.png,image/True/img15.png,42,42,0,z,0.42286109999986365,None,0,42,42,42,137.52230739999868,,,,,,,139.0265588000002,138.53189980000025,138.53474859999915,138.53474859999915,139.02015209999809,140.16277139999875,140.16277139999875,z,0.42286109999986365,None,,,138.53474859999915,,,,,,,,OAT_th,001,2025-03-12_16h35.09.762,MainFlow,2024.2.4,144.01979407948687,2025-03-12 16h35.37.189298 +0700,
1,88,0,word/wordth0881.png,image/False/imgf88.png,43,43,0,x,0.5513591000017186,None,0,43,43,43,140.59565870000006,,,,,,,142.0955580000009,141.60072619999846,141.6036415999988,141.6036415999988,142.08969100000104,143.2227410000014,143.2227410000014,x,0.5513591000017186,None,142.0955580000009,142.0955580000009,,,,,,,,,OAT_th,001,2025-03-12_16h35.09.762,MainFlow,2024.2.4,144.01979407948687,2025-03-12 16h35.37.189298 +0700,
1,94,1,word/wordth0941.png,image/True/img94.png,44,44,0,z,0.37273819999973057,None,0,44,44,44,143.78256260000126,,,,,,,145.27545009999812,144.77909329999966,144.78244079999786,144.78244079999786,145.26969169999938,146.39555230000042,146.39555230000042,z,0.37273819999973057,None,145.27545009999812,145.27545009999812,146.39555230000042,,,,,,,,OAT_th,001,2025-03-12_16h35.09.762,MainFlow,2024.2.4,144.01979407948687,2025-03-12 16h35.37.189298 +0700,
1,40,0,word/wordth0401.png,image/False/imgf40.png,45,45,0,x,0.5079656999987492,None,0,45,45,45,146.77686069999982,,,,,,,148.27477759999965,147.776340299999,147.77910519999932,147.77910519999932,148.26895689999947,149.4058753999998,149.4058753999998,x,0.5079656999987492,None,148.27477759999965,148.27477759999965,149.4058753999998,,,,,,,,OAT_th,001,2025-03-12_16h35.09.762,MainFlow,2024.2.4,144.01979407948687,2025-03-12 16h35.37.189298 +0700,
1,41,0,word/wordth0411.png,image/False/imgf41.png,46,46,0,x,0.6315662000015436,None,0,46,46,46,149.9203465999999,,,,,,,151.41301899999962,150.91510209999979,150.91846169999917,150.91846169999917,151.407144599998,152.50464079999801,152.50464079999801,x,0.6315662000015436,None,151.41301899999962,151.41301899999962,152.50464079999801,,,,,,,,OAT_th,001,2025-03-12_16h35.09.762,MainFlow,2024.2.4,144.01979407948687,2025-03-12 16h35.37.189298 +0700,
1,7,1,word/wordth0071.png,image/True/img07.png,47,47,0,z,0.5738325000020268,None,0,47,47,47,153.14885610000056,,,,,,,154.64870189999783,154.15142679999917,154.15430619999825,154.15430619999825,154.64292840000053,155.77064880000034,155.77064880000034,z,0.5738325000020268,None,154.64870189999783,154.64870189999783,,,,,,,,,OAT_th,001,2025-03-12_16h35.09.762,MainFlow,2024.2.4,144.01979407948687,2025-03-12 16h35.37.189298 +0700,
1,60,0,word/wordth0601.png,image/False/imgf60.png,48,48,0,z,0.28792729999986477,None,0,48,48,48,156.35652919999848,,,,,,,157.84944529999848,157.35697390000132,157.36041509999995,157.36041509999995,157.84366370000134,158.9708729999984,158.9708729999984,z,0.28792729999986477,None,157.84944529999848,157.84944529999848,158.9708729999984,,,,,,,,OAT_th,001,2025-03-12_16h35.09.762,MainFlow,2024.2.4,144.01979407948687,2025-03-12 16h35.37.189298 +0700,
1,23,0,word/wordth0231.png,image/False/imgf23.png,49,49,0,z,0.39756950000082725,None,0,49,49,49,159.26571469999908,,,,,,,160.7654720999999,160.27173060000132,160.27453909999895,160.27453909999895,160.75955799999792,161.91188859999966,161.91188859999966,z,0.39756950000082725,None,160.7654720999999,160.7654720999999,,,,,,,,,OAT_th,001,2025-03-12_16h35.09.762,MainFlow,2024.2.4,144.01979407948687,2025-03-12 16h35.37.189298 +0700,
1,68,0,word/wordth0681.png,image/False/imgf68.png,50,50,0,x,0.5655755999978282,None,0,50,50,50,162.32063750000088,,,,,,,163.81337730000087,163.32087730000057,163.32428119999895,163.32428119999895,163.8071248999986,164.90651760000037,164.90651760000037,x,0.5655755999978282,None,163.81337730000087,163.81337730000087,164.90651760000037,,,,,,,,OAT_th,001,2025-03-12_16h35.09.762,MainFlow,2024.2.4,144.01979407948687,2025-03-12 16h35.37.189298 +0700,
1,26,1,word/wordth0261.png,image/True/img26.png,51,51,0,z,0.5473235999997996,None,0,51,51,51,165.47978429999785,,,,,,,166.97952219999934,166.48372569999992,166.48753829999987,166.48753829999987,166.974349600001,168.1281553000008,168.1281553000008,z,0.5473235999997996,None,166.97952219999934,166.97952219999934,,,,,,,,,OAT_th,001,2025-03-12_16h35.09.762,MainFlow,2024.2.4,144.01979407948687,2025-03-12 16h35.37.189298 +0700,
1,89,0,word/wordth0891.png,image/False/imgf89.png,52,52,0,z,0.663891500000318,None,0,52,52,52,168.68741659999796,,,,,,,170.1804247,169.68445689999862,169.68817069999932,169.68817069999932,170.17484440000044,171.29188050000084,171.29188050000084,z,0.663891500000318,None,170.1804247,170.1804247,171.29188050000084,,,,,,,,OAT_th,001,2025-03-12_16h35.09.762,MainFlow,2024.2.4,144.01979407948687,2025-03-12 16h35.37.189298 +0700,
1,3,0,word/wordth0031.png,image/False/imgf03.png,53,53,0,x,0.567752200000541,None,0,53,53,53,171.96457490000103,,,,,,,173.4574790000006,172.9623361999984,172.965170200001,172.965170200001,173.4516866999984,174.57744019999882,174.57744019999882,x,0.567752200000541,None,173.4574790000006,173.4574790000006,174.57744019999882,,,,,,,,OAT_th,001,2025-03-12_16h35.09.762,MainFlow,2024.2.4,144.01979407948687,2025-03-12 16h35.37.189298 +0700,
1,55,1,word/wordth0551.png,image/True/img55.png,54,54,0,z,0.5199595000012778,None,0,54,54,54,175.15141909999875,,,,,,,176.63742790000106,176.1393738000006,176.14220449999993,176.14220449999993,176.63180869999997,177.77280609999798,177.77280609999798,z,0.5199595000012778,None,176.63742790000106,176.63742790000106,177.77280609999798,,,,,,,,OAT_th,001,2025-03-12_16h35.09.762,MainFlow,2024.2.4,144.01979407948687,2025-03-12 16h35.37.189298 +0700,
1,46,1,word/wordth0461.png,image/True/img46.png,55,55,0,z,0.38999390000026324,None,0,55,55,55,178.30370589999802,,,,,,,179.80343820000053,179.30626409999968,179.3096719999994,179.3096719999994,179.79763770000136,180.96755399999893,180.96755399999893,z,0.38999390000026324,None,179.80343820000053,179.80343820000053,,,,,,,,,OAT_th,001,2025-03-12_16h35.09.762,MainFlow,2024.2.4,144.01979407948687,2025-03-12 16h35.37.189298 +0700,
1,1,1,word/wordth0011.png,image/True/img01.png,56,56,0,z,0.4208065000020724,None,0,56,56,56,181.3655703000004,,,,,,,182.8652895999985,182.37118819999887,182.37420529999872,182.37420529999872,182.85949579999942,184.01254069999777,184.01254069999777,z,0.4208065000020724,None,182.8652895999985,182.8652895999985,,,,,,,,,OAT_th,001,2025-03-12_16h35.09.762,MainFlow,2024.2.4,144.01979407948687,2025-03-12 16h35.37.189298 +0700,
1,3,1,word/wordth0031.png,image/True/img03.png,57,57,0,z,0.5168989999983751,None,0,57,57,57,184.44136620000063,,,,,,,185.93441529999836,185.4416315999988,185.44505899999785,185.44505899999785,185.92918980000104,187.05904179999925,187.05904179999925,z,0.5168989999983751,None,185.93441529999836,185.93441529999836,187.05904179999925,,,,,,,,OAT_th,001,2025-03-12_16h35.09.762,MainFlow,2024.2.4,144.01979407948687,2025-03-12 16h35.37.189298 +0700,
1,76,1,word/wordth0761.png,image/True/img76.png,58,58,0,x,0.38294840000162367,None,0,58,58,58,187.58661439999923,,,,,,,189.08647239999846,188.59224619999804,188.5950535999982,188.5950535999982,189.08109219999824,190.1970153000002,190.1970153000002,x,0.38294840000162367,None,189.08647239999846,189.08647239999846,,,,,,,,,OAT_th,001,2025-03-12_16h35.09.762,MainFlow,2024.2.4,144.01979407948687,2025-03-12 16h35.37.189298 +0700,
1,52,0,word/wordth0521.png,image/False/imgf52.png,59,59,0,x,0.5582016999978805,None,0,59,59,59,190.58829390000028,,,,,,,192.09266410000055,191.59790079999948,191.6006598999993,191.6006598999993,192.08623219999936,193.20719739999913,193.20719739999913,x,0.5582016999978805,None,,,191.6006598999993,,,,,,,,OAT_th,001,2025-03-12_16h35.09.762,MainFlow,2024.2.4,144.01979407948687,2025-03-12 16h35.37.189298 +0700,
1,14,0,word/wordth0141.png,image/False/imgf14.png,60,60,0,x,0.5557789000013145,None,0,60,60,60,193.77292379999926,,,,,,,195.2657150999985,194.76888849999887,194.77214149999782,194.77214149999782,195.26012529999934,196.4111023000005,196.4111023000005,x,0.5557789000013145,None,195.2657150999985,195.2657150999985,196.4111023000005,,,,,,,,OAT_th,001,2025-03-12_16h35.09.762,MainFlow,2024.2.4,144.01979407948687,2025-03-12 16h35.37.189298 +0700,
1,61,1,word/wordth0611.png,image/True/img61.png,61,61,0,z,0.5018232000002172,None,0,61,61,61,196.9736574999988,,,,,,,198.47359230000075,197.97578620000058,197.97864199999822,197.97864199999822,198.46835709999868,199.60162679999848,199.60162679999848,z,0.5018232000002172,None,198.47359230000075,198.47359230000075,,,,,,,,,OAT_th,001,2025-03-12_16h35.09.762,MainFlow,2024.2.4,144.01979407948687,2025-03-12 16h35.37.189298 +0700,
1,93,0,word/wordth0931.png,image/False/imgf93.png,62,62,0,x,0.6632976000000781,None,0,62,62,62,200.11186720000114,,,,,,,201.61864229999992,201.13129130000016,201.13475059999837,201.13475059999837,201.61222609999822,202.70679139999993,202.70679139999993,x,0.6632976000000781,None,,,,,,,,,,,OAT_th,001,2025-03-12_16h35.09.762,MainFlow,2024.2.4,144.01979407948687,2025-03-12 16h35.37.189298 +0700,
1,37,1,word/wordth0371.png,image/True/img37.png,63,63,0,z,0.5472886999996263,None,0,63,63,63,203.38290380000035,,,,,,,204.8749203999978,204.38220379999984,204.38579749999917,204.38579749999917,204.86912920000032,206.02410539999983,206.02410539999983,z,0.5472886999996263,None,204.8749203999978,204.8749203999978,206.02410539999983,,,,,,,,OAT_th,001,2025-03-12_16h35.09.762,MainFlow,2024.2.4,144.01979407948687,2025-03-12 16h35.37.189298 +0700,
1,79,0,word/wordth0791.png,image/False/imgf79.png,64,64,0,x,0.6973461000015959,None,0,64,64,64,206.58295879999787,,,,,,,208.08275380000123,207.5852534000005,207.58809109999856,207.58809109999856,208.0774777000006,209.20997830000124,209.20997830000124,x,0.6973461000015959,None,208.08275380000123,208.08275380000123,,,,,,,,,OAT_th,001,2025-03-12_16h35.09.762,MainFlow,2024.2.4,144.01979407948687,2025-03-12 16h35.37.189298 +0700,
1,37,0,word/wordth0371.png,image/False/imgf37.png,65,65,0,x,0.5931510000009439,None,0,65,65,65,209.91755519999788,,,,,,,211.40138419999857,210.9087541000008,210.91251769999872,210.91251769999872,211.3958128000013,212.55339149999782,212.55339149999782,x,0.5931510000009439,None,211.40138419999857,211.40138419999857,212.55339149999782,,,,,,,,OAT_th,001,2025-03-12_16h35.09.762,MainFlow,2024.2.4,144.01979407948687,2025-03-12 16h35.37.189298 +0700,
1,3,1,word/wordth0031.png,image/True/img03.png,66,66,0,z,0.4323096000007354,None,0,66,66,66,213.15793959999792,,,,,,,214.65095959999962,214.15279699999883,214.15627379999933,214.15627379999933,214.64542079999956,215.7751610999985,215.7751610999985,z,0.4323096000007354,None,214.65095959999962,214.65095959999962,215.7751610999985,,,,,,,,OAT_th,001,2025-03-12_16h35.09.762,MainFlow,2024.2.4,144.01979407948687,2025-03-12 16h35.37.189298 +0700,
1,93,0,word/wordth0931.png,image/False/imgf93.png,67,67,0,x,0.5562433999984933,None,0,67,67,67,216.21985660000064,,,,,,,217.71307789999992,217.21453539999857,217.21780220000073,217.21780220000073,217.70689800000036,218.81177089999983,218.81177089999983,x,0.5562433999984933,None,217.71307789999992,217.71307789999992,218.81177089999983,,,,,,,,OAT_th,001,2025-03-12_16h35.09.762,MainFlow,2024.2.4,144.01979407948687,2025-03-12 16h35.37.189298 +0700,
1,30,1,word/wordth0301.png,image/True/img30.png,68,68,0,z,0.5714857999992091,None,0,68,68,68,219.37943929999892,,,,,,,220.86492069999804,220.36957559999792,220.37237579999783,220.37237579999783,220.8590327999991,221.99785419999898,221.99785419999898,z,0.5714857999992091,None,220.86492069999804,220.86492069999804,221.99785419999898,,,,,,,,OAT_th,001,2025-03-12_16h35.09.762,MainFlow,2024.2.4,144.01979407948687,2025-03-12 16h35.37.189298 +0700,
1,46,0,word/wordth0461.png,image/False/imgf46.png,69,69,0,x,0.736505799999577,None,0,69,69,69,222.57986579999852,,,,,,,224.0795023999999,223.5838522999984,223.58753439999782,223.58753439999782,224.07377749999796,225.21988000000056,225.21988000000056,x,0.736505799999577,None,224.0795023999999,224.0795023999999,,,,,,,,,OAT_th,001,2025-03-12_16h35.09.762,MainFlow,2024.2.4,144.01979407948687,2025-03-12 16h35.37.189298 +0700,
1,27,0,word/wordth0271.png,image/False/imgf27.png,70,70,0,x,0.6522246999993513,None,0,70,70,70,225.96806780000043,,,,,,,227.46791989999838,226.9727591999981,226.97569139999905,226.97569139999905,227.46263199999885,228.57531440000093,228.57531440000093,x,0.6522246999993513,None,227.46791989999838,227.46791989999838,,,,,,,,,OAT_th,001,2025-03-12_16h35.09.762,MainFlow,2024.2.4,144.01979407948687,2025-03-12 16h35.37.189298 +0700,
1,37,1,word/wordth0371.png,image/True/img37.png,71,71,0,z,0.48042329999952926,None,0,71,71,71,229.23825109999962,,,,,,,230.73117400000046,230.23717659999966,230.2406959,230.2406959,230.72529239999858,231.88767449999796,231.88767449999796,z,0.48042329999952926,None,230.73117400000046,230.73117400000046,231.88767449999796,,,,,,,,OAT_th,001,2025-03-12_16h35.09.762,MainFlow,2024.2.4,144.01979407948687,2025-03-12 16h35.37.189298 +0700,
1,20,1,word/wordth0201.png,image/True/img20.png,72,72,0,z,0.5503124999995634,None,0,72,72,72,232.37647110000034,,,,,,,233.86940279999908,233.37456419999944,233.378512700001,233.378512700001,233.86427429999821,234.99831890000132,234.99831890000132,z,0.5503124999995634,None,233.86940279999908,233.86940279999908,234.99831890000132,,,,,,,,OAT_th,001,2025-03-12_16h35.09.762,MainFlow,2024.2.4,144.01979407948687,2025-03-12 16h35.37.189298 +0700,
1,17,1,word/wordth0171.png,image/True/img17.png,73,73,0,z,0.37850600000092527,None,0,73,73,73,235.55644409999877,,,,,,,237.05614419999984,236.5616470999994,236.5644070999988,236.5644070999988,237.05023520000032,238.17807790000006,238.17807790000006,z,0.37850600000092527,None,237.05614419999984,237.05614419999984,,,,,,,,,OAT_th,001,2025-03-12_16h35.09.762,MainFlow,2024.2.4,144.01979407948687,2025-03-12 16h35.37.189298 +0700,
1,10,0,word/wordth0101.png,image/False/imgf10.png,74,74,0,z,0.35313049999967916,None,0,74,74,74,238.56285180000123,,,,,,,240.0626435000013,239.56800060000023,239.57078710000133,239.57078710000133,240.0571577999981,241.19349850000071,241.19349850000071,z,0.35313049999967916,None,240.0626435000013,240.0626435000013,,,,,,,,,OAT_th,001,2025-03-12_16h35.09.762,MainFlow,2024.2.4,144.01979407948687,2025-03-12 16h35.37.189298 +0700,
1,68,1,word/wordth0681.png,image/True/img68.png,75,75,0,z,0.5790720000004512,None,0,75,75,75,241.5552490000009,,,,,,,243.04128109999874,242.54819169999973,242.55164879999938,242.55164879999938,243.0359099999987,244.1352470999991,244.1352470999991,z,0.5790720000004512,None,243.04128109999874,243.04128109999874,244.1352470999991,,,,,,,,OAT_th,001,2025-03-12_16h35.09.762,MainFlow,2024.2.4,144.01979407948687,2025-03-12 16h35.37.189298 +0700,
1,82,0,word/wordth0821.png,image/False/imgf82.png,76,76,0,z,0.582508899999084,None,0,76,76,76,244.72182199999952,,,,,,,246.22134449999794,245.72263589999784,245.72549330000038,245.72549330000038,246.216113399998,247.34017120000135,247.34017120000135,z,0.582508899999084,None,246.22134449999794,246.22134449999794,,,,,,,,,OAT_th,001,2025-03-12_16h35.09.762,MainFlow,2024.2.4,144.01979407948687,2025-03-12 16h35.37.189298 +0700,
1,42,1,word/wordth0421.png,image/True/img42.png,77,77,0,x,0.6137739999976475,None,0,77,77,77,247.92901899999924,,,,,,,249.42191040000034,248.9280429999999,248.93132949999926,248.93132949999926,249.41640669999833,250.5749469000002,250.5749469000002,x,0.6137739999976475,None,249.42191040000034,249.42191040000034,250.5749469000002,,,,,,,,OAT_th,001,2025-03-12_16h35.09.762,MainFlow,2024.2.4,144.01979407948687,2025-03-12 16h35.37.189298 +0700,
1,59,1,word/wordth0591.png,image/True/img59.png,78,78,0,z,0.6851270999977714,None,0,78,78,78,251.19913330000054,,,,,,,252.69202610000139,252.19495319999987,252.19827090000035,252.19827090000035,252.686243199998,253.78991880000103,253.78991880000103,z,0.6851270999977714,None,252.69202610000139,252.69202610000139,253.78991880000103,,,,,,,,OAT_th,001,2025-03-12_16h35.09.762,MainFlow,2024.2.4,144.01979407948687,2025-03-12 16h35.37.189298 +0700,
1,18,1,word/wordth0181.png,image/True/img18.png,79,79,0,z,0.6903093000000808,None,0,79,79,79,254.48341570000048,,,,,,,255.98310769999807,255.48952149999968,255.49358519999805,255.49358519999805,255.97785149999982,257.0819761999992,257.0819761999992,z,0.6903093000000808,None,255.98310769999807,255.98310769999807,,,,,,,,,OAT_th,001,2025-03-12_16h35.09.762,MainFlow,2024.2.4,144.01979407948687,2025-03-12 16h35.37.189298 +0700,
1,63,1,word/wordth0631.png,image/True/img63.png,80,80,0,z,0.5209830000021611,None,0,80,80,80,257.78312619999997,,,,,,,259.2742799000007,258.78022630000123,258.7839101999998,258.7839101999998,259.26829350000116,260.41671850000057,260.41671850000057,z,0.5209830000021611,None,259.2742799000007,259.2742799000007,260.41671850000057,,,,,,,,OAT_th,001,2025-03-12_16h35.09.762,MainFlow,2024.2.4,144.01979407948687,2025-03-12 16h35.37.189298 +0700,
1,40,0,word/wordth0401.png,image/False/imgf40.png,81,81,0,x,0.5555975000024773,None,0,81,81,81,260.94735220000075,,,,,,,262.44733650000126,261.9494114000008,261.95303299999796,261.95303299999796,262.442031999999,263.5676253999991,263.5676253999991,x,0.5555975000024773,None,262.44733650000126,262.44733650000126,,,,,,,,,OAT_th,001,2025-03-12_16h35.09.762,MainFlow,2024.2.4,144.01979407948687,2025-03-12 16h35.37.189298 +0700,
1,55,0,word/wordth0551.png,image/False/imgf55.png,82,82,0,z,0.7551450999999361,None,0,82,82,82,264.13424029999805,,,,,,,265.62728739999875,265.12922700000126,265.1326384999993,265.1326384999993,265.6219308,266.74712889999864,266.74712889999864,z,0.7551450999999361,None,265.62728739999875,265.62728739999875,266.74712889999864,,,,,,,,OAT_th,001,2025-03-12_16h35.09.762,MainFlow,2024.2.4,144.01979407948687,2025-03-12 16h35.37.189298 +0700,
1,26,1,word/wordth0261.png,image/True/img26.png,83,83,0,z,1.5538239999987127,None,0,83,83,83,267.5085478000001,,,,,,,269.00137950000135,268.50364179999815,268.50694699999804,268.50694699999804,268.9956368999992,270.14024150000114,270.14024150000114,z,1.5538239999987127,None,269.00137950000135,269.00137950000135,270.14024150000114,,,,,,,,OAT_th,001,2025-03-12_16h35.09.762,MainFlow,2024.2.4,144.01979407948687,2025-03-12 16h35.37.189298 +0700,
1,28,0,word/wordth0281.png,image/False/imgf28.png,84,84,0,x,0.5663198999973247,None,0,84,84,84,271.70272710000063,,,,,,,273.1951975999982,272.7001428000003,272.7029541000011,272.7029541000011,273.1898771999986,274.312023399998,274.312023399998,x,0.5663198999973247,None,273.1951975999982,273.1951975999982,274.312023399998,,,,,,,,OAT_th,001,2025-03-12_16h35.09.762,MainFlow,2024.2.4,144.01979407948687,2025-03-12 16h35.37.189298 +0700,
1,8,0,word/wordth0081.png,image/False/imgf08.png,85,85,0,x,0.613718799999333,None,0,85,85,85,274.8891599999988,,,,,,,276.381880500001,275.8872886999998,275.89060840000093,275.89060840000093,276.3759338999989,277.4871841999993,277.4871841999993,x,0.613718799999333,None,276.381880500001,276.381880500001,277.4871841999993,,,,,,,,OAT_th,001,2025-03-12_16h35.09.762,MainFlow,2024.2.4,144.01979407948687,2025-03-12 16h35.37.189298 +0700,
1,9,1,word/wordth0091.png,image/True/img09.png,86,86,0,z,0.8358245000017632,None,0,86,86,86,278.11071489999813,,,,,,,279.61056520000056,279.11170149999816,279.11518960000103,279.11518960000103,279.60531569999876,280.6879498999988,280.6879498999988,z,0.8358245000017632,None,279.61056520000056,279.61056520000056,280.6879498999988,,,,,,,,OAT_th,001,2025-03-12_16h35.09.762,MainFlow,2024.2.4,144.01979407948687,2025-03-12 16h35.37.189298 +0700,
1,78,1,word/wordth0781.png,image/True/img78.png,87,87,0,z,0.41041430000041146,None,0,87,87,87,281.5336893999993,,,,,,,283.03355100000044,282.5387038999979,282.5419277000001,282.5419277000001,283.02768880000076,284.1480730000003,284.1480730000003,z,0.41041430000041146,None,283.03355100000044,283.03355100000044,,,,,,,,,OAT_th,001,2025-03-12_16h35.09.762,MainFlow,2024.2.4,144.01979407948687,2025-03-12 16h35.37.189298 +0700,
1,1,0,word/wordth0011.png,image/False/imgf01.png,88,88,0,x,0.5398371999981464,None,0,88,88,88,284.5676683999991,,,,,,,286.0538321999993,285.5553350000009,285.5580799999989,285.5580799999989,286.04796649999844,287.186190299999,287.186190299999,x,0.5398371999981464,None,286.0538321999993,286.0538321999993,287.186190299999,,,,,,,,OAT_th,001,2025-03-12_16h35.09.762,MainFlow,2024.2.4,144.01979407948687,2025-03-12 16h35.37.189298 +0700,
1,71,1,word/wordth0711.png,image/True/img71.png,89,89,0,z,0.6608553000005486,None,0,89,89,89,287.7337805999996,,,,,,,289.21985459999996,288.72796649999873,288.7307346999987,288.7307346999987,289.213888899998,290.36736250000104,290.36736250000104,z,0.6608553000005486,None,289.21985459999996,289.21985459999996,290.36736250000104,,,,,,,,OAT_th,001,2025-03-12_16h35.09.762,MainFlow,2024.2.4,144.01979407948687,2025-03-12 16h35.37.189298 +0700,
1,93,1,word/wordth0931.png,image/True/img93.png,90,90,0,z,0.48925190000227303,None,0,90,90,90,291.03871960000106,,,,,,,292.5315081000008,292.0372940999987,292.04063379999934,292.04063379999934,292.525673600001,293.634678800001,293.634678800001,z,0.48925190000227303,None,292.5315081000008,292.5315081000008,293.634678800001,,,,,,,,OAT_th,001,2025-03-12_16h35.09.762,MainFlow,2024.2.4,144.01979407948687,2025-03-12 16h35.37.189298 +0700,
1,78,0,word/wordth0781.png,image/False/imgf78.png,91,91,0,x,0.46020299999872805,None,0,91,91,91,294.1354047999994,,,,,,,295.63527819999945,295.13579279999976,295.13953709999987,295.13953709999987,295.6300502000013,296.7285860999982,296.7285860999982,x,0.46020299999872805,None,295.63527819999945,295.63527819999945,,,,,,,,,OAT_th,001,2025-03-12_16h35.09.762,MainFlow,2024.2.4,144.01979407948687,2025-03-12 16h35.37.189298 +0700,
1,8,0,word/wordth0081.png,image/False/imgf08.png,92,92,0,x,0.6581752999991295,None,0,92,92,92,297.19726570000057,,,,,,,298.6834364999995,298.1895130999983,298.192584299999,298.192584299999,298.67812889999914,299.7849395999983,299.7849395999983,x,0.6581752999991295,None,298.6834364999995,298.6834364999995,299.7849395999983,,,,,,,,OAT_th,001,2025-03-12_16h35.09.762,MainFlow,2024.2.4,144.01979407948687,2025-03-12 16h35.37.189298 +0700,
1,9,0,word/wordth0091.png,image/False/imgf09.png,93,93,0,x,0.42197049999958836,None,0,93,93,93,300.4534722999997,,,,,,,301.9466547999982,301.44776959999945,301.4510184999999,301.4510184999999,301.94126400000096,303.0391262000012,303.0391262000012,x,0.42197049999958836,None,301.9466547999982,301.9466547999982,303.0391262000012,,,,,,,,OAT_th,001,2025-03-12_16h35.09.762,MainFlow,2024.2.4,144.01979407948687,2025-03-12 16h35.37.189298 +0700,
1,75,1,word/wordth0751.png,image/True/img75.png,94,94,0,z,0.6735786999997799,None,0,94,94,94,303.46696950000114,,,,,,,304.966754699999,304.46851740000056,304.4712576999991,304.4712576999991,304.9614318999993,306.09160939999856,306.09160939999856,z,0.6735786999997799,None,304.966754699999,304.966754699999,,,,,,,,,OAT_th,001,2025-03-12_16h35.09.762,MainFlow,2024.2.4,144.01979407948687,2025-03-12 16h35.37.189298 +0700,
1,95,0,word/wordth0951.png,image/False/imgf95.png,95,95,0,x,0.47998050000023795,None,0,95,95,95,306.7720767999999,,,,,,,308.2647608999978,307.7683797999998,307.7722974999997,307.7722974999997,308.25949430000037,309.3977984000012,309.3977984000012,x,0.47998050000023795,None,308.2647608999978,308.2647608999978,309.3977984000012,,,,,,,,OAT_th,001,2025-03-12_16h35.09.762,MainFlow,2024.2.4,144.01979407948687,2025-03-12 16h35.37.189298 +0700,
1,70,1,word/wordth0701.png,image/True/img70.png,96,96,0,z,0.608241399997496,None,0,96,96,96,309.8893656,,,,,,,311.389134699999,310.89462139999887,310.89811779999945,310.89811779999945,311.3831954999987,312.5268438999992,312.5268438999992,z,0.608241399997496,None,311.389134699999,311.389134699999,,,,,,,,,OAT_th,001,2025-03-12_16h35.09.762,MainFlow,2024.2.4,144.01979407948687,2025-03-12 16h35.37.189298 +0700,
1,94,0,word/wordth0941.png,image/False/imgf94.png,97,97,0,x,0.47637619999659364,None,0,97,97,97,313.1455172999995,,,,,,,314.6387684000001,314.1418181000008,314.14532549999785,314.14532549999785,314.6332896999993,315.8172228000003,315.8172228000003,x,0.47637619999659364,None,314.6387684000001,314.6387684000001,315.8172228000003,,,,,,,,OAT_th,001,2025-03-12_16h35.09.762,MainFlow,2024.2.4,144.01979407948687,2025-03-12 16h35.37.189298 +0700,
1,9,0,word/wordth0091.png,image/False/imgf09.png,98,98,0,x,0.5207413999996788,None,0,98,98,98,316.3077325000013,,,,,,,317.80436499999996,317.3063489999986,317.3097620999979,317.3097620999979,317.79818689999956,318.8845872999991,318.8845872999991,x,0.5207413999996788,None,317.80436499999996,317.80436499999996,,,,,,,,,OAT_th,001,2025-03-12_16h35.09.762,MainFlow,2024.2.4,144.01979407948687,2025-03-12 16h35.37.189298 +0700,
1,18,0,word/wordth0181.png,image/False/imgf18.png,99,99,0,x,0.5854789999975765,None,0,99,99,99,319.4152544999997,,,,,,,320.9079563999985,320.40978610000093,320.4131654999983,320.4131654999983,320.90214840000044,322.0174014000004,322.0174014000004,x,0.5854789999975765,None,320.9079563999985,320.9079563999985,322.0174014000004,,,,,,,,OAT_th,001,2025-03-12_16h35.09.762,MainFlow,2024.2.4,144.01979407948687,2025-03-12 16h35.37.189298 +0700,
1,28,1,word/wordth0281.png,image/True/img28.png,100,100,0,z,0.7868228999977873,None,0,100,100,100,322.61240199999884,,,,,,,324.1086899000002,323.61620089999997,323.61952689999816,323.61952689999816,324.10254540000096,325.2536985000006,325.2536985000006,z,0.7868228999977873,None,324.1086899000002,324.1086899000002,325.2536985000006,,,,,,,,OAT_th,001,2025-03-12_16h35.09.762,MainFlow,2024.2.4,144.01979407948687,2025-03-12 16h35.37.189298 +0700,
1,23,1,word/wordth0231.png,image/True/img23.png,101,101,0,z,0.6928014000004623,None,0,101,101,101,326.05276030000095,,,,,,,327.5526456000007,327.05514760000005,327.0585863999986,327.0585863999986,327.5474265999983,328.67096949999905,328.67096949999905,z,0.6928014000004623,None,327.5526456000007,327.5526456000007,,,,,,,,,OAT_th,001,2025-03-12_16h35.09.762,MainFlow,2024.2.4,144.01979407948687,2025-03-12 16h35.37.189298 +0700,
1,30,0,word/wordth0301.png,image/False/imgf30.png,102,102,0,x,0.7519713000001502,None,0,102,102,102,329.3717622000004,,,,,,,330.8645738000014,330.3698908000006,330.3737335000005,330.3737335000005,330.85879170000044,331.97580989999915,331.97580989999915,x,0.7519713000001502,None,330.8645738000014,330.8645738000014,331.97580989999915,,,,,,,,OAT_th,001,2025-03-12_16h35.09.762,MainFlow,2024.2.4,144.01979407948687,2025-03-12 16h35.37.189298 +0700,
1,11,1,word/wordth0111.png,image/True/img11.png,103,103,0,z,0.4414842000005592,None,0,103,103,103,332.73898650000046,,,,,,,334.2389660000008,333.74288549999983,333.7457465000007,333.7457465000007,334.2335712999993,335.3839110000008,335.3839110000008,z,0.4414842000005592,None,334.2389660000008,334.2389660000008,,,,,,,,,OAT_th,001,2025-03-12_16h35.09.762,MainFlow,2024.2.4,144.01979407948687,2025-03-12 16h35.37.189298 +0700,
1,75,0,word/wordth0751.png,image/False/imgf75.png,104,104,0,x,0.8857733999975608,None,0,104,104,104,335.8356636999997,,,,,,,337.33547270000054,336.836189499998,336.83963239999866,336.83963239999866,337.3295211000004,338.46024599999873,338.46024599999873,x,0.8857733999975608,None,337.33547270000054,337.33547270000054,,,,,,,,,OAT_th,001,2025-03-12_16h35.09.762,MainFlow,2024.2.4,144.01979407948687,2025-03-12 16h35.37.189298 +0700,
1,6,0,word/wordth0061.png,image/False/imgf06.png,105,105,0,z,0.4096739000015077,None,0,105,105,105,339.35575120000067,,,,,,,340.848552200001,340.3539348999984,340.35665900000095,340.35665900000095,340.84271309999895,341.95126359999995,341.95126359999995,z,0.4096739000015077,None,340.848552200001,340.848552200001,341.95126359999995,,,,,,,,OAT_th,001,2025-03-12_16h35.09.762,MainFlow,2024.2.4,144.01979407948687,2025-03-12 16h35.37.189298 +0700,
1,27,1,word/wordth0271.png,image/True/img27.png,106,106,0,z,0.5063919000021997,None,0,106,106,106,342.36919299999863,,,,,,,343.8619283000007,343.366620599998,343.3699005999988,343.3699005999988,343.85627569999997,344.97230109999873,344.97230109999873,z,0.5063919000021997,None,343.8619283000007,343.8619283000007,344.97230109999873,,,,,,,,OAT_th,001,2025-03-12_16h35.09.762,MainFlow,2024.2.4,144.01979407948687,2025-03-12 16h35.37.189298 +0700,
1,1,1,word/wordth0011.png,image/True/img01.png,107,107,0,z,0.5155644999977085,None,0,107,107,107,345.4885389999981,,,,,,,346.9724118999984,346.4776735000014,346.4810092999978,346.4810092999978,346.96627309999894,348.10557849999896,348.10557849999896,z,0.5155644999977085,None,346.9724118999984,346.9724118999984,348.10557849999896,,,,,,,,OAT_th,001,2025-03-12_16h35.09.762,MainFlow,2024.2.4,144.01979407948687,2025-03-12 16h35.37.189298 +0700,
1,44,0,word/wordth0441.png,image/False/imgf44.png,108,108,0,x,0.49337240000022575,None,0,108,108,108,348.6317128999981,,,,,,,350.1316717000009,349.6381145000014,349.64095499999894,349.64095499999894,350.1264678000007,351.27046659999905,351.27046659999905,x,0.49337240000022575,None,350.1316717000009,350.1316717000009,,,,,,,,,OAT_th,001,2025-03-12_16h35.09.762,MainFlow,2024.2.4,144.01979407948687,2025-03-12 16h35.37.189298 +0700,
1,48,0,word/wordth0481.png,image/False/imgf48.png,109,109,0,x,0.6999109999997017,None,0,109,109,109,351.77248099999997,,,,,,,353.26286080000136,352.76894489999904,352.7725117000009,352.7725117000009,353.2572064999986,354.40697889999865,354.40697889999865,x,0.6999109999997017,None,353.26286080000136,353.26286080000136,354.40697889999865,,,,,,,,OAT_th,001,2025-03-12_16h35.09.762,MainFlow,2024.2.4,144.01979407948687,2025-03-12 16h35.37.189298 +0700,
1,60,0,word/wordth0601.png,image/False/imgf60.png,110,110,0,x,0.5580415000003995,None,0,110,110,110,355.116702299998,,,,,,,356.60953660000087,356.11196420000124,356.1152915999992,356.1152915999992,356.603476100001,357.72445629999856,357.72445629999856,x,0.5580415000003995,None,356.60953660000087,356.60953660000087,357.72445629999856,,,,,,,,OAT_th,001,2025-03-12_16h35.09.762,MainFlow,2024.2.4,144.01979407948687,2025-03-12 16h35.37.189298 +0700,
1,96,1,word/wordth0961.png,image/True/img96.png,111,111,0,z,0.5830222999975376,None,0,111,111,111,358.28976690000127,,,,,,,359.7823080999988,359.284182899999,359.28748939999787,359.28748939999787,359.77631760000077,360.92676740000024,360.92676740000024,z,0.5830222999975376,None,359.7823080999988,359.7823080999988,360.92676740000024,,,,,,,,OAT_th,001,2025-03-12_16h35.09.762,MainFlow,2024.2.4,144.01979407948687,2025-03-12 16h35.37.189298 +0700,
1,79,0,word/wordth0791.png,image/False/imgf79.png,112,112,0,x,1.179588999999396,None,0,112,112,112,361.518553599999,,,,,,,363.01093390000096,362.5170806999995,362.5205270000006,362.5205270000006,363.00553450000007,364.1388846000009,364.1388846000009,x,1.179588999999396,None,363.01093390000096,363.01093390000096,364.1388846000009,,,,,,,,OAT_th,001,2025-03-12_16h35.09.762,MainFlow,2024.2.4,144.01979407948687,2025-03-12 16h35.37.189298 +0700,
1,7,0,word/wordth0071.png,image/False/imgf07.png,113,113,0,x,0.5869921000012255,None,0,113,113,113,365.33226419999846,,,,,,,366.82277089999843,366.3298227999985,366.33357989999786,366.33357989999786,366.81755189999967,367.9489824000011,367.9489824000011,x,0.5869921000012255,None,366.82277089999843,366.82277089999843,367.9489824000011,,,,,,,,OAT_th,001,2025-03-12_16h35.09.762,MainFlow,2024.2.4,144.01979407948687,2025-03-12 16h35.37.189298 +0700,
1,36,0,word/wordth0361.png,image/False/imgf36.png,114,114,0,x,0.7969589999993332,None,0,114,114,114,368.5445805999989,,,,,,,370.0375944999978,369.5419124,369.5453649999981,369.5453649999981,370.0319649000012,371.1667080999978,371.1667080999978,x,0.7969589999993332,None,370.0375944999978,370.0375944999978,371.1667080999978,,,,,,,,OAT_th,001,2025-03-12_16h35.09.762,MainFlow,2024.2.4,144.01979407948687,2025-03-12 16h35.37.189298 +0700,
1,71,0,word/wordth0711.png,image/False/imgf71.png,115,115,0,x,0.9293852000009792,None,0,115,115,115,371.9743445999993,,,,,,,373.47446449999916,372.9756914999998,372.9791516000005,372.9791516000005,373.4684551999999,374.62573669999983,374.62573669999983,x,0.9293852000009792,None,373.47446449999916,373.47446449999916,,,,,,,,,OAT_th,001,2025-03-12_16h35.09.762,MainFlow,2024.2.4,144.01979407948687,2025-03-12 16h35.37.189298 +0700,
1,20,0,word/wordth0201.png,image/False/imgf20.png,116,116,0,x,0.4733651999995345,None,0,116,116,116,375.5667332999983,,,,,,,377.0569852000008,376.55885489999855,376.562203999998,376.562203999998,377.0510805999984,378.20059129999936,378.20059129999936,x,0.4733651999995345,None,377.0569852000008,377.0569852000008,378.20059129999936,,,,,,,,OAT_th,001,2025-03-12_16h35.09.762,MainFlow,2024.2.4,144.01979407948687,2025-03-12 16h35.37.189298 +0700,
1,87,1,word/wordth0871.png,image/True/img87.png,117,117,0,z,0.5236899000010453,None,0,117,117,117,378.68144050000046,,,,,,,380.18814120000025,379.69052490000104,379.6941837000013,379.6941837000013,380.18196700000044,381.34252859999833,381.34252859999833,z,0.5236899000010453,None,,,,,,,,,,,OAT_th,001,2025-03-12_16h35.09.762,MainFlow,2024.2.4,144.01979407948687,2025-03-12 16h35.37.189298 +0700,
1,50,0,word/wordth0501.png,image/False/imgf50.png,118,118,0,x,0.629722399997263,None,0,118,118,118,381.875441199998,,,,,,,383.38205599999856,382.89564569999857,382.89883499999996,382.89883499999996,383.37551840000015,384.4889225000006,384.4889225000006,x,0.629722399997263,None,,,,,,,,,,,OAT_th,001,2025-03-12_16h35.09.762,MainFlow,2024.2.4,144.01979407948687,2025-03-12 16h35.37.189298 +0700,
1,18,1,word/wordth0181.png,image/True/img18.png,119,119,0,z,0.5137469999972382,None,0,119,119,119,385.12472929999785,,,,,,,386.6176044999993,386.1200561000005,386.12347690000024,386.12347690000024,386.61164759999883,387.719540099999,387.719540099999,z,0.5137469999972382,None,386.6176044999993,386.6176044999993,387.719540099999,,,,,,,,OAT_th,001,2025-03-12_16h35.09.762,MainFlow,2024.2.4,144.01979407948687,2025-03-12 16h35.37.189298 +0700,
1,71,0,word/wordth0711.png,image/False/imgf71.png,120,120,0,x,0.5613622999990184,None,0,120,120,120,388.2421046999989,,,,,,,389.7350770000012,389.2418188999982,389.24515170000086,389.24515170000086,389.72943849999865,390.8732468999988,390.8732468999988,x,0.5613622999990184,None,389.7350770000012,389.7350770000012,390.8732468999988,,,,,,,,OAT_th,001,2025-03-12_16h35.09.762,MainFlow,2024.2.4,144.01979407948687,2025-03-12 16h35.37.189298 +0700,
1,46,1,word/wordth0461.png,image/True/img46.png,121,121,0,z,0.7673504000013054,None,0,121,121,121,391.44307520000075,,,,,,,392.942731799998,392.4447218999994,392.44825649999984,392.44825649999984,392.93743990000075,394.07827349999934,394.07827349999934,z,0.7673504000013054,None,392.942731799998,392.942731799998,,,,,,,,,OAT_th,001,2025-03-12_16h35.09.762,MainFlow,2024.2.4,144.01979407948687,2025-03-12 16h35.37.189298 +0700,
1,10,1,word/wordth0101.png,image/True/img10.png,122,122,0,z,0.6448080999980448,None,0,122,122,122,394.85439549999865,,,,,,,396.3516920000002,395.8538258000008,395.8574273000013,395.8574273000013,396.3461212000002,397.48609320000105,397.48609320000105,z,0.6448080999980448,None,396.3516920000002,396.3516920000002,397.48609320000105,,,,,,,,OAT_th,001,2025-03-12_16h35.09.762,MainFlow,2024.2.4,144.01979407948687,2025-03-12 16h35.37.189298 +0700,
1,16,0,word/wordth0161.png,image/False/imgf16.png,123,123,0,x,0.6498836999999185,None,0,123,123,123,398.14318699999785,,,,,,,399.6358207999983,399.137926899999,399.14121140000134,399.14121140000134,399.630286399999,400.78516070000114,400.78516070000114,x,0.6498836999999185,None,399.6358207999983,399.6358207999983,400.78516070000114,,,,,,,,OAT_th,001,2025-03-12_16h35.09.762,MainFlow,2024.2.4,144.01979407948687,2025-03-12 16h35.37.189298 +0700,
1,15,0,word/wordth0151.png,image/False/imgf15.png,124,124,0,x,0.6948811000002024,None,0,124,124,124,401.441038500001,,,,,,,402.92697169999883,402.42801060000056,402.43099240000083,402.43099240000083,402.92167659999905,404.0621792999991,404.0621792999991,x,0.6948811000002024,None,402.92697169999883,402.92697169999883,404.0621792999991,,,,,,,,OAT_th,001,2025-03-12_16h35.09.762,MainFlow,2024.2.4,144.01979407948687,2025-03-12 16h35.37.189298 +0700,
1,59,0,word/wordth0591.png,image/False/imgf59.png,125,125,0,x,0.5655990999985079,None,0,125,125,125,404.766721699998,,,,,,,406.25978659999964,405.7632350999993,405.7665737999996,405.7665737999996,406.25440009999875,407.3520728000003,407.3520728000003,x,0.5655990999985079,None,406.25978659999964,406.25978659999964,407.3520728000003,,,,,,,,OAT_th,001,2025-03-12_16h35.09.762,MainFlow,2024.2.4,144.01979407948687,2025-03-12 16h35.37.189298 +0700,
1,11,0,word/wordth0111.png,image/False/imgf11.png,126,126,0,x,0.8016098000007332,None,0,126,126,126,407.9278669999985,,,,,,,409.4254940999999,408.9291587000007,408.93280400000003,408.93280400000003,409.41932050000105,410.5846562000006,410.5846562000006,x,0.8016098000007332,None,409.4254940999999,409.4254940999999,,,,,,,,,OAT_th,001,2025-03-12_16h35.09.762,MainFlow,2024.2.4,144.01979407948687,2025-03-12 16h35.37.189298 +0700,
1,75,1,word/wordth0751.png,image/True/img75.png,127,127,0,z,0.8137182999998913,None,0,127,127,127,411.3973674000008,,,,,,,412.89017539999986,412.3966342999993,412.3998709999978,412.3998709999978,412.8844170000011,414.01039469999887,414.01039469999887,z,0.8137182999998913,None,412.89017539999986,412.89017539999986,414.01039469999887,,,,,,,,OAT_th,001,2025-03-12_16h35.09.762,MainFlow,2024.2.4,144.01979407948687,2025-03-12 16h35.37.189298 +0700,
1,33,1,word/wordth0331.png,image/True/img33.png,128,128,0,x,0.5056743999994069,None,0,128,128,128,414.8341999000004,,,,,,,416.3409802999995,415.84997060000023,415.8533189000009,415.8533189000009,416.33474999999817,417.4831133000007,417.4831133000007,x,0.5056743999994069,None,,,,,,,,,,,OAT_th,001,2025-03-12_16h35.09.762,MainFlow,2024.2.4,144.01979407948687,2025-03-12 16h35.37.189298 +0700,
1,66,0,word/wordth0661.png,image/False/imgf66.png,129,129,0,x,0.6145327999984147,None,0,129,129,129,418.000359499998,,,,,,,419.4931155999984,418.99745319999784,419.0007368000006,419.0007368000006,419.48789490000127,420.6303853999998,420.6303853999998,x,0.6145327999984147,None,419.4931155999984,419.4931155999984,420.6303853999998,,,,,,,,OAT_th,001,2025-03-12_16h35.09.762,MainFlow,2024.2.4,144.01979407948687,2025-03-12 16h35.37.189298 +0700,
1,38,1,word/wordth0381.png,image/True/img38.png,130,130,0,z,0.41561640000145417,None,0,130,130,130,421.2566009000002,,,,,,,422.76347239999814,422.271374699998,422.2749040999988,422.2749040999988,422.757387499998,423.88331599999947,423.88331599999947,z,0.41561640000145417,None,,,,,,,,,,,OAT_th,001,2025-03-12_16h35.09.762,MainFlow,2024.2.4,144.01979407948687,2025-03-12 16h35.37.189298 +0700,
1,38,1,word/wordth0381.png,image/True/img38.png,131,131,0,z,0.5104739999987942,None,0,131,131,131,424.3046897999993,,,,,,,425.8045517999999,425.3066327999986,425.3100364999991,425.3100364999991,425.7986696000007,426.9109524000014,426.9109524000014,z,0.5104739999987942,None,425.8045517999999,425.8045517999999,,,,,,,,,OAT_th,001,2025-03-12_16h35.09.762,MainFlow,2024.2.4,144.01979407948687,2025-03-12 16h35.37.189298 +0700,
1,63,1,word/wordth0631.png,image/True/img63.png,132,132,0,z,0.8271713999965868,None,0,132,132,132,427.4290046999995,,,,,,,428.92190520000077,428.4241817000002,428.42760030000136,428.42760030000136,428.9166246999994,430.0430140999997,430.0430140999997,z,0.8271713999965868,None,428.92190520000077,428.92190520000077,430.0430140999997,,,,,,,,OAT_th,001,2025-03-12_16h35.09.762,MainFlow,2024.2.4,144.01979407948687,2025-03-12 16h35.37.189298 +0700,
1,33,0,word/wordth0331.png,image/False/imgf33.png,133,133,0,z,0.4693547999995644,None,0,133,133,133,430.87976569999955,,,,,,,432.3724680000014,431.87780629999907,431.8811081999993,431.8811081999993,432.36668160000045,433.52073999999993,433.52073999999993,z,0.4693547999995644,None,432.3724680000014,432.3724680000014,433.52073999999993,,,,,,,,OAT_th,001,2025-03-12_16h35.09.762,MainFlow,2024.2.4,144.01979407948687,2025-03-12 16h35.37.189298 +0700,
1,52,1,word/wordth0521.png,image/True/img52.png,134,134,0,z,0.44835650000095484,None,0,134,134,134,433.9972229999985,,,,,,,435.4906744,434.99348819999796,434.99705579999863,434.99705579999863,435.4841226999997,436.65414560000136,436.65414560000136,z,0.44835650000095484,None,435.4906744,435.4906744,436.65414560000136,,,,,,,,OAT_th,001,2025-03-12_16h35.09.762,MainFlow,2024.2.4,144.01979407948687,2025-03-12 16h35.37.189298 +0700,
1,11,0,word/wordth0111.png,image/False/imgf11.png,135,135,0,z,1.06820019999941,None,0,135,135,135,437.1146344000008,,,,,,,438.61431829999856,438.1156536999988,438.1191565000008,438.1191565000008,438.6081563000007,439.7503202000007,439.7503202000007,z,1.06820019999941,None,438.61431829999856,438.61431829999856,,,,,,,,,OAT_th,001,2025-03-12_16h35.09.762,MainFlow,2024.2.4,144.01979407948687,2025-03-12 16h35.37.189298 +0700,
1,1,0,word/wordth0011.png,image/False/imgf01.png,136,136,0,x,0.5728405000008934,None,0,136,136,136,440.82912769999893,,,,,,,442.3222256000008,441.8273182000012,441.8307166000013,441.8307166000013,442.31693409999934,443.42950930000006,443.42950930000006,x,0.5728405000008934,None,442.3222256000008,442.3222256000008,443.42950930000006,,,,,,,,OAT_th,001,2025-03-12_16h35.09.762,MainFlow,2024.2.4,144.01979407948687,2025-03-12 16h35.37.189298 +0700,
1,96,0,word/wordth0961.png,image/False/imgf96.png,137,137,0,x,0.550379399999656,None,0,137,137,137,444.0111754999998,,,,,,,445.4949588999989,444.99988609999855,445.0026362999997,445.0026362999997,445.48913999999786,446.6532226999989,446.6532226999989,x,0.550379399999656,None,445.4949588999989,445.4949588999989,446.6532226999989,,,,,,,,OAT_th,001,2025-03-12_16h35.09.762,MainFlow,2024.2.4,144.01979407948687,2025-03-12 16h35.37.189298 +0700,
1,57,1,word/wordth0571.png,image/True/img57.png,138,138,0,z,0.6216346000001067,None,0,138,138,138,447.21214490000057,,,,,,,448.71660789999805,448.2300178000005,448.2333510999997,448.2333510999997,448.71015500000067,449.83215199999904,449.83215199999904,z,0.6216346000001067,None,,,,,,,,,,,OAT_th,001,2025-03-12_16h35.09.762,MainFlow,2024.2.4,144.01979407948687,2025-03-12 16h35.37.189298 +0700,
1,30,1,word/wordth0301.png,image/True/img30.png,139,139,0,z,0.4607657000015024,None,0,139,139,139,450.46633089999887,,,,,,,451.965924600001,451.46933929999796,451.473303499999,451.473303499999,451.96011519999956,453.064314700001,453.064314700001,z,0.4607657000015024,None,451.965924600001,451.965924600001,,,,,,,,,OAT_th,001,2025-03-12_16h35.09.762,MainFlow,2024.2.4,144.01979407948687,2025-03-12 16h35.37.189298 +0700,
1,41,1,word/wordth0411.png,image/True/img41.png,140,140,0,z,0.46207699999649776,None,0,140,140,140,453.5350968999992,,,,,,,455.02782429999934,454.53035660000023,454.5337612000003,454.5337612000003,455.02207160000034,456.1527638000007,456.1527638000007,z,0.46207699999649776,None,455.02782429999934,455.02782429999934,456.1527638000007,,,,,,,,OAT_th,001,2025-03-12_16h35.09.762,MainFlow,2024.2.4,144.01979407948687,2025-03-12 16h35.37.189298 +0700,
1,50,1,word/wordth0501.png,image/True/img50.png,141,141,0,z,0.6707270000006247,None,0,141,141,141,456.62474799999836,,,,,,,458.11777449999863,457.6240919999982,457.62742340000113,457.62742340000113,458.1116440000005,459.268250000001,459.268250000001,z,0.6707270000006247,None,458.11777449999863,458.11777449999863,459.268250000001,,,,,,,,OAT_th,001,2025-03-12_16h35.09.762,MainFlow,2024.2.4,144.01979407948687,2025-03-12 16h35.37.189298 +0700,
1,3,0,word/wordth0031.png,image/False/imgf03.png,142,142,0,x,0.4598561000020709,None,0,142,142,142,459.9504229999984,,,,,,,461.44344959999944,460.94689740000103,460.95018229999914,460.95018229999914,461.4381031000012,462.56390190000093,462.56390190000093,x,0.4598561000020709,None,461.44344959999944,461.44344959999944,462.56390190000093,,,,,,,,OAT_th,001,2025-03-12_16h35.09.762,MainFlow,2024.2.4,144.01979407948687,2025-03-12 16h35.37.189298 +0700,
1,78,1,word/wordth0781.png,image/True/img78.png,143,143,0,z,0.32563500000105705,None,0,143,143,143,463.03325140000015,,,,,,,464.52597799999785,464.03093929999886,464.0342854999981,464.0342854999981,464.52014190000045,465.6452747000003,465.6452747000003,z,0.32563500000105705,None,464.52597799999785,464.52597799999785,465.6452747000003,,,,,,,,OAT_th,001,2025-03-12_16h35.09.762,MainFlow,2024.2.4,144.01979407948687,2025-03-12 16h35.37.189298 +0700,
1,76,0,word/wordth0761.png,image/False/imgf76.png,144,144,0,z,0.4233495000007679,None,0,144,144,144,465.97969340000054,,,,,,,467.47689270000046,466.98135009999896,466.98470409999936,466.98470409999936,467.47134970000116,468.625233499999,468.625233499999,z,0.4233495000007679,None,467.47689270000046,467.47689270000046,468.625233499999,,,,,,,,OAT_th,001,2025-03-12_16h35.09.762,MainFlow,2024.2.4,144.01979407948687,2025-03-12 16h35.37.189298 +0700,
1,6,1,word/wordth0061.png,image/True/img06.png,145,145,0,z,0.3695942999984254,None,0,145,145,145,469.0616504999998,,,,,,,470.55283469999995,470.0545579999998,470.0575150000004,470.0575150000004,470.54759980000017,471.6750764999997,471.6750764999997,z,0.3695942999984254,None,470.55283469999995,470.55283469999995,471.6750764999997,,,,,,,,OAT_th,001,2025-03-12_16h35.09.762,MainFlow,2024.2.4,144.01979407948687,2025-03-12 16h35.37.189298 +0700,
1,31,0,word/wordth0311.png,image/False/imgf31.png,146,146,0,x,0.6381481000025815,None,0,146,146,146,472.0523260000009,,,,,,,473.54529379999803,473.0517848999989,473.05505730000004,473.05505730000004,473.54019680000056,474.648827099998,474.648827099998,x,0.6381481000025815,None,473.54529379999803,473.54529379999803,474.648827099998,,,,,,,,OAT_th,001,2025-03-12_16h35.09.762,MainFlow,2024.2.4,144.01979407948687,2025-03-12 16h35.37.189298 +0700,
1,22,0,word/wordth0221.png,image/False/imgf22.png,147,147,0,x,0.5482602000010957,None,0,147,147,147,475.2947392999995,,,,,,,476.78752560000066,476.29204759999993,476.29576839999936,476.29576839999936,476.7817843999983,477.92128740000044,477.92128740000044,x,0.5482602000010957,None,476.78752560000066,476.78752560000066,477.92128740000044,,,,,,,,OAT_th,001,2025-03-12_16h35.09.762,MainFlow,2024.2.4,144.01979407948687,2025-03-12 16h35.37.189298 +0700,
1,28,0,word/wordth0281.png,image/False/imgf28.png,148,148,0,x,1.1653026999993017,None,0,148,148,148,478.48171269999875,,,,,,,479.9813428999987,479.48457269999926,479.4881534999986,479.4881534999986,479.9755007999993,481.0909580000007,481.0909580000007,x,1.1653026999993017,None,479.9813428999987,479.9813428999987,,,,,,,,,OAT_th,001,2025-03-12_16h35.09.762,MainFlow,2024.2.4,144.01979407948687,2025-03-12 16h35.37.189298 +0700,
1,57,0,word/wordth0571.png,image/False/imgf57.png,149,149,0,x,0.7807021999979042,None,0,149,149,149,482.2657250000011,,,,,,,483.7653262999993,483.26874099999986,483.27234529999987,483.27234529999987,483.75945299999876,484.9093673999996,484.9093673999996,x,0.7807021999979042,None,483.7653262999993,483.7653262999993,,,,,,,,,OAT_th,001,2025-03-12_16h35.09.762,MainFlow,2024.2.4,144.01979407948687,2025-03-12 16h35.37.189298 +0700,
1,7,0,word/wordth0071.png,image/False/imgf07.png,150,150,0,x,0.5969191000003775,None,0,150,150,150,485.70241090000127,,,,,,,487.1952506999987,486.6970012999991,486.70040080000035,486.70040080000035,487.1893053999993,488.30459859999974,488.30459859999974,x,0.5969191000003775,None,487.1952506999987,487.1952506999987,488.30459859999974,,,,,,,,OAT_th,001,2025-03-12_16h35.09.762,MainFlow,2024.2.4,144.01979407948687,2025-03-12 16h35.37.189298 +0700,
1,56,1,word/wordth0561.png,image/True/img56.png,151,151,0,z,0.4233525000017835,None,0,151,151,151,488.91013499999826,,,,,,,490.4032496,489.90623229999983,489.9094777999999,489.9094777999999,490.3979154000008,491.51793259999977,491.51793259999977,z,0.4233525000017835,None,490.4032496,490.4032496,491.51793259999977,,,,,,,,OAT_th,001,2025-03-12_16h35.09.762,MainFlow,2024.2.4,144.01979407948687,2025-03-12 16h35.37.189298 +0700,
1,6,0,word/wordth0061.png,image/False/imgf06.png,152,152,0,z,0.3969442000015988,None,0,152,152,152,491.95118899999943,,,,,,,493.4440276999994,492.9454134999978,492.94864790000065,492.94864790000065,493.43805430000066,494.5444587999991,494.5444587999991,z,0.3969442000015988,None,493.4440276999994,493.4440276999994,494.5444587999991,,,,,,,,OAT_th,001,2025-03-12_16h35.09.762,MainFlow,2024.2.4,144.01979407948687,2025-03-12 16h35.37.189298 +0700,
1,36,0,word/wordth0361.png,image/False/imgf36.png,153,153,0,x,0.6484122000001662,None,0,153,153,153,494.9524502999993,,,,,,,496.4433989999998,495.95093160000033,495.95428099999845,495.95428099999845,496.437468600001,497.5583329000001,497.5583329000001,x,0.6484122000001662,None,496.4433989999998,496.4433989999998,497.5583329000001,,,,,,,,OAT_th,001,2025-03-12_16h35.09.762,MainFlow,2024.2.4,144.01979407948687,2025-03-12 16h35.37.189298 +0700,
1,79,1,word/wordth0791.png,image/True/img79.png,154,154,0,z,0.5015452000006917,None,0,154,154,154,498.2139810000008,,,,,,,499.7137638999993,499.2155610000009,499.2190440000013,499.2190440000013,499.70769120000114,500.8606328999995,500.8606328999995,z,0.5015452000006917,None,499.7137638999993,499.7137638999993,,,,,,,,,OAT_th,001,2025-03-12_16h35.09.762,MainFlow,2024.2.4,144.01979407948687,2025-03-12 16h35.37.189298 +0700,
1,52,0,word/wordth0521.png,image/False/imgf52.png,155,155,0,z,0.46981119999691145,None,0,155,155,155,501.3730246999985,,,,,,,502.8657405999984,502.37172199999986,502.37520460000087,502.37520460000087,502.85955209999884,503.9700749000003,503.9700749000003,z,0.46981119999691145,None,502.8657405999984,502.8657405999984,503.9700749000003,,,,,,,,OAT_th,001,2025-03-12_16h35.09.762,MainFlow,2024.2.4,144.01979407948687,2025-03-12 16h35.37.189298 +0700,
1,18,0,word/wordth0181.png,image/False/imgf18.png,156,156,0,x,1.1779655999998795,None,0,156,156,156,504.45175759999984,,,,,,,505.94179489999806,505.4464654000003,505.4496862999986,505.4496862999986,505.93650069999785,507.05294069999945,507.05294069999945,x,1.1779655999998795,None,505.94179489999806,505.94179489999806,507.05294069999945,,,,,,,,OAT_th,001,2025-03-12_16h35.09.762,MainFlow,2024.2.4,144.01979407948687,2025-03-12 16h35.37.189298 +0700,
1,23,1,word/wordth0231.png,image/True/img23.png,157,157,0,z,0.5198825999977998,None,0,157,157,157,508.24040500000046,,,,,,,509.73264930000005,509.2346687999998,509.23802090000027,509.23802090000027,509.727031800001,510.8464869999989,510.8464869999989,z,0.5198825999977998,None,509.73264930000005,509.73264930000005,510.8464869999989,,,,,,,,OAT_th,001,2025-03-12_16h35.09.762,MainFlow,2024.2.4,144.01979407948687,2025-03-12 16h35.37.189298 +0700,
1,61,1,word/wordth0611.png,image/True/img61.png,158,158,0,z,0.6193264000030467,None,0,158,158,158,511.378156499999,,,,,,,512.8640387000014,512.3709563000011,512.3737896999992,512.3737896999992,512.8580629999997,513.9823858999989,513.9823858999989,z,0.6193264000030467,None,512.8640387000014,512.8640387000014,513.9823858999989,,,,,,,,OAT_th,001,2025-03-12_16h35.09.762,MainFlow,2024.2.4,144.01979407948687,2025-03-12 16h35.37.189298 +0700,
1,44,1,word/wordth0441.png,image/True/img44.png,159,159,0,z,0.9371577999991132,None,0,159,159,159,514.6136821,,,,,,,516.1064079999996,515.6110216999987,515.6147816000012,515.6147816000012,516.1010681000007,517.2391103000009,517.2391103000009,z,0.9371577999991132,None,516.1064079999996,516.1064079999996,517.2391103000009,,,,,,,,OAT_th,001,2025-03-12_16h35.09.762,MainFlow,2024.2.4,144.01979407948687,2025-03-12 16h35.37.189298 +0700,
1,10,1,word/wordth0101.png,image/True/img10.png,160,160,0,z,0.6344781999978295,None,0,160,160,160,518.1823724999995,,,,,,,519.6750036000012,519.1812153999999,519.1845145000007,519.1845145000007,519.6690261000003,520.7869543999986,520.7869543999986,z,0.6344781999978295,None,519.6750036000012,519.6750036000012,520.7869543999986,,,,,,,,OAT_th,001,2025-03-12_16h35.09.762,MainFlow,2024.2.4,144.01979407948687,2025-03-12 16h35.37.189298 +0700,
1,31,1,word/wordth0311.png,image/True/img31.png,161,161,0,z,0.4721285000014177,None,0,161,161,161,521.4315744999985,,,,,,,522.9314548000002,522.4344038999989,522.438197200001,522.438197200001,522.9262181999984,524.0300729999981,524.0300729999981,z,0.4721285000014177,None,522.9314548000002,522.9314548000002,,,,,,,,,OAT_th,001,2025-03-12_16h35.09.762,MainFlow,2024.2.4,144.01979407948687,2025-03-12 16h35.37.189298 +0700,
1,14,0,word/wordth0141.png,image/False/imgf14.png,162,162,0,x,0.4077768000024662,None,0,162,162,162,524.5143561000004,,,,,,,526.0140395999988,525.5154551999985,525.5189820999985,525.5189820999985,526.0080491999979,527.120474299998,527.120474299998,x,0.4077768000024662,None,526.0140395999988,526.0140395999988,,,,,,,,,OAT_th,001,2025-03-12_16h35.09.762,MainFlow,2024.2.4,144.01979407948687,2025-03-12 16h35.37.189298 +0700,
1,15,0,word/wordth0151.png,image/False/imgf15.png,163,163,0,x,0.6899588999986008,None,0,163,163,163,527.5345935000005,,,,,,,529.027474999999,528.5345106999994,528.5381147999979,528.5381147999979,529.021854300001,530.145317999999,530.145317999999,x,0.6899588999986008,None,529.027474999999,529.027474999999,530.145317999999,,,,,,,,OAT_th,001,2025-03-12_16h35.09.762,MainFlow,2024.2.4,144.01979407948687,2025-03-12 16h35.37.189298 +0700,
1,51,1,word/wordth0511.png,image/True/img51.png,164,164,0,z,0.7523269999983313,None,0,164,164,164,530.8486152000005,,,,,,,532.3392211999999,531.8465362999996,531.8498641000006,531.8498641000006,532.3332367000003,533.5068337999983,533.5068337999983,z,0.7523269999983313,None,532.3392211999999,532.3392211999999,533.5068337999983,,,,,,,,OAT_th,001,2025-03-12_16h35.09.762,MainFlow,2024.2.4,144.01979407948687,2025-03-12 16h35.37.189298 +0700,
1,82,1,word/wordth0821.png,image/True/img82.png,165,165,0,z,0.6562080000003334,None,0,165,165,165,534.2695209999983,,,,,,,535.7621517000007,535.2675345999996,535.2703253,535.2703253,535.7563756999989,536.8682128,536.8682128,z,0.6562080000003334,None,535.7621517000007,535.7621517000007,536.8682128,,,,,,,,OAT_th,001,2025-03-12_16h35.09.762,MainFlow,2024.2.4,144.01979407948687,2025-03-12 16h35.37.189298 +0700,
1,27,0,word/wordth0271.png,image/False/imgf27.png,166,166,0,x,0.5417305000009947,None,0,166,166,166,537.5329325999992,,,,,,,539.0185516999991,538.5199085999993,538.5228380999979,538.5228380999979,539.0132516000012,540.1304085999982,540.1304085999982,x,0.5417305000009947,None,539.0185516999991,539.0185516999991,540.1304085999982,,,,,,,,OAT_th,001,2025-03-12_16h35.09.762,MainFlow,2024.2.4,144.01979407948687,2025-03-12 16h35.37.189298 +0700,
1,78,0,word/wordth0781.png,image/False/imgf78.png,167,167,0,x,0.8178640000005544,None,0,167,167,167,540.6857515999982,,,,,,,542.1778919999997,541.6805515999986,541.6840453000004,541.6840453000004,542.1727204999988,543.2722595000014,543.2722595000014,x,0.8178640000005544,None,542.1778919999997,542.1778919999997,543.2722595000014,,,,,,,,OAT_th,001,2025-03-12_16h35.09.762,MainFlow,2024.2.4,144.01979407948687,2025-03-12 16h35.37.189298 +0700,
1,89,1,word/wordth0891.png,image/True/img89.png,168,168,0,z,1.1939934999973048,None,0,168,168,168,544.1008947000009,,,,,,,545.5938248999992,545.095441999998,545.0988023999998,545.0988023999998,545.5878701000001,546.7199383000006,546.7199383000006,z,1.1939934999973048,None,545.5938248999992,545.5938248999992,546.7199383000006,,,,,,,,OAT_th,001,2025-03-12_16h35.09.762,MainFlow,2024.2.4,144.01979407948687,2025-03-12 16h35.37.189298 +0700,
1,76,1,word/wordth0761.png,image/True/img76.png,169,169,0,z,1.0563407999979972,None,0,169,169,169,547.9224042999995,,,,,,,549.4262312999999,548.929683899998,548.9332107000009,548.9332107000009,549.4198011000008,550.5324546000011,550.5324546000011,z,1.0563407999979972,None,,,548.9332107000009,,,,,,,,OAT_th,001,2025-03-12_16h35.09.762,MainFlow,2024.2.4,144.01979407948687,2025-03-12 16h35.37.189298 +0700,
1,17,0,word/wordth0171.png,image/False/imgf17.png,170,170,0,x,0.4153632000015932,None,0,170,170,170,551.5993615999978,,,,,,,553.0923180999998,552.596843700001,552.6001909000006,552.6001909000006,553.0869530999989,554.2442377999978,554.2442377999978,x,0.4153632000015932,None,553.0923180999998,553.0923180999998,554.2442377999978,,,,,,,,OAT_th,001,2025-03-12_16h35.09.762,MainFlow,2024.2.4,144.01979407948687,2025-03-12 16h35.37.189298 +0700,
1,95,1,word/wordth0951.png,image/True/img95.png,171,171,0,z,0.5275982999992266,None,0,171,171,171,554.6685417999979,,,,,,,556.1610556999985,555.6634124000011,555.6668619000011,555.6668619000011,556.1554718000007,557.3114659999992,557.3114659999992,z,0.5275982999992266,None,556.1610556999985,556.1610556999985,557.3114659999992,,,,,,,,OAT_th,001,2025-03-12_16h35.09.762,MainFlow,2024.2.4,144.01979407948687,2025-03-12 16h35.37.189298 +0700,
1,61,0,word/wordth0611.png,image/False/imgf61.png,172,172,0,z,0.5450786999972479,None,0,172,172,172,557.8482937999979,,,,,,,559.3407958999996,558.8444791000002,558.8477729000006,558.8477729000006,559.3346323000005,560.4934530999999,560.4934530999999,z,0.5450786999972479,None,559.3407958999996,559.3407958999996,560.4934530999999,,,,,,,,OAT_th,001,2025-03-12_16h35.09.762,MainFlow,2024.2.4,144.01979407948687,2025-03-12 16h35.37.189298 +0700,
1,82,1,word/wordth0821.png,image/True/img82.png,173,173,0,z,0.39669920000233105,None,0,173,173,173,561.0489835999979,,,,,,,562.5419465000014,562.0469937999987,562.0506729000008,562.0506729000008,562.5362935000012,563.6108877000006,563.6108877000006,z,0.39669920000233105,None,562.5419465000014,562.5419465000014,563.6108877000006,,,,,,,,OAT_th,001,2025-03-12_16h35.09.762,MainFlow,2024.2.4,144.01979407948687,2025-03-12 16h35.37.189298 +0700,
1,14,1,word/wordth0141.png,image/True/img14.png,174,174,0,z,0.5054390000004787,None,0,174,174,174,564.0136602999992,,,,,,,565.5065211000001,565.0114089999988,565.0147337999988,565.0147337999988,565.5005631999993,566.6347596999985,566.6347596999985,z,0.5054390000004787,None,565.5065211000001,565.5065211000001,566.6347596999985,,,,,,,,OAT_th,001,2025-03-12_16h35.09.762,MainFlow,2024.2.4,144.01979407948687,2025-03-12 16h35.37.189298 +0700,
1,38,0,word/wordth0381.png,image/False/imgf38.png,175,175,0,x,0.5729781999980332,None,0,175,175,175,567.1519146999999,,,,,,,568.6447249999983,568.1497416999991,568.1530125999998,568.1530125999998,568.6388578000006,569.8225290999981,569.8225290999981,x,0.5729781999980332,None,568.6447249999983,568.6447249999983,569.8225290999981,,,,,,,,OAT_th,001,2025-03-12_16h35.09.762,MainFlow,2024.2.4,144.01979407948687,2025-03-12 16h35.37.189298 +0700,
1,17,0,word/wordth0171.png,image/False/imgf17.png,176,176,0,x,0.9160449999981211,None,0,176,176,176,570.4015967000014,,,,,,,571.8939393,571.3989202999983,571.4023660999992,571.4023660999992,571.8878067000005,573.0249532999987,573.0249532999987,x,0.9160449999981211,None,571.8939393,571.8939393,573.0249532999987,,,,,,,,OAT_th,001,2025-03-12_16h35.09.762,MainFlow,2024.2.4,144.01979407948687,2025-03-12 16h35.37.189298 +0700,
1,42,0,word/wordth0421.png,image/False/imgf42.png,177,177,0,x,0.6349828999991587,None,0,177,177,177,573.9492960999996,,,,,,,575.4351867000005,574.9370108000003,574.9397668999991,574.9397668999991,575.4287249000008,576.5743368000003,576.5743368000003,x,0.6349828999991587,None,575.4351867000005,575.4351867000005,576.5743368000003,,,,,,,,OAT_th,001,2025-03-12_16h35.09.762,MainFlow,2024.2.4,144.01979407948687,2025-03-12 16h35.37.189298 +0700,
1,24,1,word/wordth0241.png,image/True/img24.png,178,178,0,z,0.5680165000012494,None,0,178,178,178,577.2199106999979,,,,,,,578.719114399999,578.2207337,578.2242848999995,578.2242848999995,578.7131181000004,579.7969654999979,579.7969654999979,z,0.5680165000012494,None,578.719114399999,578.719114399999,,,,,,,,,OAT_th,001,2025-03-12_16h35.09.762,MainFlow,2024.2.4,144.01979407948687,2025-03-12 16h35.37.189298 +0700,
1,51,1,word/wordth0511.png,image/True/img51.png,179,179,0,z,0.4781312999984948,None,0,179,179,179,580.3736184000009,,,,,,,581.8646382000006,581.3659619999999,581.3692598999987,581.3692598999987,581.8586604000011,582.9854133000008,582.9854133000008,z,0.4781312999984948,None,581.8646382000006,581.8646382000006,582.9854133000008,,,,,,,,OAT_th,001,2025-03-12_16h35.09.762,MainFlow,2024.2.4,144.01979407948687,2025-03-12 16h35.37.189298 +0700,
1,24,0,word/wordth0241.png,image/False/imgf24.png,180,180,0,x,0.8693850999989081,None,0,180,180,180,583.4751423999987,,,,,,,584.9750467000013,584.4789306999992,584.4825783999986,584.4825783999986,584.9697022,586.0848221999986,586.0848221999986,x,0.8693850999989081,None,584.9750467000013,584.9750467000013,,,,,,,,,OAT_th,001,2025-03-12_16h35.09.762,MainFlow,2024.2.4,144.01979407948687,2025-03-12 16h35.37.189298 +0700,
1,23,0,word/wordth0231.png,image/False/imgf23.png,181,181,0,x,0.8256633000019065,None,0,181,181,181,586.9605000999982,,,,,,,588.4601565999983,587.9618446999993,587.9652401999992,587.9652401999992,588.4540482000011,589.6112525999997,589.6112525999997,x,0.8256633000019065,None,588.4601565999983,588.4601565999983,,,,,,,,,OAT_th,001,2025-03-12_16h35.09.762,MainFlow,2024.2.4,144.01979407948687,2025-03-12 16h35.37.189298 +0700,
1,6,1,word/wordth0061.png,image/True/img06.png,182,182,0,z,0.43587879999904544,None,0,182,182,182,590.4461520000004,,,,,,,591.9319206,591.4391460000006,591.4420578999998,591.4420578999998,591.9260012999985,593.0318974000002,593.0318974000002,z,0.43587879999904544,None,591.9319206,591.9319206,593.0318974000002,,,,,,,,OAT_th,001,2025-03-12_16h35.09.762,MainFlow,2024.2.4,144.01979407948687,2025-03-12 16h35.37.189298 +0700,
1,93,1,word/wordth0931.png,image/True/img93.png,183,183,0,z,0.49863299999924493,None,0,183,183,183,593.4810350999978,,,,,,,594.9729129999978,594.477871799998,594.4813858999987,594.4813858999987,594.9673804999984,596.0819177999983,596.0819177999983,z,0.49863299999924493,None,594.9729129999978,594.9729129999978,596.0819177999983,,,,,,,,OAT_th,001,2025-03-12_16h35.09.762,MainFlow,2024.2.4,144.01979407948687,2025-03-12 16h35.37.189298 +0700,
1,38,0,word/wordth0381.png,image/False/imgf38.png,184,184,0,x,0.9873618000019633,None,0,184,184,184,596.5909030000003,,,,,,,598.0906226000006,597.5975770000005,597.6014256999988,597.6014256999988,598.0853031000006,599.2395222999985,599.2395222999985,x,0.9873618000019633,None,598.0906226000006,598.0906226000006,599.2395222999985,,,,,,,,OAT_th,001,2025-03-12_16h35.09.762,MainFlow,2024.2.4,144.01979407948687,2025-03-12 16h35.37.189298 +0700,
1,57,1,word/wordth0571.png,image/True/img57.png,185,185,0,z,0.3594258000011905,None,0,185,185,185,600.2368425999994,,,,,,,601.7217616999988,601.2289459999993,601.2322654999989,601.2322654999989,601.7161167000013,602.8404287999983,602.8404287999983,z,0.3594258000011905,None,601.7217616999988,601.7217616999988,602.8404287999983,,,,,,,,OAT_th,001,2025-03-12_16h35.09.762,MainFlow,2024.2.4,144.01979407948687,2025-03-12 16h35.37.189298 +0700,
1,40,1,word/wordth0401.png,image/True/img40.png,186,186,0,z,1.4695719000010286,None,0,186,186,186,603.2086735000012,,,,,,,604.7003913999979,604.2051174999979,604.2085220999979,604.2085220999979,604.6952601000012,605.8960496,605.8960496,z,1.4695719000010286,None,604.7003913999979,604.7003913999979,605.8960496,,,,,,,,OAT_th,001,2025-03-12_16h35.09.762,MainFlow,2024.2.4,144.01979407948687,2025-03-12 16h35.37.189298 +0700,
1,50,0,word/wordth0501.png,image/False/imgf50.png,187,187,0,x,0.5786509999998088,None,0,187,187,187,607.373372099999,,,,,,,608.8660931000013,608.3689324000006,608.3722049999997,608.3722049999997,608.8602902999992,609.9803829999983,609.9803829999983,x,0.5786509999998088,None,608.8660931000013,608.8660931000013,609.9803829999983,,,,,,,,OAT_th,001,2025-03-12_16h35.09.762,MainFlow,2024.2.4,144.01979407948687,2025-03-12 16h35.37.189298 +0700,
1,66,0,word/wordth0661.png,image/False/imgf66.png,188,188,0,z,0.7928112000008696,None,0,188,188,188,610.567280299998,,,,,,,612.0598441000002,611.5659023999979,611.569378799999,611.569378799999,612.0537188999988,613.167167399999,613.167167399999,z,0.7928112000008696,None,612.0598441000002,612.0598441000002,613.167167399999,,,,,,,,OAT_th,001,2025-03-12_16h35.09.762,MainFlow,2024.2.4,144.01979407948687,2025-03-12 16h35.37.189298 +0700,
1,44,0,word/wordth0441.png,image/False/imgf44.png,189,189,0,x,1.043178899999475,None,0,189,189,189,613.9693754,,,,,,,615.4689763999995,614.9702027999992,614.9736950000006,614.9736950000006,615.4631222999997,616.5919972999982,616.5919972999982,x,1.043178899999475,None,615.4689763999995,615.4689763999995,,,,,,,,,OAT_th,001,2025-03-12_16h35.09.762,MainFlow,2024.2.4,144.01979407948687,2025-03-12 16h35.37.189298 +0700,
1,75,0,word/wordth0751.png,image/False/imgf75.png,190,190,0,x,0.8845558000029996,None,0,190,190,190,617.6420848999987,,,,,,,619.1348534999997,618.6416524999986,618.6452374,618.6452374,619.1288547000004,620.2352525999995,620.2352525999995,x,0.8845558000029996,None,619.1348534999997,619.1348534999997,620.2352525999995,,,,,,,,OAT_th,001,2025-03-12_16h35.09.762,MainFlow,2024.2.4,144.01979407948687,2025-03-12 16h35.37.189298 +0700,
1,31,0,word/wordth0311.png,image/False/imgf31.png,191,191,0,x,1.1595648000002257,None,0,191,191,191,621.1292245000004,,,,,,,622.6204749999997,622.1236534999989,622.1271448999978,622.1271448999978,622.6147130999998,623.7042928999981,623.7042928999981,x,1.1595648000002257,None,622.6204749999997,622.6204749999997,623.7042928999981,,,,,,,,OAT_th,001,2025-03-12_16h35.09.762,MainFlow,2024.2.4,144.01979407948687,2025-03-12 16h35.37.189298 +0700,
1,87,1,word/wordth0871.png,image/True/img87.png,192,192,0,z,0.6738981000016793,None,0,192,192,192,624.8700003000013,,,,,,,626.362960800001,625.8670629999979,625.8705731000009,625.8705731000009,626.3570118999996,627.4930308000003,627.4930308000003,z,0.6738981000016793,None,626.362960800001,626.362960800001,627.4930308000003,,,,,,,,OAT_th,001,2025-03-12_16h35.09.762,MainFlow,2024.2.4,144.01979407948687,2025-03-12 16h35.37.189298 +0700,
1,33,1,word/wordth0331.png,image/True/img33.png,193,193,0,z,0.4095226999997976,None,0,193,193,193,628.1747876000009,,,,,,,629.6746672000008,629.1755277000011,629.1789740999993,629.1789740999993,629.6690527999999,630.7843810000013,630.7843810000013,z,0.4095226999997976,None,629.6746672000008,629.6746672000008,,,,,,,,,OAT_th,001,2025-03-12_16h35.09.762,MainFlow,2024.2.4,144.01979407948687,2025-03-12 16h35.37.189298 +0700,
1,70,0,word/wordth0701.png,image/False/imgf70.png,194,194,0,x,0.465287700000772,None,0,194,194,194,631.2020048000013,,,,,,,632.694929199999,632.2014065000003,632.2046789999986,632.2046789999986,632.6896000999986,633.8174368,633.8174368,x,0.465287700000772,None,632.694929199999,632.694929199999,633.8174368,,,,,,,,OAT_th,001,2025-03-12_16h35.09.762,MainFlow,2024.2.4,144.01979407948687,2025-03-12 16h35.37.189298 +0700,
1,27,1,word/wordth0271.png,image/True/img27.png,195,195,0,x,0.48348649999752524,None,0,195,195,195,634.2943541999994,,,,,,,635.7846065000012,635.2907314000004,635.2940897999979,635.2940897999979,635.7794405999994,636.8759812999997,636.8759812999997,x,0.48348649999752524,None,635.7846065000012,635.7846065000012,636.8759812999997,,,,,,,,OAT_th,001,2025-03-12_16h35.09.762,MainFlow,2024.2.4,144.01979407948687,2025-03-12 16h35.37.189298 +0700,
1,88,1,word/wordth0881.png,image/True/img88.png,196,196,0,z,0.4677469000016572,None,0,196,196,196,637.3696874999987,,,,,,,638.8603077000007,638.367491099998,638.3710108999985,638.3710108999985,638.8551040999992,640.010340599998,640.010340599998,z,0.4677469000016572,None,638.8603077000007,638.8603077000007,640.010340599998,,,,,,,,OAT_th,001,2025-03-12_16h35.09.762,MainFlow,2024.2.4,144.01979407948687,2025-03-12 16h35.37.189298 +0700,
1,87,0,word/wordth0871.png,image/False/imgf87.png,197,197,0,x,0.594507199999498,None,0,197,197,197,640.4848649999985,,,,,,,641.9707644000009,641.4758877999993,641.4790185999991,641.4790185999991,641.9650094999997,643.0950329999978,643.0950329999978,x,0.594507199999498,None,641.9707644000009,641.9707644000009,643.0950329999978,,,,,,,,OAT_th,001,2025-03-12_16h35.09.762,MainFlow,2024.2.4,144.01979407948687,2025-03-12 16h35.37.189298 +0700,
1,11,1,word/wordth0111.png,image/True/img11.png,198,198,0,z,0.6109452000018791,None,0,198,198,198,643.6997241999998,,,,,,,645.192618000001,644.6979310999996,644.7012795999981,644.7012795999981,645.1866120000013,646.3347198999982,646.3347198999982,z,0.6109452000018791,None,645.192618000001,645.192618000001,646.3347198999982,,,,,,,,OAT_th,001,2025-03-12_16h35.09.762,MainFlow,2024.2.4,144.01979407948687,2025-03-12 16h35.37.189298 +0700,
1,61,0,word/wordth0611.png,image/False/imgf61.png,199,199,0,z,0.6057650000002468,None,0,199,199,199,646.9557831999991,,,,,,,648.4487268999983,647.9556550999987,647.9590094999985,647.9590094999985,648.4434526000005,649.5742898999997,649.5742898999997,z,0.6057650000002468,None,648.4487268999983,648.4487268999983,649.5742898999997,,,,,,,,OAT_th,001,2025-03-12_16h35.09.762,MainFlow,2024.2.4,144.01979407948687,2025-03-12 16h35.37.189298 +0700,
1,15,1,word/wordth0151.png,image/True/img15.png,200,200,0,z,0.7496792999991158,None,0,200,200,200,650.1914999,,,,,,,651.6771989999979,651.1787590999993,651.1814784999988,651.1814784999988,651.6713391000012,652.8063522000011,652.8063522000011,z,0.7496792999991158,None,651.6771989999979,651.6771989999979,652.8063522000011,,,,,,,,OAT_th,001,2025-03-12_16h35.09.762,MainFlow,2024.2.4,144.01979407948687,2025-03-12 16h35.37.189298 +0700,
1,16,0,word/wordth0161.png,image/False/imgf16.png,201,201,0,x,0.7289077999994333,None,0,201,201,201,653.565808299998,,,,,,,655.0654680999978,654.5661629999995,654.5697364999978,654.5697364999978,655.0596245999986,656.1721863999992,656.1721863999992,x,0.7289077999994333,None,655.0654680999978,655.0654680999978,,,,,,,,,OAT_th,001,2025-03-12_16h35.09.762,MainFlow,2024.2.4,144.01979407948687,2025-03-12 16h35.37.189298 +0700,
1,63,0,word/wordth0631.png,image/False/imgf63.png,202,202,0,x,0.7078707000000577,None,0,202,202,202,656.9122773999989,,,,,,,658.4121285000001,657.9141658000008,657.9178682999991,657.9178682999991,658.4063361000008,659.5173743999985,659.5173743999985,x,0.7078707000000577,None,658.4121285000001,658.4121285000001,,,,,,,,,OAT_th,001,2025-03-12_16h35.09.762,MainFlow,2024.2.4,144.01979407948687,2025-03-12 16h35.37.189298 +0700,
1,28,1,word/wordth0281.png,image/True/img28.png,203,203,0,z,0.5946677000029013,None,0,203,203,203,660.231141100001,,,,,,,661.7240730999983,661.2311956000012,661.2345573999992,661.2345573999992,661.7187797000006,662.8549734999979,662.8549734999979,z,0.5946677000029013,None,661.7240730999983,661.7240730999983,662.8549734999979,,,,,,,,OAT_th,001,2025-03-12_16h35.09.762,MainFlow,2024.2.4,144.01979407948687,2025-03-12 16h35.37.189298 +0700,
1,89,1,word/wordth0891.png,image/True/img89.png,204,204,0,z,0.3671498000003339,None,0,204,204,204,663.4597003999988,,,,,,,664.9526074999994,664.4592392000013,664.4628244999985,664.4628244999985,664.9466367999994,666.0405470000005,666.0405470000005,z,0.3671498000003339,None,664.9526074999994,664.9526074999994,666.0405470000005,,,,,,,,OAT_th,001,2025-03-12_16h35.09.762,MainFlow,2024.2.4,144.01979407948687,2025-03-12 16h35.37.189298 +0700,
1,76,0,word/wordth0761.png,image/False/imgf76.png,205,205,0,z,0.3774420999980066,None,0,205,205,205,666.4176532999991,,,,,,,667.9103589000006,667.4131586000003,667.416455999999,667.416455999999,667.9049937999989,669.0441862999978,669.0441862999978,z,0.3774420999980066,None,667.9103589000006,667.9103589000006,669.0441862999978,,,,,,,,OAT_th,001,2025-03-12_16h35.09.762,MainFlow,2024.2.4,144.01979407948687,2025-03-12 16h35.37.189298 +0700,
1,51,0,word/wordth0511.png,image/False/imgf51.png,206,206,0,x,0.6307669000016176,None,0,206,206,206,669.4310145999989,,,,,,,670.923575599998,670.4264205,670.4300289999992,670.4300289999992,670.9183288999993,672.0112678000005,672.0112678000005,x,0.6307669000016176,None,670.923575599998,670.923575599998,672.0112678000005,,,,,,,,OAT_th,001,2025-03-12_16h35.09.762,MainFlow,2024.2.4,144.01979407948687,2025-03-12 16h35.37.189298 +0700,
1,26,0,word/wordth0261.png,image/False/imgf26.png,207,207,0,x,0.7077629000013985,None,0,207,207,207,672.6523368999988,,,,,,,674.1521490999985,673.6575850000008,673.6612910000003,673.6612910000003,674.1464043999986,675.2762313999992,675.2762313999992,x,0.7077629000013985,None,674.1521490999985,674.1521490999985,,,,,,,,,OAT_th,001,2025-03-12_16h35.09.762,MainFlow,2024.2.4,144.01979407948687,2025-03-12 16h35.37.189298 +0700,
1,16,1,word/wordth0161.png,image/True/img16.png,208,208,0,z,0.45516309999948135,None,0,208,208,208,675.991818399998,,,,,,,677.484812499999,676.9863805999994,676.9895825999993,676.9895825999993,677.4792974000011,678.6198186000001,678.6198186000001,z,0.45516309999948135,None,677.484812499999,677.484812499999,678.6198186000001,,,,,,,,OAT_th,001,2025-03-12_16h35.09.762,MainFlow,2024.2.4,144.01979407948687,2025-03-12 16h35.37.189298 +0700,
1,64,1,word/wordth0641.png,image/True/img64.png,209,209,0,z,0.47334540000156267,None,0,209,209,209,679.0835724999997,,,,,,,680.5745543000012,680.0809938999992,680.0846947999999,680.0846947999999,680.5692080000008,681.6583475999978,681.6583475999978,z,0.47334540000156267,None,680.5745543000012,680.5745543000012,681.6583475999978,,,,,,,,OAT_th,001,2025-03-12_16h35.09.762,MainFlow,2024.2.4,144.01979407948687,2025-03-12 16h35.37.189298 +0700,
1,7,1,word/wordth0071.png,image/True/img07.png,210,210,0,z,0.4822740000017802,None,0,210,210,210,682.1448630000014,,,,,,,683.6364165000014,683.140954399998,683.1442853999979,683.1442853999979,683.6307282999987,684.7550308999998,684.7550308999998,z,0.4822740000017802,None,683.6364165000014,683.6364165000014,684.7550308999998,,,,,,,,OAT_th,001,2025-03-12_16h35.09.762,MainFlow,2024.2.4,144.01979407948687,2025-03-12 16h35.37.189298 +0700,
1,10,0,word/wordth0101.png,image/False/imgf10.png,211,211,0,x,0.7026196000006166,None,0,211,211,211,685.2471471999997,,,,,,,686.7332076999992,686.2407458999987,686.2440525999991,686.2440525999991,686.7278294999996,687.8507647000006,687.8507647000006,x,0.7026196000006166,None,686.7332076999992,686.7332076999992,687.8507647000006,,,,,,,,OAT_th,001,2025-03-12_16h35.09.762,MainFlow,2024.2.4,144.01979407948687,2025-03-12 16h35.37.189298 +0700,
1,22,1,word/wordth0221.png,image/True/img22.png,212,212,0,z,0.5035026999976253,None,0,212,212,212,688.5657754999993,,,,,,,690.0589500999995,689.5642866999988,689.5678655000011,689.5678655000011,690.0538187999991,691.248348699999,691.248348699999,z,0.5035026999976253,None,690.0589500999995,690.0589500999995,691.248348699999,,,,,,,,OAT_th,001,2025-03-12_16h35.09.762,MainFlow,2024.2.4,144.01979407948687,2025-03-12 16h35.37.189298 +0700,
1,40,1,word/wordth0401.png,image/True/img40.png,213,213,0,z,0.4543495999969309,None,0,213,213,213,691.7596840000006,,,,,,,693.2455467,692.7465499999998,692.7493212000008,692.7493212000008,693.2327588000007,694.3992154000007,694.3992154000007,z,0.4543495999969309,None,693.2385536000002,693.2385536000002,694.3992154000007,,,,,,,,OAT_th,001,2025-03-12_16h35.09.762,MainFlow,2024.2.4,144.01979407948687,2025-03-12 16h35.37.189298 +0700,
1,57,0,word/wordth0571.png,image/False/imgf57.png,214,214,0,x,0.6682108999993943,None,0,214,214,214,694.8632276999997,,,,,,,696.3562194000006,695.8587918000012,695.862069499999,695.862069499999,696.3510591000013,697.4796621999994,697.4796621999994,x,0.6682108999993943,None,696.3562194000006,696.3562194000006,697.4796621999994,,,,,,,,OAT_th,001,2025-03-12_16h35.09.762,MainFlow,2024.2.4,144.01979407948687,2025-03-12 16h35.37.189298 +0700,
1,50,1,word/wordth0501.png,image/True/img50.png,215,215,0,z,0.4690133000003698,None,0,215,215,215,698.1558206000009,,,,,,,699.6541985000003,699.1554338999995,699.1588850999979,699.1588850999979,699.6488672999985,700.7755327000013,700.7755327000013,z,0.4690133000003698,None,699.6541985000003,699.6541985000003,700.7755327000013,,,,,,,,OAT_th,001,2025-03-12_16h35.09.762,MainFlow,2024.2.4,144.01979407948687,2025-03-12 16h35.37.189298 +0700,
1,64,0,word/wordth0641.png,image/False/imgf64.png,216,216,0,x,0.46961169999849517,None,0,216,216,216,701.2510069999989,,,,,,,702.7441006000008,702.2480250999979,702.2515663999984,702.2515663999984,702.7385746,703.8227742999989,703.8227742999989,x,0.46961169999849517,None,702.7441006000008,702.7441006000008,703.8227742999989,,,,,,,,OAT_th,001,2025-03-12_16h35.09.762,MainFlow,2024.2.4,144.01979407948687,2025-03-12 16h35.37.189298 +0700,
1,42,1,word/wordth0421.png,image/True/img42.png,217,217,0,z,0.43724269999802345,None,0,217,217,217,704.2989553999978,,,,,,,705.7919280999995,705.2980853000008,705.3015119000011,705.3015119000011,705.7866810999985,706.9140054999989,706.9140054999989,z,0.43724269999802345,None,705.7919280999995,705.7919280999995,706.9140054999989,,,,,,,,OAT_th,001,2025-03-12_16h35.09.762,MainFlow,2024.2.4,144.01979407948687,2025-03-12 16h35.37.189298 +0700,
1,56,0,word/wordth0561.png,image/False/imgf56.png,218,218,0,x,0.5090485000000626,None,0,218,218,218,707.3630095999979,,,,,,,708.8606699000011,708.3638715999987,708.3673020999995,708.3673020999995,708.8554017999995,710.0177646000011,710.0177646000011,x,0.5090485000000626,None,708.8606699000011,708.8606699000011,,,,,,,,,OAT_th,001,2025-03-12_16h35.09.762,MainFlow,2024.2.4,144.01979407948687,2025-03-12 16h35.37.189298 +0700,
1,22,1,word/wordth0221.png,image/True/img22.png,219,219,0,x,0.7911036999976204,None,0,219,219,219,710.5340293000008,,,,,,,712.0335484999996,711.5356324999993,711.5390599999992,711.5390599999992,712.0277635999992,713.1683903000012,713.1683903000012,x,0.7911036999976204,None,712.0335484999996,712.0335484999996,,,,,,,,,OAT_th,001,2025-03-12_16h35.09.762,MainFlow,2024.2.4,144.01979407948687,2025-03-12 16h35.37.189298 +0700,
1,82,0,word/wordth0821.png,image/False/imgf82.png,220,220,0,z,0.6097774999980174,None,0,220,220,220,713.9707549000013,,,,,,,715.4636234999998,714.9694453000011,714.9730005999991,714.9730005999991,715.4582102999993,716.5800721999985,716.5800721999985,z,0.6097774999980174,None,715.4636234999998,715.4636234999998,716.5800721999985,,,,,,,,OAT_th,001,2025-03-12_16h35.09.762,MainFlow,2024.2.4,144.01979407948687,2025-03-12 16h35.37.189298 +0700,
1,54,1,word/wordth0541.png,image/True/img54.png,221,221,0,z,0.365150800000265,None,0,221,221,221,717.199199300001,,,,,,,718.6921593000006,718.1953938000006,718.1987502000011,718.1987502000011,718.686436699998,719.8268083000003,719.8268083000003,z,0.365150800000265,None,718.6921593000006,718.6921593000006,719.8268083000003,,,,,,,,OAT_th,001,2025-03-12_16h35.09.762,MainFlow,2024.2.4,144.01979407948687,2025-03-12 16h35.37.189298 +0700,
1,55,0,word/wordth0551.png,image/False/imgf55.png,222,222,0,x,0.6248035999997228,None,0,222,222,222,720.2011413,,,,,,,721.6914818000005,721.1973577999997,721.2006990000009,721.2006990000009,721.6856869000003,722.8024903000005,722.8024903000005,x,0.6248035999997228,None,721.6914818000005,721.6914818000005,722.8024903000005,,,,,,,,OAT_th,001,2025-03-12_16h35.09.762,MainFlow,2024.2.4,144.01979407948687,2025-03-12 16h35.37.189298 +0700,
1,48,1,word/wordth0481.png,image/True/img48.png,223,223,0,z,0.4983112000008987,None,0,223,223,223,723.4341595000005,,,,,,,724.9338566000006,724.4350716999979,724.4385290999999,724.4385290999999,724.9280608000008,726.0434726999993,726.0434726999993,z,0.4983112000008987,None,724.9338566000006,724.9338566000006,,,,,,,,,OAT_th,001,2025-03-12_16h35.09.762,MainFlow,2024.2.4,144.01979407948687,2025-03-12 16h35.37.189298 +0700,
1,44,1,word/wordth0441.png,image/True/img44.png,224,224,0,x,0.43236500000057276,None,0,224,224,224,726.5517445000005,,,,,,,728.0443535000013,727.5483705000006,727.5516812999995,727.5516812999995,728.0386452999992,729.136363900001,729.136363900001,x,0.43236500000057276,None,728.0443535000013,728.0443535000013,729.136363900001,,,,,,,,OAT_th,001,2025-03-12_16h35.09.762,MainFlow,2024.2.4,144.01979407948687,2025-03-12 16h35.37.189298 +0700,
1,87,0,word/wordth0871.png,image/False/imgf87.png,225,225,0,x,0.5722028999989561,None,0,225,225,225,729.5788313000012,,,,,,,731.0715979999986,730.577521700001,730.5811192000001,730.5811192000001,731.0660672000013,732.1801436999995,732.1801436999995,x,0.5722028999989561,None,731.0715979999986,731.0715979999986,732.1801436999995,,,,,,,,OAT_th,001,2025-03-12_16h35.09.762,MainFlow,2024.2.4,144.01979407948687,2025-03-12 16h35.37.189298 +0700,
1,70,1,word/wordth0701.png,image/True/img70.png,226,226,0,z,0.6091162999982771,None,0,226,226,226,732.7602141999996,,,,,,,734.2583976999995,733.7629560999994,733.7665245999997,733.7665245999997,734.2522191999997,735.381378099999,735.381378099999,z,0.6091162999982771,None,734.2583976999995,734.2583976999995,735.381378099999,,,,,,,,OAT_th,001,2025-03-12_16h35.09.762,MainFlow,2024.2.4,144.01979407948687,2025-03-12 16h35.37.189298 +0700,
1,33,0,word/wordth0331.png,image/False/imgf33.png,227,227,0,x,0.42937280000114697,None,0,227,227,227,736.0011444999982,,,,,,,737.4941179999987,736.9971703999981,737.0005415999985,737.0005415999985,737.489106099998,738.6051595999998,738.6051595999998,x,0.42937280000114697,None,737.4941179999987,737.4941179999987,738.6051595999998,,,,,,,,OAT_th,001,2025-03-12_16h35.09.762,MainFlow,2024.2.4,144.01979407948687,2025-03-12 16h35.37.189298 +0700,
