lang,wordid,truestate,worddir,imgdir,thisN,thisTrialN,thisRepN,key_resp.keys,key_resp.rt,key_resp.duration,trials.thisRepN,trials.thisTrialN,trials.thisN,trials.thisIndex,thisRow.t,notes,tutorial.started,tutorial.stopped,key_instruct.keys,key_instruct.rt,key_instruct.duration,plusblank.started,wordshow.started,image.started,plsuer.started,image.stopped,plsuer.stopped,wordshow.stopped,plusblank.stopped,imageword.started,key_resp.started,trials.key_resp.keys,trials.key_resp.rt,trials.key_resp.duration,ending.started,text_3.started,ending_key.started,ending.stopped,ending_key.keys,ending_key.rt,ending_key.duration,participant,session,date,expName,psychopyVersion,frameRate,expStart,
,,,,,,,,,,,,,,,,,0.0027158999582752585,12.185639000032097,space,12.165578399901278,None,,,,,,,,,,,,,,,,,,,,,PH_en,001,2025-03-09_20h35.36.492,MainFlow,2024.2.4,143.18606168589187,2025-03-09 20h35.47.771847 +0700,
2,87,0,word/worden0871.png,image/False/imgf87.png,0,0,0,x,1.2676810000557452,None,0,0,0,0,12.228664000052959,,,,,,,13.686052300035954,13.186854199972004,13.19159259996377,13.19159259996377,13.686052300035954,13.686052300035954,13.679348999983631,14.79951380006969,14.79951380006969,14.79951380006969,x,1.2676810000557452,None,,,,,,,,PH_en,001,2025-03-09_20h35.36.492,MainFlow,2024.2.4,143.18606168589187,2025-03-09 20h35.47.771847 +0700,
2,93,0,word/worden0931.png,image/False/imgf93.png,1,1,0,x,1.1464907999616116,None,0,1,1,1,16.076707200030796,,,,,,,17.56002019997686,17.06378099997528,17.06805640005041,17.06805640005041,17.56002019997686,17.56002019997686,17.55335770000238,18.641442900057882,18.641442900057882,18.641442900057882,x,1.1464907999616116,None,,,,,,,,PH_en,001,2025-03-09_20h35.36.492,MainFlow,2024.2.4,143.18606168589187,2025-03-09 20h35.47.771847 +0700,
2,23,0,word/worden0231.png,image/False/imgf23.png,2,2,0,x,0.9984303000383079,None,0,2,2,2,19.79837430000771,,,,,,,21.28478950005956,20.786787300021388,20.790860799956135,20.790860799956135,21.28478950005956,21.28478950005956,21.278077400056645,22.405228600022383,22.405228600022383,22.405228600022383,x,0.9984303000383079,None,,,,,,,,PH_en,001,2025-03-09_20h35.36.492,MainFlow,2024.2.4,143.18606168589187,2025-03-09 20h35.47.771847 +0700,
2,10,1,word/worden0101.png,image/True/img10.png,3,3,0,z,0.7176463999785483,None,0,3,3,3,23.41704229998868,,,,,,,24.903610600042157,24.40540879999753,24.409450000035577,24.409450000035577,24.903610600042157,24.903610600042157,24.89693819999229,25.99390450003557,25.99390450003557,25.99390450003557,z,0.7176463999785483,None,,,,,,,,PH_en,001,2025-03-09_20h35.36.492,MainFlow,2024.2.4,143.18606168589187,2025-03-09 20h35.47.771847 +0700,
2,50,0,word/worden0501.png,image/False/imgf50.png,4,4,0,x,3.1082881999900565,None,0,4,4,4,26.719417099957354,,,,,,,28.2111009999644,27.708700699964538,27.717341599985957,27.717341599985957,28.2111009999644,28.2111009999644,28.20438600005582,29.303369499975815,29.303369499975815,29.303369499975815,x,3.1082881999900565,None,,,,,,,,PH_en,001,2025-03-09_20h35.36.492,MainFlow,2024.2.4,143.18606168589187,2025-03-09 20h35.47.771847 +0700,
2,33,1,word/worden0331.png,image/True/img33.png,5,5,0,x,3.8841589000076056,None,0,5,5,5,32.424123500008136,,,,,,,33.91152650001459,33.413148000021465,33.417362199979834,33.417362199979834,33.91152650001459,33.91152650001459,33.90485319995787,35.00667659996543,35.00667659996543,35.00667659996543,x,3.8841589000076056,None,,,,,,,,PH_en,001,2025-03-09_20h35.36.492,MainFlow,2024.2.4,143.18606168589187,2025-03-09 20h35.47.771847 +0700,
2,95,0,word/worden0951.png,image/False/imgf95.png,6,6,0,x,1.3133451000321656,None,0,6,6,6,38.90078310004901,,,,,,,40.39058660005685,39.89160710002761,39.895958599983715,39.895958599983715,40.39058660005685,40.39058660005685,40.38397179997992,41.502741100033745,41.502741100033745,41.502741100033745,x,1.3133451000321656,None,,,,,,,,PH_en,001,2025-03-09_20h35.36.492,MainFlow,2024.2.4,143.18606168589187,2025-03-09 20h35.47.771847 +0700,
2,7,0,word/worden0071.png,image/False/imgf07.png,7,7,0,x,0.7803516000276431,None,0,7,7,7,42.826739600044675,,,,,,,44.31205269997008,43.81212050002068,43.820514200022444,43.820514200022444,44.31205269997008,44.31205269997008,44.30595970002469,45.401076999958605,45.401076999958605,45.401076999958605,x,0.7803516000276431,None,,,,,,,,PH_en,001,2025-03-09_20h35.36.492,MainFlow,2024.2.4,143.18606168589187,2025-03-09 20h35.47.771847 +0700,
2,28,1,word/worden0281.png,image/True/img28.png,8,8,0,z,1.030318500008434,None,0,8,8,8,46.193214699975215,,,,,,,47.67919499997515,47.18052890000399,47.18451080005616,47.18451080005616,47.67919499997515,47.67919499997515,47.67271489999257,48.78645590005908,48.78645590005908,48.78645590005908,z,1.030318500008434,None,,,,,,,,PH_en,001,2025-03-09_20h35.36.492,MainFlow,2024.2.4,143.18606168589187,2025-03-09 20h35.47.771847 +0700,
2,38,1,word/worden0381.png,image/True/img38.png,9,9,0,z,0.8769258999964222,None,0,9,9,9,49.828398199984804,,,,,,,51.31508930004202,50.81702429999132,50.8210896999808,50.8210896999808,51.31508930004202,51.31508930004202,51.308513100026175,52.41075230005663,52.41075230005663,52.41075230005663,z,0.8769258999964222,None,,,,,,,,PH_en,001,2025-03-09_20h35.36.492,MainFlow,2024.2.4,143.18606168589187,2025-03-09 20h35.47.771847 +0700,
2,33,0,word/worden0331.png,image/False/imgf33.png,10,10,0,x,1.581300500081852,None,0,10,10,10,53.30024939996656,,,,,,,54.78372800000943,54.28738350002095,54.291362300049514,54.291362300049514,54.78372800000943,54.78372800000943,54.777039000066,55.88268859998789,55.88268859998789,55.88268859998789,x,1.581300500081852,None,,,,,,,,PH_en,001,2025-03-09_20h35.36.492,MainFlow,2024.2.4,143.18606168589187,2025-03-09 20h35.47.771847 +0700,
2,76,1,word/worden0761.png,image/True/img76.png,11,11,0,z,0.995408899965696,None,0,11,11,11,57.474157899967395,,,,,,,58.959810100030154,58.46134080004413,58.46542350004893,58.46542350004893,58.959810100030154,58.959810100030154,58.95311900007073,60.04921139997896,60.04921139997896,60.04921139997896,z,0.995408899965696,None,,,,,,,,PH_en,001,2025-03-09_20h35.36.492,MainFlow,2024.2.4,143.18606168589187,2025-03-09 20h35.47.771847 +0700,
2,75,0,word/worden0751.png,image/False/imgf75.png,12,12,0,x,2.069265400059521,None,0,12,12,12,61.054158800048754,,,,,,,62.54061480006203,62.04186080000363,62.045905200066045,62.045905200066045,62.54061480006203,62.54061480006203,62.53394390002359,63.650803499971516,63.650803499971516,63.650803499971516,x,2.069265400059521,None,,,,,,,,PH_en,001,2025-03-09_20h35.36.492,MainFlow,2024.2.4,143.18606168589187,2025-03-09 20h35.47.771847 +0700,
2,7,1,word/worden0071.png,image/True/img07.png,13,13,0,z,0.6582343999762088,None,0,13,13,13,65.7300314999884,,,,,,,67.21591999998782,66.71670620003715,66.72087369998917,66.72087369998917,67.21591999998782,67.21591999998782,67.20921160001308,68.32282860006671,68.32282860006671,68.32282860006671,z,0.6582343999762088,None,,,,,,,,PH_en,001,2025-03-09_20h35.36.492,MainFlow,2024.2.4,143.18606168589187,2025-03-09 20h35.47.771847 +0700,
2,51,1,word/worden0511.png,image/True/img51.png,14,14,0,x,1.427358099957928,None,0,14,14,14,68.9942316999659,,,,,,,70.48214670002926,69.98080699995626,69.98486349999439,69.98486349999439,70.47513609996531,70.47513609996531,70.4685226000147,71.5797317000106,71.5797317000106,71.5797317000106,x,1.427358099957928,None,,,,,,,,PH_en,001,2025-03-09_20h35.36.492,MainFlow,2024.2.4,143.18606168589187,2025-03-09 20h35.47.771847 +0700,
2,59,0,word/worden0591.png,image/False/imgf59.png,15,15,0,x,2.045643800054677,None,0,15,15,15,73.01687759999186,,,,,,,74.50272140000015,74.00403790001292,74.0079459999688,74.0079459999688,74.50272140000015,74.50272140000015,74.49603539996315,75.57668429997284,75.57668429997284,75.57668429997284,x,2.045643800054677,None,,,,,,,,PH_en,001,2025-03-09_20h35.36.492,MainFlow,2024.2.4,143.18606168589187,2025-03-09 20h35.47.771847 +0700,
2,54,0,word/worden0541.png,image/False/imgf54.png,16,16,0,x,1.029635800048709,None,0,16,16,16,77.63393790007103,,,,,,,79.12193759996444,78.62204040004872,78.62665770004969,78.62665770004969,79.12193759996444,79.12193759996444,79.1160142000299,80.21317210001871,80.21317210001871,80.21317210001871,x,1.029635800048709,None,,,,,,,,PH_en,001,2025-03-09_20h35.36.492,MainFlow,2024.2.4,143.18606168589187,2025-03-09 20h35.47.771847 +0700,
2,6,1,word/worden0061.png,image/True/img06.png,17,17,0,z,1.0147303000558168,None,0,17,17,17,81.25338400003966,,,,,,,82.73940580000635,82.24049160000868,82.24424609995913,82.24424609995913,82.73940580000635,82.73940580000635,82.73270910000429,83.83392010000534,83.83392010000534,83.83392010000534,z,1.0147303000558168,None,,,,,,,,PH_en,001,2025-03-09_20h35.36.492,MainFlow,2024.2.4,143.18606168589187,2025-03-09 20h35.47.771847 +0700,
2,41,1,word/worden0411.png,image/True/img41.png,18,18,0,z,1.1438250999199226,None,0,18,18,18,84.85743940004613,,,,,,,86.34340160002466,85.8452245000517,85.84983309998643,85.84983309998643,86.34340160002466,86.34340160002466,86.33678140002303,87.44615289999638,87.44615289999638,87.44615289999638,z,1.1438250999199226,None,,,,,,,,PH_en,001,2025-03-09_20h35.36.492,MainFlow,2024.2.4,143.18606168589187,2025-03-09 20h35.47.771847 +0700,
2,42,0,word/worden0421.png,image/False/imgf42.png,19,19,0,x,4.8731230000266805,None,0,19,19,19,88.59843190002721,,,,,,,90.08437820000108,89.58518389996607,89.58927360002417,89.58927360002417,90.08437820000108,90.08437820000108,90.07766920002177,91.19357720005792,91.19357720005792,91.19357720005792,x,4.8731230000266805,None,,,,,,,,PH_en,001,2025-03-09_20h35.36.492,MainFlow,2024.2.4,143.18606168589187,2025-03-09 20h35.47.771847 +0700,
2,64,0,word/worden0641.png,image/False/imgf64.png,20,20,0,x,4.8289723000489175,None,0,20,20,20,96.07516590005253,,,,,,,97.56125829997472,97.06218330003321,97.06688140006736,97.06688140006736,97.56125829997472,97.56125829997472,97.55501600005664,98.63014310004655,98.63014310004655,98.63014310004655,x,4.8289723000489175,None,,,,,,,,PH_en,001,2025-03-09_20h35.36.492,MainFlow,2024.2.4,143.18606168589187,2025-03-09 20h35.47.771847 +0700,
2,96,1,word/worden0961.png,image/True/img96.png,21,21,0,z,0.8125955000286922,None,0,21,21,21,103.47005500004161,,,,,,,104.95881950005423,104.46016680006869,104.46419740002602,104.46419740002602,104.95881950005423,104.95881950005423,104.95238360005897,106.07057910005096,106.07057910005096,106.07057910005096,z,0.8125955000286922,None,,,,,,,,PH_en,001,2025-03-09_20h35.36.492,MainFlow,2024.2.4,143.18606168589187,2025-03-09 20h35.47.771847 +0700,
2,76,0,word/worden0761.png,image/False/imgf76.png,22,22,0,x,0.9185064000776038,None,0,22,22,22,106.89448939997237,,,,,,,108.37848119996488,107.88117060007062,107.88539760001004,107.88539760001004,108.37848119996488,108.37848119996488,108.37275490001775,109.49190150003415,109.49190150003415,109.49190150003415,x,0.9185064000776038,None,,,,,,,,PH_en,001,2025-03-09_20h35.36.492,MainFlow,2024.2.4,143.18606168589187,2025-03-09 20h35.47.771847 +0700,
2,17,1,word/worden0171.png,image/True/img17.png,23,23,0,z,0.8376326999859884,None,0,23,23,23,110.42223779996857,,,,,,,111.90815510007087,111.40913869999349,111.41358900000341,111.41358900000341,111.90815510007087,111.90815510007087,111.90163840004243,113.00366439996287,113.00366439996287,113.00366439996287,z,0.8376326999859884,None,,,,,,,,PH_en,001,2025-03-09_20h35.36.492,MainFlow,2024.2.4,143.18606168589187,2025-03-09 20h35.47.771847 +0700,
2,6,1,word/worden0061.png,image/True/img06.png,24,24,0,z,0.7152531000319868,None,0,24,24,24,113.85196200001519,,,,,,,115.33836449997034,114.83876790001523,114.84261409996543,114.84261409996543,115.33836449997034,115.33836449997034,115.33169020002242,116.42151750007179,116.42151750007179,116.42151750007179,z,0.7152531000319868,None,,,,,,,,PH_en,001,2025-03-09_20h35.36.492,MainFlow,2024.2.4,143.18606168589187,2025-03-09 20h35.47.771847 +0700,
2,88,1,word/worden0881.png,image/True/img88.png,25,25,0,z,1.036882600048557,None,0,25,25,25,117.14632719999645,,,,,,,118.63245819997974,118.1331446999684,118.13706189999357,118.13706189999357,118.63245819997974,118.63245819997974,118.62599109997973,119.7408905000193,119.7408905000193,119.7408905000193,z,1.036882600048557,None,,,,,,,,PH_en,001,2025-03-09_20h35.36.492,MainFlow,2024.2.4,143.18606168589187,2025-03-09 20h35.47.771847 +0700,
2,44,1,word/worden0441.png,image/True/img44.png,26,26,0,z,0.8635544000426307,None,0,26,26,26,120.78858829999808,,,,,,,122.27501059998758,121.77608179999515,121.78026859997772,121.78026859997772,122.27501059998758,122.27501059998758,122.26827430003323,123.36465220001992,123.36465220001992,123.36465220001992,z,0.8635544000426307,None,,,,,,,,PH_en,001,2025-03-09_20h35.36.492,MainFlow,2024.2.4,143.18606168589187,2025-03-09 20h35.47.771847 +0700,
2,27,0,word/worden0271.png,image/False/imgf27.png,27,27,0,x,1.1277097000274807,None,0,27,27,27,124.23973699996714,,,,,,,125.72569980006665,125.22676610003691,125.23108409997076,125.23108409997076,125.72569980006665,125.72569980006665,125.71908259997144,126.8164266999811,126.8164266999811,126.8164266999811,x,1.1277097000274807,None,,,,,,,,PH_en,001,2025-03-09_20h35.36.492,MainFlow,2024.2.4,143.18606168589187,2025-03-09 20h35.47.771847 +0700,
2,14,0,word/worden0141.png,image/False/imgf14.png,28,28,0,x,1.0850124000571668,None,0,28,28,28,127.95503730000928,,,,,,,129.44240770000033,128.94409250002354,128.94812660000753,128.94812660000753,129.44240770000033,129.44240770000033,129.43572690000292,130.53521260002162,130.53521260002162,130.53521260002162,x,1.0850124000571668,None,,,,,,,,PH_en,001,2025-03-09_20h35.36.492,MainFlow,2024.2.4,143.18606168589187,2025-03-09 20h35.47.771847 +0700,
2,40,0,word/worden0401.png,image/False/imgf40.png,29,29,0,x,5.58754710003268,None,0,29,29,29,131.62899590004236,,,,,,,133.11602730001323,132.61825439997483,132.6230332000414,132.6230332000414,133.11602730001323,133.11602730001323,133.11029390001204,134.21398230001796,134.21398230001796,134.21398230001796,x,5.58754710003268,None,,,,,,,,PH_en,001,2025-03-09_20h35.36.492,MainFlow,2024.2.4,143.18606168589187,2025-03-09 20h35.47.771847 +0700,
2,1,0,word/worden0011.png,image/False/imgf01.png,30,30,0,x,0.9408422999549657,None,0,30,30,30,139.8135264000157,,,,,,,141.30047889996786,140.8025449999841,140.8064916000003,140.8064916000003,141.30047889996786,141.30047889996786,141.29402919998392,142.38706610002555,142.38706610002555,142.38706610002555,x,0.9408422999549657,None,,,,,,,,PH_en,001,2025-03-09_20h35.36.492,MainFlow,2024.2.4,143.18606168589187,2025-03-09 20h35.47.771847 +0700,
2,3,0,word/worden0031.png,image/False/imgf03.png,31,31,0,x,0.7926337999524549,None,0,31,31,31,143.3382450999925,,,,,,,144.82438060001004,144.32521110004745,144.32939369999804,144.32939369999804,144.82438060001004,144.82438060001004,144.81772739998996,145.91621239995584,145.91621239995584,145.91621239995584,x,0.7926337999524549,None,,,,,,,,PH_en,001,2025-03-09_20h35.36.492,MainFlow,2024.2.4,143.18606168589187,2025-03-09 20h35.47.771847 +0700,
2,57,1,word/worden0571.png,image/True/img57.png,32,32,0,z,4.295284699997865,None,0,32,32,32,146.7207466000691,,,,,,,148.20688630000222,147.7078274000669,147.7121067000553,147.7121067000553,148.20688630000222,148.20688630000222,148.2002468999708,149.3049777999986,149.3049777999986,149.3049777999986,z,4.295284699997865,None,,,,,,,,PH_en,001,2025-03-09_20h35.36.492,MainFlow,2024.2.4,143.18606168589187,2025-03-09 20h35.47.771847 +0700,
2,88,0,word/worden0881.png,image/False/imgf88.png,33,33,0,x,1.0950150999706239,None,0,33,33,33,153.60996270005126,,,,,,,155.09611479996238,154.59665930003393,154.6006655000383,154.6006655000383,155.09611479996238,155.09611479996238,155.08948870003223,156.1958883999614,156.1958883999614,156.1958883999614,x,1.0950150999706239,None,,,,,,,,PH_en,001,2025-03-09_20h35.36.492,MainFlow,2024.2.4,143.18606168589187,2025-03-09 20h35.47.771847 +0700,
2,52,0,word/worden0521.png,image/False/imgf52.png,34,34,0,x,0.9749088999815285,None,0,34,34,34,157.29985860001761,,,,,,,158.78592250007205,158.28734340006486,158.29198420001194,158.29198420001194,158.78592250007205,158.78592250007205,158.7792498000199,159.8729682000121,159.8729682000121,159.8729682000121,x,0.9749088999815285,None,,,,,,,,PH_en,001,2025-03-09_20h35.36.492,MainFlow,2024.2.4,143.18606168589187,2025-03-09 20h35.47.771847 +0700,
2,50,0,word/worden0501.png,image/False/imgf50.png,35,35,0,x,1.7100154999643564,None,0,35,35,35,160.85886260005645,,,,,,,162.3451500000665,161.84579349996056,161.85008150001522,161.85008150001522,162.3451500000665,162.3451500000665,162.33851070003584,163.43836090003606,163.43836090003606,163.43836090003606,x,1.7100154999643564,None,,,,,,,,PH_en,001,2025-03-09_20h35.36.492,MainFlow,2024.2.4,143.18606168589187,2025-03-09 20h35.47.771847 +0700,
2,78,1,word/worden0781.png,image/True/img78.png,36,36,0,z,6.338420900050551,None,0,36,36,36,165.15806629997678,,,,,,,166.64422220003325,166.14516319998074,166.14940730005037,166.14940730005037,166.64422220003325,166.64422220003325,166.6375899000559,167.73212709999643,167.73212709999643,167.73212709999643,z,6.338420900050551,None,,,,,,,,PH_en,001,2025-03-09_20h35.36.492,MainFlow,2024.2.4,143.18606168589187,2025-03-09 20h35.47.771847 +0700,
2,61,0,word/worden0611.png,image/False/imgf61.png,37,37,0,x,1.6458773000631481,None,0,37,37,37,174.0790476000402,,,,,,,175.56601359997876,175.06783479999285,175.07193850004114,175.07193850004114,175.56601359997876,175.56601359997876,175.5593058000086,176.66614520002622,176.66614520002622,176.66614520002622,x,1.6458773000631481,None,,,,,,,,PH_en,001,2025-03-09_20h35.36.492,MainFlow,2024.2.4,143.18606168589187,2025-03-09 20h35.47.771847 +0700,
2,36,0,word/worden0361.png,image/False/imgf36.png,38,38,0,x,1.0262289999518543,None,0,38,38,38,178.32570080005098,,,,,,,179.81179589999374,179.31263409997337,179.31667710002512,179.31667710002512,179.80535879998934,179.80535879998934,179.7997444999637,180.90143620001618,180.90143620001618,180.90143620001618,x,1.0262289999518543,None,,,,,,,,PH_en,001,2025-03-09_20h35.36.492,MainFlow,2024.2.4,143.18606168589187,2025-03-09 20h35.47.771847 +0700,
2,10,1,word/worden0101.png,image/True/img10.png,39,39,0,z,1.335555800003931,None,0,39,39,39,181.93613929999992,,,,,,,183.42211060004774,182.92293820006307,182.92732270003762,182.92732270003762,183.42211060004774,183.42211060004774,183.41542850004043,184.51325009996071,184.51325009996071,184.51325009996071,z,1.335555800003931,None,,,,,,,,PH_en,001,2025-03-09_20h35.36.492,MainFlow,2024.2.4,143.18606168589187,2025-03-09 20h35.47.771847 +0700,
2,75,1,word/worden0751.png,image/True/img75.png,40,40,0,x,5.806197099969722,None,0,40,40,40,185.86027679999825,,,,,,,187.34590089996345,186.84659229998942,186.8507963999873,186.8507963999873,187.34590089996345,187.34590089996345,187.33921380003449,188.44051610003226,188.44051610003226,188.44051610003226,x,5.806197099969722,None,,,,,,,,PH_en,001,2025-03-09_20h35.36.492,MainFlow,2024.2.4,143.18606168589187,2025-03-09 20h35.47.771847 +0700,
2,1,1,word/worden0011.png,image/True/img01.png,41,41,0,z,1.3901573000475764,None,0,41,41,41,194.25911800004542,,,,,,,195.7492007999681,195.25002859998494,195.25399790005758,195.25399790005758,195.7492007999681,195.7492007999681,195.7423993999837,196.85287130007055,196.85287130007055,196.85287130007055,z,1.3901573000475764,None,,,,,,,,PH_en,001,2025-03-09_20h35.36.492,MainFlow,2024.2.4,143.18606168589187,2025-03-09 20h35.47.771847 +0700,
2,37,1,word/worden0371.png,image/True/img37.png,42,42,0,z,4.634951499989256,None,0,42,42,42,198.2537116999738,,,,,,,199.74048420006875,199.2404150000075,199.24426970002241,199.24426970002241,199.73471800005063,199.73471800005063,199.7269514000509,200.85570149996784,200.85570149996784,200.85570149996784,z,4.634951499989256,None,,,,,,,,PH_en,001,2025-03-09_20h35.36.492,MainFlow,2024.2.4,143.18606168589187,2025-03-09 20h35.47.771847 +0700,
2,66,0,word/worden0661.png,image/False/imgf66.png,43,43,0,x,2.328892400022596,None,0,43,43,43,205.4988330999622,,,,,,,206.98894860001747,206.4904291999992,206.49490200006403,206.49490200006403,206.98894860001747,206.98894860001747,206.98224990000017,208.0974131000694,208.0974131000694,208.0974131000694,x,2.328892400022596,None,,,,,,,,PH_en,001,2025-03-09_20h35.36.492,MainFlow,2024.2.4,143.18606168589187,2025-03-09 20h35.47.771847 +0700,
2,55,1,word/worden0551.png,image/True/img55.png,44,44,0,z,0.9735439999494702,None,0,44,44,44,210.4368356000632,,,,,,,211.92455009999685,211.42620680003893,211.43045730004087,211.43045730004087,211.92455009999685,211.92455009999685,211.91783749999013,213.04933459998574,213.04933459998574,213.04933459998574,z,0.9735439999494702,None,,,,,,,,PH_en,001,2025-03-09_20h35.36.492,MainFlow,2024.2.4,143.18606168589187,2025-03-09 20h35.47.771847 +0700,
2,70,0,word/worden0701.png,image/False/imgf70.png,45,45,0,x,0.9440647000446916,None,0,45,45,45,214.0336572000524,,,,,,,215.51957070000935,215.0209730999777,215.0251265000552,215.0251265000552,215.51957070000935,215.51957070000935,215.51304590003565,216.61491530004423,216.61491530004423,216.61491530004423,x,0.9440647000446916,None,,,,,,,,PH_en,001,2025-03-09_20h35.36.492,MainFlow,2024.2.4,143.18606168589187,2025-03-09 20h35.47.771847 +0700,
2,68,0,word/worden0681.png,image/False/imgf68.png,46,46,0,x,0.9834894000086933,None,0,46,46,46,217.56803510000464,,,,,,,219.05426800006535,218.55605120002292,218.56047190004028,218.56047190004028,219.05426800006535,219.05426800006535,219.04764360003173,220.13665390003007,220.13665390003007,220.13665390003007,x,0.9834894000086933,None,,,,,,,,PH_en,001,2025-03-09_20h35.36.492,MainFlow,2024.2.4,143.18606168589187,2025-03-09 20h35.47.771847 +0700,
2,75,1,word/worden0751.png,image/True/img75.png,47,47,0,z,2.910376699990593,None,0,47,47,47,221.1331304999767,,,,,,,222.61917570000514,222.1200982000446,222.12425480003003,222.12425480003003,222.61917570000514,222.61917570000514,222.6124915999826,223.71641660004389,223.71641660004389,223.71641660004389,z,2.910376699990593,None,,,,,,,,PH_en,001,2025-03-09_20h35.36.492,MainFlow,2024.2.4,143.18606168589187,2025-03-09 20h35.47.771847 +0700,
2,38,1,word/worden0381.png,image/True/img38.png,48,48,0,z,1.0612287999829277,None,0,48,48,48,226.63969260000158,,,,,,,228.1256776000373,227.6268054000102,227.63068399997428,227.63068399997428,228.1256776000373,228.1256776000373,228.1189815000398,229.22161909996066,229.22161909996066,229.22161909996066,z,1.0612287999829277,None,,,,,,,,PH_en,001,2025-03-09_20h35.36.492,MainFlow,2024.2.4,143.18606168589187,2025-03-09 20h35.47.771847 +0700,
2,42,1,word/worden0421.png,image/True/img42.png,49,49,0,z,0.8517613000003621,None,0,49,49,49,230.29205300007015,,,,,,,231.7819073999999,231.2833804000402,231.2879742999794,231.2879742999794,231.7819073999999,231.7819073999999,231.77515670005232,232.91726340004243,232.91726340004243,232.91726340004243,z,0.8517613000003621,None,,,,,,,,PH_en,001,2025-03-09_20h35.36.492,MainFlow,2024.2.4,143.18606168589187,2025-03-09 20h35.47.771847 +0700,
2,11,0,word/worden0111.png,image/False/imgf11.png,50,50,0,x,1.2020457999315113,None,0,50,50,50,233.77592859999277,,,,,,,235.26019170007203,234.76375280006323,234.7680704999948,234.7680704999948,235.26019170007203,235.26019170007203,235.25445130001754,236.38266820006538,236.38266820006538,236.38266820006538,x,1.2020457999315113,None,,,,,,,,PH_en,001,2025-03-09_20h35.36.492,MainFlow,2024.2.4,143.18606168589187,2025-03-09 20h35.47.771847 +0700,
2,41,0,word/worden0411.png,image/False/imgf41.png,51,51,0,x,0.9411194999702275,None,0,51,51,51,237.59695789997932,,,,,,,239.0828896999592,238.58447150001302,238.58824289997574,238.58824289997574,239.0828896999592,239.0828896999592,239.07620949996635,240.18496470001992,240.18496470001992,240.18496470001992,x,0.9411194999702275,None,,,,,,,,PH_en,001,2025-03-09_20h35.36.492,MainFlow,2024.2.4,143.18606168589187,2025-03-09 20h35.47.771847 +0700,
2,82,1,word/worden0821.png,image/True/img82.png,52,52,0,x,1.7736681000096723,None,0,52,52,52,241.13340200006496,,,,,,,242.6193587000016,242.12077420006972,242.1248807000229,242.1248807000229,242.6193587000016,242.6193587000016,242.61274690006394,243.69438400003128,243.69438400003128,243.69438400003128,x,1.7736681000096723,None,,,,,,,,PH_en,001,2025-03-09_20h35.36.492,MainFlow,2024.2.4,143.18606168589187,2025-03-09 20h35.47.771847 +0700,
2,88,0,word/worden0881.png,image/False/imgf88.png,53,53,0,x,0.8953995999181643,None,0,53,53,53,245.47966760001145,,,,,,,246.96571580006275,246.46685790002812,246.47096760000568,246.47096760000568,246.96571580006275,246.96571580006275,246.95895320002455,248.06819500005804,248.06819500005804,248.06819500005804,x,0.8953995999181643,None,,,,,,,,PH_en,001,2025-03-09_20h35.36.492,MainFlow,2024.2.4,143.18606168589187,2025-03-09 20h35.47.771847 +0700,
2,8,1,word/worden0081.png,image/True/img08.png,54,54,0,z,0.9737013999838382,None,0,54,54,54,248.97699049999937,,,,,,,250.46298910002224,249.9644174000714,249.96889839996584,249.96889839996584,250.46298910002224,250.46298910002224,250.456640599994,251.5514977000421,251.5514977000421,251.5514977000421,z,0.9737013999838382,None,,,,,,,,PH_en,001,2025-03-09_20h35.36.492,MainFlow,2024.2.4,143.18606168589187,2025-03-09 20h35.47.771847 +0700,
2,16,0,word/worden0161.png,image/False/imgf16.png,55,55,0,x,0.9848072999157012,None,0,55,55,55,252.53747820004355,,,,,,,254.02039169997443,253.52146570000332,253.52555040002335,253.52555040002335,254.02039169997443,254.02039169997443,254.0137058000546,255.15040370007046,255.15040370007046,255.15040370007046,x,0.9848072999157012,None,,,,,,,,PH_en,001,2025-03-09_20h35.36.492,MainFlow,2024.2.4,143.18606168589187,2025-03-09 20h35.47.771847 +0700,
2,10,0,word/worden0101.png,image/False/imgf10.png,56,56,0,x,0.8236839999444783,None,0,56,56,56,256.14426490000915,,,,,,,257.6304241999751,257.1315039000474,257.13593620003667,257.13593620003667,257.6304241999751,257.6304241999751,257.6237698000623,258.7286315000383,258.7286315000383,258.7286315000383,x,0.8236839999444783,None,,,,,,,,PH_en,001,2025-03-09_20h35.36.492,MainFlow,2024.2.4,143.18606168589187,2025-03-09 20h35.47.771847 +0700,
2,76,0,word/worden0761.png,image/False/imgf76.png,57,57,0,x,0.8900101999752223,None,0,57,57,57,259.56483899999876,,,,,,,261.0498274000129,260.5506454000715,260.5546037000604,260.5546037000604,261.0498274000129,261.0498274000129,261.04327450005803,262.1629560999572,262.1629560999572,262.1629560999572,x,0.8900101999752223,None,,,,,,,,PH_en,001,2025-03-09_20h35.36.492,MainFlow,2024.2.4,143.18606168589187,2025-03-09 20h35.47.771847 +0700,
2,42,1,word/worden0421.png,image/True/img42.png,58,58,0,z,1.006842500064522,None,0,58,58,58,263.06531980005093,,,,,,,264.5513024000684,264.052406599978,264.0563500999706,264.0563500999706,264.5513024000684,264.5513024000684,264.54475440003444,265.651916300063,265.651916300063,265.651916300063,z,1.006842500064522,None,,,,,,,,PH_en,001,2025-03-09_20h35.36.492,MainFlow,2024.2.4,143.18606168589187,2025-03-09 20h35.47.771847 +0700,
2,26,0,word/worden0261.png,image/False/imgf26.png,59,59,0,x,1.0352696999907494,None,0,59,59,59,266.66947099997196,,,,,,,268.15618260006886,267.6578947000671,267.66203090001363,267.66203090001363,268.15618260006886,268.15618260006886,268.1495135000441,269.2698003000114,269.2698003000114,269.2698003000114,x,1.0352696999907494,None,,,,,,,,PH_en,001,2025-03-09_20h35.36.492,MainFlow,2024.2.4,143.18606168589187,2025-03-09 20h35.47.771847 +0700,
2,26,1,word/worden0261.png,image/True/img26.png,60,60,0,z,1.3768782999832183,None,0,60,60,60,270.31667179998476,,,,,,,271.80313939996995,271.3041240000166,271.30807150003966,271.30807150003966,271.80313939996995,271.80313939996995,271.7964920999948,272.91437160002533,272.91437160002533,272.91437160002533,z,1.3768782999832183,None,,,,,,,,PH_en,001,2025-03-09_20h35.36.492,MainFlow,2024.2.4,143.18606168589187,2025-03-09 20h35.47.771847 +0700,
2,48,1,word/worden0481.png,image/True/img48.png,61,61,0,z,0.8711090999422595,None,0,61,61,61,274.3029946000315,,,,,,,275.7902402000036,275.2921815000009,275.2965281000361,275.2965281000361,275.7902402000036,275.7902402000036,275.7834852000233,276.8963434000034,276.8963434000034,276.8963434000034,z,0.8711090999422595,None,,,,,,,,PH_en,001,2025-03-09_20h35.36.492,MainFlow,2024.2.4,143.18606168589187,2025-03-09 20h35.47.771847 +0700,
2,71,0,word/worden0711.png,image/False/imgf71.png,62,62,0,x,2.2073841000674292,None,0,62,62,62,277.7800677999621,,,,,,,279.26616820006166,278.76735029998235,278.7715259999968,278.7715259999968,279.26616820006166,279.26616820006166,279.2593516999623,280.38191250001546,280.38191250001546,280.38191250001546,x,2.2073841000674292,None,,,,,,,,PH_en,001,2025-03-09_20h35.36.492,MainFlow,2024.2.4,143.18606168589187,2025-03-09 20h35.47.771847 +0700,
2,93,1,word/worden0931.png,image/True/img93.png,63,63,0,z,1.0695916999829933,None,0,63,63,63,282.60085190006066,,,,,,,284.0868054999737,283.587878499995,283.59218949999195,283.59218949999195,284.0868054999737,284.0868054999737,284.080116200028,285.17594099999405,285.17594099999405,285.17594099999405,z,1.0695916999829933,None,,,,,,,,PH_en,001,2025-03-09_20h35.36.492,MainFlow,2024.2.4,143.18606168589187,2025-03-09 20h35.47.771847 +0700,
2,51,1,word/worden0511.png,image/True/img51.png,64,64,0,x,1.22608399996534,None,0,64,64,64,286.25938279996626,,,,,,,287.74551330006216,287.24653240002226,287.25140790001024,287.25140790001024,287.74551330006216,287.74551330006216,287.73884929995984,288.84511880006175,288.84511880006175,288.84511880006175,x,1.22608399996534,None,,,,,,,,PH_en,001,2025-03-09_20h35.36.492,MainFlow,2024.2.4,143.18606168589187,2025-03-09 20h35.47.771847 +0700,
2,78,0,word/worden0781.png,image/False/imgf78.png,65,65,0,x,1.0384052000008523,None,0,65,65,65,290.08063630003016,,,,,,,291.5664792000316,291.06800059997477,291.0723071000539,291.0723071000539,291.5664792000316,291.5664792000316,291.56031279999297,292.64936749998014,292.64936749998014,292.64936749998014,x,1.0384052000008523,None,,,,,,,,PH_en,001,2025-03-09_20h35.36.492,MainFlow,2024.2.4,143.18606168589187,2025-03-09 20h35.47.771847 +0700,
2,64,0,word/worden0641.png,image/False/imgf64.png,66,66,0,x,1.994762499933131,None,0,66,66,66,293.7014561999822,,,,,,,295.1872015000554,294.6885835999856,294.6934126999695,294.6934126999695,295.1872015000554,295.1872015000554,295.1805348000489,296.2591361000668,296.2591361000668,296.2591361000668,x,1.994762499933131,None,,,,,,,,PH_en,001,2025-03-09_20h35.36.492,MainFlow,2024.2.4,143.18606168589187,2025-03-09 20h35.47.771847 +0700,
2,68,1,word/worden0681.png,image/True/img68.png,67,67,0,z,1.0236737999366596,None,0,67,67,67,298.26248569996096,,,,,,,299.748618899961,299.2493772000307,299.25334599998314,299.25334599998314,299.748618899961,299.748618899961,299.7414325000718,300.82084589998703,300.82084589998703,300.82084589998703,z,1.0236737999366596,None,,,,,,,,PH_en,001,2025-03-09_20h35.36.492,MainFlow,2024.2.4,143.18606168589187,2025-03-09 20h35.47.771847 +0700,
2,57,0,word/worden0571.png,image/False/imgf57.png,68,68,0,x,1.4651170000433922,None,0,68,68,68,301.8514492000686,,,,,,,303.33694409998134,302.83796909998637,302.8420553000178,302.8420553000178,303.33694409998134,303.33694409998134,303.3303796000546,304.44095900002867,304.44095900002867,304.44095900002867,x,1.4651170000433922,None,,,,,,,,PH_en,001,2025-03-09_20h35.36.492,MainFlow,2024.2.4,143.18606168589187,2025-03-09 20h35.47.771847 +0700,
2,31,0,word/worden0311.png,image/False/imgf31.png,69,69,0,x,1.4114605999784544,None,0,69,69,69,305.9183822000632,,,,,,,307.4047243000241,306.9069811999798,306.91131180000957,306.91131180000957,307.4047243000241,307.4047243000241,307.3987161000259,308.47532460000366,308.47532460000366,308.47532460000366,x,1.4114605999784544,None,,,,,,,,PH_en,001,2025-03-09_20h35.36.492,MainFlow,2024.2.4,143.18606168589187,2025-03-09 20h35.47.771847 +0700,
2,31,0,word/worden0311.png,image/False/imgf31.png,70,70,0,x,1.068934899987653,None,0,70,70,70,309.8967520999722,,,,,,,311.3823681999929,310.88346210005693,310.88754420005716,310.88754420005716,311.3823681999929,311.3823681999929,311.37564820004627,312.4551614000229,312.4551614000229,312.4551614000229,x,1.068934899987653,None,,,,,,,,PH_en,001,2025-03-09_20h35.36.492,MainFlow,2024.2.4,143.18606168589187,2025-03-09 20h35.47.771847 +0700,
2,55,1,word/worden0551.png,image/True/img55.png,71,71,0,z,1.0689187999814749,None,0,71,71,71,313.5312299999641,,,,,,,315.0188883000519,314.5179680000292,314.5219139000401,314.5219139000401,315.0123454000568,315.0123454000568,315.00685330003034,316.1251301000593,316.1251301000593,316.1251301000593,z,1.0689187999814749,None,,,,,,,,PH_en,001,2025-03-09_20h35.36.492,MainFlow,2024.2.4,143.18606168589187,2025-03-09 20h35.47.771847 +0700,
2,36,1,word/worden0361.png,image/True/img36.png,72,72,0,z,1.0782253000652418,None,0,72,72,72,317.201509000035,,,,,,,318.68736350000836,318.18830220005475,318.19246200006455,318.19246200006455,318.68736350000836,318.68736350000836,318.68072619999293,319.7817841999931,319.7817841999931,319.7817841999931,z,1.0782253000652418,None,,,,,,,,PH_en,001,2025-03-09_20h35.36.492,MainFlow,2024.2.4,143.18606168589187,2025-03-09 20h35.47.771847 +0700,
2,8,0,word/worden0081.png,image/False/imgf08.png,73,73,0,x,1.2084517000475898,None,0,73,73,73,320.867837900063,,,,,,,322.3538697999902,321.8541382000549,321.8583385000238,321.8583385000238,322.3538697999902,322.3538697999902,322.34669549996033,323.447555599967,323.447555599967,323.447555599967,x,1.2084517000475898,None,,,,,,,,PH_en,001,2025-03-09_20h35.36.492,MainFlow,2024.2.4,143.18606168589187,2025-03-09 20h35.47.771847 +0700,
2,82,0,word/worden0821.png,image/False/imgf82.png,74,74,0,x,2.2151402999879792,None,0,74,74,74,324.6655608000001,,,,,,,326.14902470004745,325.6501992000267,325.65462230006233,325.65462230006233,326.14902470004745,326.14902470004745,326.1423306000652,327.24787179997656,327.24787179997656,327.24787179997656,x,2.2151402999879792,None,,,,,,,,PH_en,001,2025-03-09_20h35.36.492,MainFlow,2024.2.4,143.18606168589187,2025-03-09 20h35.47.771847 +0700,
2,14,0,word/worden0141.png,image/False/imgf14.png,75,75,0,x,0.882756800041534,None,0,75,75,75,329.4760018000379,,,,,,,330.96278469997924,330.4647954000393,330.4691887999652,330.4691887999652,330.96278469997924,330.96278469997924,330.9561646999791,332.06087300006766,332.06087300006766,332.06087300006766,x,0.882756800041534,None,,,,,,,,PH_en,001,2025-03-09_20h35.36.492,MainFlow,2024.2.4,143.18606168589187,2025-03-09 20h35.47.771847 +0700,
2,71,1,word/worden0711.png,image/True/img71.png,76,76,0,z,1.66073200001847,None,0,76,76,76,332.9556396000553,,,,,,,334.44360430003144,333.94293160003144,333.94711589999497,333.94711589999497,334.43654260004405,334.43654260004405,334.4308168999851,335.5481938000303,335.5481938000303,335.5481938000303,z,1.66073200001847,None,,,,,,,,PH_en,001,2025-03-09_20h35.36.492,MainFlow,2024.2.4,143.18606168589187,2025-03-09 20h35.47.771847 +0700,
2,22,0,word/worden0221.png,image/False/imgf22.png,77,77,0,x,1.388341199955903,None,0,77,77,77,337.2198451999575,,,,,,,338.70765490003396,338.2094423000235,338.21347159997094,338.21347159997094,338.70765490003396,338.70765490003396,338.7007439000299,339.8169424000662,339.8169424000662,339.8169424000662,x,1.388341199955903,None,,,,,,,,PH_en,001,2025-03-09_20h35.36.492,MainFlow,2024.2.4,143.18606168589187,2025-03-09 20h35.47.771847 +0700,
2,78,1,word/worden0781.png,image/True/img78.png,78,78,0,z,1.0650903000496328,None,0,78,78,78,341.2124791999813,,,,,,,342.69851130002644,342.19919820001815,342.20353389997035,342.20353389997035,342.69851130002644,342.69851130002644,342.69184129999485,343.80146550002974,343.80146550002974,343.80146550002974,z,1.0650903000496328,None,,,,,,,,PH_en,001,2025-03-09_20h35.36.492,MainFlow,2024.2.4,143.18606168589187,2025-03-09 20h35.47.771847 +0700,
2,51,0,word/worden0511.png,image/False/imgf51.png,79,79,0,x,1.0291342999553308,None,0,79,79,79,344.8774143999908,,,,,,,346.365371300024,345.86438020004425,345.8737177000148,345.8737177000148,346.365371300024,346.365371300024,346.3592457000632,347.4540319000371,347.4540319000371,347.4540319000371,x,1.0291342999553308,None,,,,,,,,PH_en,001,2025-03-09_20h35.36.492,MainFlow,2024.2.4,143.18606168589187,2025-03-09 20h35.47.771847 +0700,
2,56,1,word/worden0561.png,image/True/img56.png,80,80,0,z,1.0308271000394598,None,0,80,80,80,348.4956214000704,,,,,,,349.9817829000531,349.4832327000331,349.4877418000251,349.4877418000251,349.9817829000531,349.9817829000531,349.9752137999749,351.0829270000104,351.0829270000104,351.0829270000104,z,1.0308271000394598,None,,,,,,,,PH_en,001,2025-03-09_20h35.36.492,MainFlow,2024.2.4,143.18606168589187,2025-03-09 20h35.47.771847 +0700,
2,60,1,word/worden0601.png,image/True/img60.png,81,81,0,z,0.8978548999875784,None,0,81,81,81,352.1243302000221,,,,,,,353.6106612000149,353.11220199998934,353.11654750001617,353.11654750001617,353.6106612000149,353.6106612000149,353.6040356999729,354.7122346999822,354.7122346999822,354.7122346999822,z,0.8978548999875784,None,,,,,,,,PH_en,001,2025-03-09_20h35.36.492,MainFlow,2024.2.4,143.18606168589187,2025-03-09 20h35.47.771847 +0700,
2,96,0,word/worden0961.png,image/False/imgf96.png,82,82,0,x,1.0230130999116227,None,0,82,82,82,355.62017650005873,,,,,,,357.1077340999618,356.6070578000508,356.61122710001655,356.61122710001655,357.1007887000451,357.1007887000451,357.0942600000417,358.20802689995617,358.20802689995617,358.20802689995617,x,1.0230130999116227,None,,,,,,,,PH_en,001,2025-03-09_20h35.36.492,MainFlow,2024.2.4,143.18606168589187,2025-03-09 20h35.47.771847 +0700,
2,3,0,word/worden0031.png,image/False/imgf03.png,83,83,0,x,1.1144250999204814,None,0,83,83,83,359.2381469999673,,,,,,,360.72265780007,360.22367450001184,360.2279041999718,360.2279041999718,360.72265780007,360.72265780007,360.71633409999777,361.8224239000119,361.8224239000119,361.8224239000119,x,1.1144250999204814,None,,,,,,,,PH_en,001,2025-03-09_20h35.36.492,MainFlow,2024.2.4,143.18606168589187,2025-03-09 20h35.47.771847 +0700,
2,55,0,word/worden0551.png,image/False/imgf55.png,84,84,0,z,1.2440139000536874,None,0,84,84,84,362.9449492000276,,,,,,,364.43098030006513,363.9330062000081,363.9372049999656,363.9372049999656,364.43098030006513,364.43098030006513,364.42471180006396,365.5288346000016,365.5288346000016,365.5288346000016,z,1.2440139000536874,None,,,,,,,,PH_en,001,2025-03-09_20h35.36.492,MainFlow,2024.2.4,143.18606168589187,2025-03-09 20h35.47.771847 +0700,
2,71,1,word/worden0711.png,image/True/img71.png,85,85,0,z,1.6304355999454856,None,0,85,85,85,366.7859866999788,,,,,,,368.27186790003907,367.77291369996965,367.77693279995583,367.77693279995583,368.27186790003907,368.27186790003907,368.2652552999789,369.37908620003145,369.37908620003145,369.37908620003145,z,1.6304355999454856,None,,,,,,,,PH_en,001,2025-03-09_20h35.36.492,MainFlow,2024.2.4,143.18606168589187,2025-03-09 20h35.47.771847 +0700,
2,3,1,word/worden0031.png,image/True/img03.png,86,86,0,z,0.9978271001018584,None,0,86,86,86,371.0188315999694,,,,,,,372.5049354999792,372.00548489997163,372.00967880000826,372.00967880000826,372.5049354999792,372.5049354999792,372.4980353000574,373.6053389000008,373.6053389000008,373.6053389000008,z,0.9978271001018584,None,,,,,,,,PH_en,001,2025-03-09_20h35.36.492,MainFlow,2024.2.4,143.18606168589187,2025-03-09 20h35.47.771847 +0700,
2,52,1,word/worden0521.png,image/True/img52.png,87,87,0,z,1.1460708000231534,None,0,87,87,87,374.6121659000637,,,,,,,376.10235930001363,375.6035984000191,375.6082503000507,375.6082503000507,376.10235930001363,376.10235930001363,376.09547399997246,377.2147946000332,377.2147946000332,377.2147946000332,z,1.1460708000231534,None,,,,,,,,PH_en,001,2025-03-09_20h35.36.492,MainFlow,2024.2.4,143.18606168589187,2025-03-09 20h35.47.771847 +0700,
2,95,0,word/worden0951.png,image/False/imgf95.png,88,88,0,x,1.2318723000353202,None,0,88,88,88,378.37162400002126,,,,,,,379.8559613999678,379.35710530006327,379.3624882999575,379.3624882999575,379.8559613999678,379.8559613999678,379.84933090000413,380.95523039996624,380.95523039996624,380.95523039996624,x,1.2318723000353202,None,,,,,,,,PH_en,001,2025-03-09_20h35.36.492,MainFlow,2024.2.4,143.18606168589187,2025-03-09 20h35.47.771847 +0700,
2,6,0,word/worden0061.png,image/False/imgf06.png,89,89,0,x,0.992232899996452,None,0,89,89,89,382.1981500000693,,,,,,,383.6844670000719,383.18439639999997,383.1883015000494,383.1883015000494,383.6844670000719,383.6844670000719,383.68146400002297,384.76582430000417,384.76582430000417,384.76582430000417,x,0.992232899996452,None,,,,,,,,PH_en,001,2025-03-09_20h35.36.492,MainFlow,2024.2.4,143.18606168589187,2025-03-09 20h35.47.771847 +0700,
2,79,1,word/worden0791.png,image/True/img79.png,90,90,0,x,2.0854072999209166,None,0,90,90,90,385.7673267000355,,,,,,,387.2566100000404,386.7585162000032,386.76305880001746,386.76305880001746,387.2566100000404,387.2566100000404,387.2499403000111,388.35932339995634,388.35932339995634,388.35932339995634,x,2.0854072999209166,None,,,,,,,,PH_en,001,2025-03-09_20h35.36.492,MainFlow,2024.2.4,143.18606168589187,2025-03-09 20h35.47.771847 +0700,
2,61,0,word/worden0611.png,image/False/imgf61.png,91,91,0,x,1.9470653999596834,None,0,91,91,91,390.4557319000596,,,,,,,391.9419397000456,391.4428132000612,391.4468951000599,391.4468951000599,391.9419397000456,391.9419397000456,391.9353143000044,393.0638850000687,393.0638850000687,393.0638850000687,x,1.9470653999596834,None,,,,,,,,PH_en,001,2025-03-09_20h35.36.492,MainFlow,2024.2.4,143.18606168589187,2025-03-09 20h35.47.771847 +0700,
2,46,0,word/worden0461.png,image/False/imgf46.png,92,92,0,x,1.0839003000874072,None,0,92,92,92,395.0235055000521,,,,,,,396.5092638999922,396.01040530006867,396.0144700000528,396.0144700000528,396.5092638999922,396.5092638999922,396.50255269999616,397.6231868000468,397.6231868000468,397.6231868000468,x,1.0839003000874072,None,,,,,,,,PH_en,001,2025-03-09_20h35.36.492,MainFlow,2024.2.4,143.18606168589187,2025-03-09 20h35.47.771847 +0700,
2,89,1,word/worden0891.png,image/True/img89.png,93,93,0,z,1.0728728000540286,None,0,93,93,93,398.71911599999294,,,,,,,400.2085148000624,399.707826100057,399.7162865999853,399.7162865999853,400.2085148000624,400.2085148000624,400.2018469000468,401.28522990003694,401.28522990003694,401.28522990003694,z,1.0728728000540286,None,,,,,,,,PH_en,001,2025-03-09_20h35.36.492,MainFlow,2024.2.4,143.18606168589187,2025-03-09 20h35.47.771847 +0700,
2,26,0,word/worden0261.png,image/False/imgf26.png,94,94,0,x,1.0283355999272317,None,0,94,94,94,402.36577400006354,,,,,,,403.84865150006954,403.3521204000572,403.35620499996,403.35620499996,403.84865150006954,403.84865150006954,403.84266399999615,404.9600036999909,404.9600036999909,404.9600036999909,x,1.0283355999272317,None,,,,,,,,PH_en,001,2025-03-09_20h35.36.492,MainFlow,2024.2.4,143.18606168589187,2025-03-09 20h35.47.771847 +0700,
2,44,0,word/worden0441.png,image/False/imgf44.png,95,95,0,x,1.5269177000736818,None,0,95,95,95,405.99970539996866,,,,,,,407.4857696000254,406.9864629000658,406.9906287000049,406.9906287000049,407.4857696000254,407.4857696000254,407.47910050000064,408.60781600000337,408.60781600000337,408.60781600000337,x,1.5269177000736818,None,,,,,,,,PH_en,001,2025-03-09_20h35.36.492,MainFlow,2024.2.4,143.18606168589187,2025-03-09 20h35.47.771847 +0700,
2,82,1,word/worden0821.png,image/True/img82.png,96,96,0,z,1.6224414999596775,None,0,96,96,96,410.1470707000699,,,,,,,411.63321650004946,411.1341066999594,411.13831910002045,411.13831910002045,411.63321650004946,411.63321650004946,411.62660369998775,412.70398980006576,412.70398980006576,412.70398980006576,z,1.6224414999596775,None,,,,,,,,PH_en,001,2025-03-09_20h35.36.492,MainFlow,2024.2.4,143.18606168589187,2025-03-09 20h35.47.771847 +0700,
2,16,1,word/worden0161.png,image/True/img16.png,97,97,0,z,1.0385954999364913,None,0,97,97,97,414.34011740004644,,,,,,,415.82618289999664,415.3268683999777,415.33087850001175,415.33087850001175,415.82618289999664,415.82618289999664,415.8194437000202,416.9435294000432,416.9435294000432,416.9435294000432,z,1.0385954999364913,None,,,,,,,,PH_en,001,2025-03-09_20h35.36.492,MainFlow,2024.2.4,143.18606168589187,2025-03-09 20h35.47.771847 +0700,
2,20,1,word/worden0201.png,image/True/img20.png,98,98,0,z,1.1866206000559032,None,0,98,98,98,417.9944008999737,,,,,,,419.48056070005987,418.981744299992,418.9857824000064,418.9857824000064,419.48056070005987,419.48056070005987,419.4739494000096,420.5861142000649,420.5861142000649,420.5861142000649,z,1.1866206000559032,None,,,,,,,,PH_en,001,2025-03-09_20h35.36.492,MainFlow,2024.2.4,143.18606168589187,2025-03-09 20h35.47.771847 +0700,
2,20,1,word/worden0201.png,image/True/img20.png,99,99,0,z,0.98485280002933,None,0,99,99,99,421.78239209996536,,,,,,,423.2683541000588,422.76959250005893,422.77362180000637,422.77362180000637,423.2683541000588,423.2683541000588,423.26164439995773,424.37471060000826,424.37471060000826,424.37471060000826,z,0.98485280002933,None,,,,,,,,PH_en,001,2025-03-09_20h35.36.492,MainFlow,2024.2.4,143.18606168589187,2025-03-09 20h35.47.771847 +0700,
2,96,1,word/worden0961.png,image/True/img96.png,100,100,0,z,1.089438800001517,None,0,100,100,100,425.3691697999602,,,,,,,426.8551391999936,426.35643549996894,426.3605363999959,426.3605363999959,426.8551391999936,426.8551391999936,426.8485012999736,427.9603926000418,427.9603926000418,427.9603926000418,z,1.089438800001517,None,,,,,,,,PH_en,001,2025-03-09_20h35.36.492,MainFlow,2024.2.4,143.18606168589187,2025-03-09 20h35.47.771847 +0700,
2,64,1,word/worden0641.png,image/True/img64.png,101,101,0,z,2.277898999978788,None,0,101,101,101,429.0598775000544,,,,,,,430.54602130001877,430.04716099996585,430.05139360006433,430.05139360006433,430.54602130001877,430.54602130001877,430.5393504999811,431.62312620005105,431.62312620005105,431.62312620005105,z,2.277898999978788,None,,,,,,,,PH_en,001,2025-03-09_20h35.36.492,MainFlow,2024.2.4,143.18606168589187,2025-03-09 20h35.47.771847 +0700,
2,78,0,word/worden0781.png,image/False/imgf78.png,102,102,0,x,0.9318728999933228,None,0,102,102,102,433.90827180002816,,,,,,,435.3957427999703,434.89536029996816,434.9001137999585,434.9001137999585,435.3957427999703,435.3957427999703,435.3891554999864,436.5158820999786,436.5158820999786,436.5158820999786,x,0.9318728999933228,None,,,,,,,,PH_en,001,2025-03-09_20h35.36.492,MainFlow,2024.2.4,143.18606168589187,2025-03-09 20h35.47.771847 +0700,
2,20,0,word/worden0201.png,image/False/imgf20.png,103,103,0,x,0.8437282000668347,None,0,103,103,103,437.45940389996395,,,,,,,438.943662900012,438.4453332000412,438.4492925000377,438.4492925000377,438.943662900012,438.943662900012,438.93688409996685,440.0901162000373,440.0901162000373,440.0901162000373,x,0.8437282000668347,None,,,,,,,,PH_en,001,2025-03-09_20h35.36.492,MainFlow,2024.2.4,143.18606168589187,2025-03-09 20h35.47.771847 +0700,
2,89,1,word/worden0891.png,image/True/img89.png,104,104,0,z,1.175233699963428,None,0,104,104,104,440.9470581000205,,,,,,,442.43300730001647,441.93356000003405,441.93756039999425,441.93756039999425,442.43300730001647,442.43300730001647,442.426502599963,443.51395379996393,443.51395379996393,443.51395379996393,z,1.175233699963428,None,,,,,,,,PH_en,001,2025-03-09_20h35.36.492,MainFlow,2024.2.4,143.18606168589187,2025-03-09 20h35.47.771847 +0700,
2,59,0,word/worden0591.png,image/False/imgf59.png,105,105,0,x,1.182636999990791,None,0,105,105,105,444.6991737000644,,,,,,,446.18537419999484,445.6863412000239,445.69078229996376,445.69078229996376,446.18537419999484,446.18537419999484,446.1786793000065,447.26330410002265,447.26330410002265,447.26330410002265,x,1.182636999990791,None,,,,,,,,PH_en,001,2025-03-09_20h35.36.492,MainFlow,2024.2.4,143.18606168589187,2025-03-09 20h35.47.771847 +0700,
2,24,0,word/worden0241.png,image/False/imgf24.png,106,106,0,x,1.2946088999742642,None,0,106,106,106,448.45811110001523,,,,,,,449.94546109996736,449.4472529999912,449.45191249996424,449.45191249996424,449.94546109996736,449.94546109996736,449.93876819999423,451.0374134000158,451.0374134000158,451.0374134000158,x,1.2946088999742642,None,,,,,,,,PH_en,001,2025-03-09_20h35.36.492,MainFlow,2024.2.4,143.18606168589187,2025-03-09 20h35.47.771847 +0700,
2,28,0,word/worden0281.png,image/False/imgf28.png,107,107,0,z,1.0786049999296665,None,0,107,107,107,452.3422238000203,,,,,,,453.8283098000102,453.32883789995685,453.3332928000018,453.3332928000018,453.8283098000102,453.8283098000102,453.82169610005803,454.9243130000541,454.9243130000541,454.9243130000541,z,1.0786049999296665,None,,,,,,,,PH_en,001,2025-03-09_20h35.36.492,MainFlow,2024.2.4,143.18606168589187,2025-03-09 20h35.47.771847 +0700,
2,15,0,word/worden0151.png,image/False/imgf15.png,108,108,0,x,1.2418929999694228,None,0,108,108,108,456.01516429998446,,,,,,,457.5060739000328,457.00428079999983,457.01279060007073,457.01279060007073,457.5060739000328,457.5060739000328,457.49941310007125,458.6022535000229,458.6022535000229,458.6022535000229,x,1.2418929999694228,None,,,,,,,,PH_en,001,2025-03-09_20h35.36.492,MainFlow,2024.2.4,143.18606168589187,2025-03-09 20h35.47.771847 +0700,
2,30,1,word/worden0301.png,image/True/img30.png,109,109,0,z,1.2083398000104353,None,0,109,109,109,459.8526055000257,,,,,,,461.3402277000714,460.8420139000518,460.8464265000075,460.8464265000075,461.3402277000714,461.3402277000714,461.3335383000085,462.4265998000046,462.4265998000046,462.4265998000046,z,1.2083398000104353,None,,,,,,,,PH_en,001,2025-03-09_20h35.36.492,MainFlow,2024.2.4,143.18606168589187,2025-03-09 20h35.47.771847 +0700,
2,64,1,word/worden0641.png,image/True/img64.png,110,110,0,z,0.8831210000207648,None,0,110,110,110,463.64863239997067,,,,,,,465.1349902000511,464.6357309999876,464.6398077000631,464.6398077000631,465.1349902000511,465.1349902000511,465.12918090005405,466.21297980006784,466.21297980006784,466.21297980006784,z,0.8831210000207648,None,,,,,,,,PH_en,001,2025-03-09_20h35.36.492,MainFlow,2024.2.4,143.18606168589187,2025-03-09 20h35.47.771847 +0700,
2,52,0,word/worden0521.png,image/False/imgf52.png,111,111,0,x,2.9256019999738783,None,0,111,111,111,467.10904290003236,,,,,,,468.59502280002926,468.09699850005563,468.1008882999886,468.1008882999886,468.59502280002926,468.59502280002926,468.5884973000502,469.6834699000465,469.6834699000465,469.6834699000465,x,2.9256019999738783,None,,,,,,,,PH_en,001,2025-03-09_20h35.36.492,MainFlow,2024.2.4,143.18606168589187,2025-03-09 20h35.47.771847 +0700,
2,33,1,word/worden0331.png,image/True/img33.png,112,112,0,x,1.5951878000050783,None,0,112,112,112,472.6200580999721,,,,,,,474.10662069998216,473.60762999998406,473.61163100006524,473.61163100006524,474.10662069998216,474.10662069998216,474.1000031000003,475.20961610006634,475.20961610006634,475.20961610006634,x,1.5951878000050783,None,,,,,,,,PH_en,001,2025-03-09_20h35.36.492,MainFlow,2024.2.4,143.18606168589187,2025-03-09 20h35.47.771847 +0700,
2,23,1,word/worden0231.png,image/True/img23.png,113,113,0,z,1.3937287000007927,None,0,113,113,113,476.8125286999857,,,,,,,478.29793460003566,477.7989207999781,477.8030094000278,477.8030094000278,478.29793460003566,478.29793460003566,478.29128850006964,479.3969375999877,479.3969375999877,479.3969375999877,z,1.3937287000007927,None,,,,,,,,PH_en,001,2025-03-09_20h35.36.492,MainFlow,2024.2.4,143.18606168589187,2025-03-09 20h35.47.771847 +0700,
2,11,1,word/worden0111.png,image/True/img11.png,114,114,0,z,1.4936251000035554,None,0,114,114,114,480.7992491000332,,,,,,,482.2852408000035,481.78636390005704,481.79038939997554,481.79038939997554,482.2852408000035,482.2852408000035,482.27851249999367,483.40360099996906,483.40360099996906,483.40360099996906,z,1.4936251000035554,None,,,,,,,,PH_en,001,2025-03-09_20h35.36.492,MainFlow,2024.2.4,143.18606168589187,2025-03-09 20h35.47.771847 +0700,
2,22,1,word/worden0221.png,image/True/img22.png,115,115,0,z,1.1589844000991434,None,0,115,115,115,484.9107327000238,,,,,,,486.39686670002993,485.897766900016,485.9022473000223,485.9022473000223,486.39686670002993,486.39686670002993,486.39021250000224,487.5143304000376,487.5143304000376,487.5143304000376,z,1.1589844000991434,None,,,,,,,,PH_en,001,2025-03-09_20h35.36.492,MainFlow,2024.2.4,143.18606168589187,2025-03-09 20h35.47.771847 +0700,
2,37,0,word/worden0371.png,image/False/imgf37.png,116,116,0,x,0.9879987000022084,None,0,116,116,116,488.6827801000327,,,,,,,490.16920919995755,489.6704348999774,489.67432250001,489.67432250001,490.16920919995755,490.16920919995755,490.16271259996574,491.2907552999677,491.2907552999677,491.2907552999677,x,0.9879987000022084,None,,,,,,,,PH_en,001,2025-03-09_20h35.36.492,MainFlow,2024.2.4,143.18606168589187,2025-03-09 20h35.47.771847 +0700,
2,79,0,word/worden0791.png,image/False/imgf79.png,117,117,0,x,2.739006199990399,None,0,117,117,117,492.29159789998084,,,,,,,493.7765361999627,493.27655109995976,493.2849205000093,493.2849205000093,493.7765361999627,493.7765361999627,493.76998390001245,494.8872038000263,494.8872038000263,494.8872038000263,x,2.739006199990399,None,,,,,,,,PH_en,001,2025-03-09_20h35.36.492,MainFlow,2024.2.4,143.18606168589187,2025-03-09 20h35.47.771847 +0700,
2,56,1,word/worden0561.png,image/True/img56.png,118,118,0,z,1.010583799914457,None,0,118,118,118,497.6377021999797,,,,,,,499.1239234000677,498.62499569996726,498.62900419998914,498.62900419998914,499.1239234000677,499.1239234000677,499.1173027000623,500.21597729995847,500.21597729995847,500.21597729995847,z,1.010583799914457,None,,,,,,,,PH_en,001,2025-03-09_20h35.36.492,MainFlow,2024.2.4,143.18606168589187,2025-03-09 20h35.47.771847 +0700,
2,68,1,word/worden0681.png,image/True/img68.png,119,119,0,z,1.166397500084713,None,0,119,119,119,501.2354969000444,,,,,,,502.7214930000482,502.22245380003005,502.22662760003004,502.22662760003004,502.7214930000482,502.7214930000482,502.71481030003633,503.7965614000568,503.7965614000568,503.7965614000568,z,1.166397500084713,None,,,,,,,,PH_en,001,2025-03-09_20h35.36.492,MainFlow,2024.2.4,143.18606168589187,2025-03-09 20h35.47.771847 +0700,
2,27,0,word/worden0271.png,image/False/imgf27.png,120,120,0,x,1.0833348999731243,None,0,120,120,120,504.9707666999893,,,,,,,506.45846160000656,505.9572956999764,505.961364399991,505.961364399991,506.45846160000656,506.45846160000656,506.45088610006496,507.54192160000093,507.54192160000093,507.54192160000093,x,1.0833348999731243,None,,,,,,,,PH_en,001,2025-03-09_20h35.36.492,MainFlow,2024.2.4,143.18606168589187,2025-03-09 20h35.47.771847 +0700,
2,3,1,word/worden0031.png,image/True/img03.png,121,121,0,z,0.8568533000070602,None,0,121,121,121,508.6331825000234,,,,,,,510.1193756000139,509.6196431000717,509.6234506999608,509.6234506999608,510.1193756000139,510.1193756000139,510.1126821000362,511.21332520002034,511.21332520002034,511.21332520002034,z,0.8568533000070602,None,,,,,,,,PH_en,001,2025-03-09_20h35.36.492,MainFlow,2024.2.4,143.18606168589187,2025-03-09 20h35.47.771847 +0700,
2,38,0,word/worden0381.png,image/False/imgf38.png,122,122,0,x,2.6118599999463186,None,0,122,122,122,512.0839626999805,,,,,,,513.5700542000122,513.0702305999584,513.0740456000203,513.0740456000203,513.5700542000122,513.5700542000122,513.5633745000232,514.6892052000621,514.6892052000621,514.6892052000621,x,2.6118599999463186,None,,,,,,,,PH_en,001,2025-03-09_20h35.36.492,MainFlow,2024.2.4,143.18606168589187,2025-03-09 20h35.47.771847 +0700,
2,59,1,word/worden0591.png,image/True/img59.png,123,123,0,x,1.1531425999710336,None,0,123,123,123,517.3135546999983,,,,,,,518.7994841999607,518.3002107000211,518.3043245000299,518.3043245000299,518.7994841999607,518.7994841999607,518.792657700018,519.8742450000718,519.8742450000718,519.8742450000718,x,1.1531425999710336,None,,,,,,,,PH_en,001,2025-03-09_20h35.36.492,MainFlow,2024.2.4,143.18606168589187,2025-03-09 20h35.47.771847 +0700,
2,18,1,word/worden0181.png,image/True/img18.png,124,124,0,z,0.8686092999996617,None,0,124,124,124,521.0345776999602,,,,,,,522.5204713999992,522.0217739000218,522.0258305000607,522.0258305000607,522.5204713999992,522.5204713999992,522.5142068000278,523.6043837000616,523.6043837000616,523.6043837000616,z,0.8686092999996617,None,,,,,,,,PH_en,001,2025-03-09_20h35.36.492,MainFlow,2024.2.4,143.18606168589187,2025-03-09 20h35.47.771847 +0700,
2,60,1,word/worden0601.png,image/True/img60.png,125,125,0,z,0.9568537999875844,None,0,125,125,125,524.4816749000456,,,,,,,525.9672436000546,525.4686698999722,525.4728619999951,525.4728619999951,525.9672436000546,525.9672436000546,525.9606144999852,527.057286700001,527.057286700001,527.057286700001,z,0.9568537999875844,None,,,,,,,,PH_en,001,2025-03-09_20h35.36.492,MainFlow,2024.2.4,143.18606168589187,2025-03-09 20h35.47.771847 +0700,
2,9,1,word/worden0091.png,image/True/img09.png,126,126,0,z,9.538920899969526,None,0,126,126,126,528.022816700046,,,,,,,529.5106431000168,529.0109679000452,529.0154176000506,529.0154176000506,529.5106431000168,529.5106431000168,529.5023898000363,530.5741124000633,530.5741124000633,530.5741124000633,z,9.538920899969526,None,,,,,,,,PH_en,001,2025-03-09_20h35.36.492,MainFlow,2024.2.4,143.18606168589187,2025-03-09 20h35.47.771847 +0700,
2,9,0,word/worden0091.png,image/False/imgf09.png,127,127,0,x,1.4965820999350399,None,0,127,127,127,540.1228637000313,,,,,,,541.6088473000564,541.1102269999683,541.1143019000301,541.1143019000301,541.6088473000564,541.6088473000564,541.6021458000178,542.6824283000315,542.6824283000315,542.6824283000315,x,1.4965820999350399,None,,,,,,,,PH_en,001,2025-03-09_20h35.36.492,MainFlow,2024.2.4,143.18606168589187,2025-03-09 20h35.47.771847 +0700,
2,94,0,word/worden0941.png,image/False/imgf94.png,128,128,0,x,1.6595417999196798,None,0,128,128,128,544.1908959000139,,,,,,,545.6772532999748,545.1780965999933,545.1820436000125,545.1820436000125,545.6772532999748,545.6772532999748,545.6706037999829,546.790878299973,546.790878299973,546.790878299973,x,1.6595417999196798,None,,,,,,,,PH_en,001,2025-03-09_20h35.36.492,MainFlow,2024.2.4,143.18606168589187,2025-03-09 20h35.47.771847 +0700,
2,66,1,word/worden0661.png,image/True/img66.png,129,129,0,z,1.1836838000454009,None,0,129,129,129,548.4630154999904,,,,,,,549.9489643999841,549.4501506000524,549.454197300016,549.454197300016,549.9489643999841,549.9489643999841,549.9422640000703,551.0472928000381,551.0472928000381,551.0472928000381,z,1.1836838000454009,None,,,,,,,,PH_en,001,2025-03-09_20h35.36.492,MainFlow,2024.2.4,143.18606168589187,2025-03-09 20h35.47.771847 +0700,
2,1,0,word/worden0011.png,image/False/imgf01.png,130,130,0,x,1.3008117000572383,None,0,130,130,130,552.2412598000374,,,,,,,553.7271541999653,553.2267718999647,553.2351689999923,553.2351689999923,553.7271541999653,553.7271541999653,553.7204538000515,554.8158123999601,554.8158123999601,554.8158123999601,x,1.3008117000572383,None,,,,,,,,PH_en,001,2025-03-09_20h35.36.492,MainFlow,2024.2.4,143.18606168589187,2025-03-09 20h35.47.771847 +0700,
2,89,0,word/worden0891.png,image/False/imgf89.png,131,131,0,x,1.072088100016117,None,0,131,131,131,556.1254192000488,,,,,,,557.6102247000672,557.1107906000689,557.1150154999923,557.1150154999923,557.6102247000672,557.6102247000672,557.6031776999589,558.7006353000179,558.7006353000179,558.7006353000179,x,1.072088100016117,None,,,,,,,,PH_en,001,2025-03-09_20h35.36.492,MainFlow,2024.2.4,143.18606168589187,2025-03-09 20h35.47.771847 +0700,
2,48,1,word/worden0481.png,image/True/img48.png,132,132,0,z,0.9104702000040561,None,0,132,132,132,559.782695800066,,,,,,,561.2686366999988,560.769242899958,560.7732336999616,560.7732336999616,561.2686366999988,561.2686366999988,561.2623893000418,562.3738966999808,562.3738966999808,562.3738966999808,z,0.9104702000040561,None,,,,,,,,PH_en,001,2025-03-09_20h35.36.492,MainFlow,2024.2.4,143.18606168589187,2025-03-09 20h35.47.771847 +0700,
2,63,0,word/worden0631.png,image/False/imgf63.png,133,133,0,x,1.880192199954763,None,0,133,133,133,563.2931086999597,,,,,,,564.780063000042,564.2818238000618,564.285881799995,564.285881799995,564.780063000042,564.780063000042,564.7733997000614,565.8855695000384,565.8855695000384,565.8855695000384,x,1.880192199954763,None,,,,,,,,PH_en,001,2025-03-09_20h35.36.492,MainFlow,2024.2.4,143.18606168589187,2025-03-09 20h35.47.771847 +0700,
2,23,1,word/worden0231.png,image/True/img23.png,134,134,0,z,1.1523277999367565,None,0,134,134,134,567.7764296999667,,,,,,,569.262526000035,568.763102500001,568.7672004000051,568.7672004000051,569.262526000035,569.262526000035,569.2561570999678,570.3537835000316,570.3537835000316,570.3537835000316,z,1.1523277999367565,None,,,,,,,,PH_en,001,2025-03-09_20h35.36.492,MainFlow,2024.2.4,143.18606168589187,2025-03-09 20h35.47.771847 +0700,
2,40,0,word/worden0401.png,image/False/imgf40.png,135,135,0,x,0.9451343000400811,None,0,135,135,135,571.513008799986,,,,,,,572.999445399968,572.5001679999987,572.5041617000243,572.5041617000243,572.999445399968,572.999445399968,572.9928357000463,574.1016596000409,574.1016596000409,574.1016596000409,x,0.9451343000400811,None,,,,,,,,PH_en,001,2025-03-09_20h35.36.492,MainFlow,2024.2.4,143.18606168589187,2025-03-09 20h35.47.771847 +0700,
2,52,1,word/worden0521.png,image/True/img52.png,136,136,0,z,0.9873999999836087,None,0,136,136,136,575.0579012000235,,,,,,,576.5447386000305,576.0464851000579,576.0549493000144,576.0549493000144,576.5447386000305,576.5447386000305,576.5382456000661,577.646679700003,577.646679700003,577.646679700003,z,0.9873999999836087,None,,,,,,,,PH_en,001,2025-03-09_20h35.36.492,MainFlow,2024.2.4,143.18606168589187,2025-03-09 20h35.47.771847 +0700,
2,30,1,word/worden0301.png,image/True/img30.png,137,137,0,z,0.9375718999654055,None,0,137,137,137,578.6463588000042,,,,,,,580.1323997,579.633177199983,579.6373901000479,579.6373901000479,580.1323997,580.1323997,580.1257743999595,581.2215722000692,581.2215722000692,581.2215722000692,z,0.9375718999654055,None,,,,,,,,PH_en,001,2025-03-09_20h35.36.492,MainFlow,2024.2.4,143.18606168589187,2025-03-09 20h35.47.771847 +0700,
2,15,1,word/worden0151.png,image/True/img15.png,138,138,0,z,1.1250850000651553,None,0,138,138,138,582.172754600062,,,,,,,583.6592843000544,583.1596512000542,583.1638201000169,583.1638201000169,583.6592843000544,583.6592843000544,583.6525855000364,584.7693865000037,584.7693865000037,584.7693865000037,z,1.1250850000651553,None,,,,,,,,PH_en,001,2025-03-09_20h35.36.492,MainFlow,2024.2.4,143.18606168589187,2025-03-09 20h35.47.771847 +0700,
2,46,1,word/worden0461.png,image/True/img46.png,139,139,0,z,1.097501500044018,None,0,139,139,139,585.9048827000661,,,,,,,587.391208200017,586.8920135999797,586.8960204999894,586.8960204999894,587.391208200017,587.391208200017,587.3841243999777,588.5194212000351,588.5194212000351,588.5194212000351,z,1.097501500044018,None,,,,,,,,PH_en,001,2025-03-09_20h35.36.492,MainFlow,2024.2.4,143.18606168589187,2025-03-09 20h35.47.771847 +0700,
2,14,1,word/worden0141.png,image/True/img14.png,140,140,0,z,0.9253998000640422,None,0,140,140,140,589.6251228000037,,,,,,,591.1117187000345,590.6127246000106,590.6167013000231,590.6167013000231,591.1117187000345,591.1117187000345,591.1049900000216,592.2160941000329,592.2160941000329,592.2160941000329,z,0.9253998000640422,None,,,,,,,,PH_en,001,2025-03-09_20h35.36.492,MainFlow,2024.2.4,143.18606168589187,2025-03-09 20h35.47.771847 +0700,
2,66,0,word/worden0661.png,image/False/imgf66.png,141,141,0,x,1.3997469000751153,None,0,141,141,141,593.1506885000272,,,,,,,594.6366480999859,594.1378755000187,594.141856100061,594.141856100061,594.6366480999859,594.6366480999859,594.6299492999678,595.7428796000313,595.7428796000313,595.7428796000313,x,1.3997469000751153,None,,,,,,,,PH_en,001,2025-03-09_20h35.36.492,MainFlow,2024.2.4,143.18606168589187,2025-03-09 20h35.47.771847 +0700,
2,46,0,word/worden0461.png,image/False/imgf46.png,142,142,0,x,1.0165505000622943,None,0,142,142,142,597.1541717000073,,,,,,,598.6403352000052,598.1410201999824,598.145000700024,598.145000700024,598.6403352000052,598.6403352000052,598.6336559000192,599.7567012000363,599.7567012000363,599.7567012000363,x,1.0165505000622943,None,,,,,,,,PH_en,001,2025-03-09_20h35.36.492,MainFlow,2024.2.4,143.18606168589187,2025-03-09 20h35.47.771847 +0700,
2,18,1,word/worden0181.png,image/True/img18.png,143,143,0,z,1.0163425999926403,None,0,143,143,143,600.7818030000199,,,,,,,602.2663522000657,601.7682559000095,601.7725400000345,601.7725400000345,602.2663522000657,602.2663522000657,602.2597251000116,603.3532792000333,603.3532792000333,603.3532792000333,z,1.0163425999926403,None,,,,,,,,PH_en,001,2025-03-09_20h35.36.492,MainFlow,2024.2.4,143.18606168589187,2025-03-09 20h35.47.771847 +0700,
2,51,0,word/worden0511.png,image/False/imgf51.png,144,144,0,x,1.4396571000106633,None,0,144,144,144,604.3803297000704,,,,,,,605.8662235999946,605.3668519000057,605.3708508000709,605.3708508000709,605.8662235999946,605.8662235999946,605.8600843000459,606.9562390999636,606.9562390999636,606.9562390999636,x,1.4396571000106633,None,,,,,,,,PH_en,001,2025-03-09_20h35.36.492,MainFlow,2024.2.4,143.18606168589187,2025-03-09 20h35.47.771847 +0700,
2,76,1,word/worden0761.png,image/True/img76.png,145,145,0,z,1.2709592001046985,None,0,145,145,145,608.4071185999783,,,,,,,609.8935661000432,609.3945263000205,609.3985456000082,609.3985456000082,609.8935661000432,609.8935661000432,609.8868598999688,610.991027400014,610.991027400014,610.991027400014,z,1.2709592001046985,None,,,,,,,,PH_en,001,2025-03-09_20h35.36.492,MainFlow,2024.2.4,143.18606168589187,2025-03-09 20h35.47.771847 +0700,
2,57,1,word/worden0571.png,image/True/img57.png,146,146,0,z,2.4320611000293866,None,0,146,146,146,612.2754205999663,,,,,,,613.7611529000569,613.2624709999654,613.2664790999843,613.2664790999843,613.7611529000569,613.7611529000569,613.7544303999748,614.8612274000188,614.8612274000188,614.8612274000188,z,2.4320611000293866,None,,,,,,,,PH_en,001,2025-03-09_20h35.36.492,MainFlow,2024.2.4,143.18606168589187,2025-03-09 20h35.47.771847 +0700,
2,48,0,word/worden0481.png,image/False/imgf48.png,147,147,0,x,0.7744327000109479,None,0,147,147,147,617.3055279999971,,,,,,,618.7922445000149,618.2923383000307,618.2967419000342,618.2967419000342,618.7922445000149,618.7922445000149,618.7860486999853,619.8975704000331,619.8975704000331,619.8975704000331,x,0.7744327000109479,None,,,,,,,,PH_en,001,2025-03-09_20h35.36.492,MainFlow,2024.2.4,143.18606168589187,2025-03-09 20h35.47.771847 +0700,
2,37,0,word/worden0371.png,image/False/imgf37.png,148,148,0,x,1.2509620999917388,None,0,148,148,148,620.6838120999746,,,,,,,622.1699085000437,621.6699084000429,621.6738581999671,621.6738581999671,622.1699085000437,622.1699085000437,622.1632563000312,623.3088971000398,623.3088971000398,623.3088971000398,x,1.2509620999917388,None,,,,,,,,PH_en,001,2025-03-09_20h35.36.492,MainFlow,2024.2.4,143.18606168589187,2025-03-09 20h35.47.771847 +0700,
2,60,0,word/worden0601.png,image/False/imgf60.png,149,149,0,x,1.1169189000502229,None,0,149,149,149,624.567638700013,,,,,,,626.0545321999816,625.55408729997,625.5597010999918,625.5597010999918,626.0545321999816,626.0545321999816,626.0482724000467,627.1446048000362,627.1446048000362,627.1446048000362,x,1.1169189000502229,None,,,,,,,,PH_en,001,2025-03-09_20h35.36.492,MainFlow,2024.2.4,143.18606168589187,2025-03-09 20h35.47.771847 +0700,
2,24,1,word/worden0241.png,image/True/img24.png,150,150,0,x,1.400243500014767,None,0,150,150,150,628.2690976000158,,,,,,,629.7551582000451,629.2561814000364,629.2610106000211,629.2610106000211,629.7551582000451,629.7551582000451,629.7488528999966,630.8217672000173,630.8217672000173,630.8217672000173,x,1.400243500014767,None,,,,,,,,PH_en,001,2025-03-09_20h35.36.492,MainFlow,2024.2.4,143.18606168589187,2025-03-09 20h35.47.771847 +0700,
2,40,1,word/worden0401.png,image/True/img40.png,151,151,0,z,1.0429576999740675,None,0,151,151,151,632.232906899997,,,,,,,633.7194109000266,633.2172935999697,633.2257222000044,633.2257222000044,633.7194109000266,633.7194109000266,633.7120766000589,634.8354172999971,634.8354172999971,634.8354172999971,z,1.0429576999740675,None,,,,,,,,PH_en,001,2025-03-09_20h35.36.492,MainFlow,2024.2.4,143.18606168589187,2025-03-09 20h35.47.771847 +0700,
2,54,1,word/worden0541.png,image/True/img54.png,152,152,0,z,0.7962590999668464,None,0,152,152,152,635.8861453999998,,,,,,,637.376401699963,636.8759667000268,636.8844141999725,636.8844141999725,637.376401699963,637.376401699963,637.3697227999801,638.492708500009,638.492708500009,638.492708500009,z,0.7962590999668464,None,,,,,,,,PH_en,001,2025-03-09_20h35.36.492,MainFlow,2024.2.4,143.18606168589187,2025-03-09 20h35.47.771847 +0700,
2,44,0,word/worden0441.png,image/False/imgf44.png,153,153,0,x,1.196156800026074,None,0,153,153,153,639.3028849000111,,,,,,,640.787000900018,640.2877114999574,640.2915661999723,640.2915661999723,640.787000900018,640.787000900018,640.7804936000612,641.893976500025,641.893976500025,641.893976500025,x,1.196156800026074,None,,,,,,,,PH_en,001,2025-03-09_20h35.36.492,MainFlow,2024.2.4,143.18606168589187,2025-03-09 20h35.47.771847 +0700,
2,79,1,word/worden0791.png,image/True/img79.png,154,154,0,z,1.0227734999498352,None,0,154,154,154,643.1034715999849,,,,,,,644.5899113999913,644.0907543000067,644.0947204000549,644.0947204000549,644.5899113999913,644.5899113999913,644.5832346000243,645.7128451999743,645.7128451999743,645.7128451999743,z,1.0227734999498352,None,,,,,,,,PH_en,001,2025-03-09_20h35.36.492,MainFlow,2024.2.4,143.18606168589187,2025-03-09 20h35.47.771847 +0700,
2,95,1,word/worden0951.png,image/True/img95.png,155,155,0,z,1.010729099973105,None,0,155,155,155,646.7450255999574,,,,,,,648.2316589000402,647.7319950000383,647.7361342000077,647.7361342000077,648.2316589000402,648.2316589000402,648.2250589999603,649.341431900044,649.341431900044,649.341431900044,z,1.010729099973105,None,,,,,,,,PH_en,001,2025-03-09_20h35.36.492,MainFlow,2024.2.4,143.18606168589187,2025-03-09 20h35.47.771847 +0700,
2,37,1,word/worden0371.png,image/True/img37.png,156,156,0,z,1.7085305999498814,None,0,156,156,156,650.3619060000638,,,,,,,651.8479458000511,651.3487424000632,651.3531161999563,651.3531161999563,651.8479458000511,651.8479458000511,651.8412540999707,652.9602283000713,652.9602283000713,652.9602283000713,z,1.7085305999498814,None,,,,,,,,PH_en,001,2025-03-09_20h35.36.492,MainFlow,2024.2.4,143.18606168589187,2025-03-09 20h35.47.771847 +0700,
2,70,1,word/worden0701.png,image/True/img70.png,157,157,0,z,0.8759075999259949,None,0,157,157,157,654.6806193999946,,,,,,,656.1651826000307,655.6658997000195,655.670152500039,655.670152500039,656.1651826000307,656.1651826000307,656.1584686000133,657.2678010000382,657.2678010000382,657.2678010000382,z,0.8759075999259949,None,,,,,,,,PH_en,001,2025-03-09_20h35.36.492,MainFlow,2024.2.4,143.18606168589187,2025-03-09 20h35.47.771847 +0700,
2,40,1,word/worden0401.png,image/True/img40.png,158,158,0,z,1.153689399943687,None,0,158,158,158,658.1523185999831,,,,,,,659.6414081000257,659.1409032000229,659.1492982000345,659.1492982000345,659.6414081000257,659.6414081000257,659.6343947000569,660.7609441999812,660.7609441999812,660.7609441999812,z,1.153689399943687,None,,,,,,,,PH_en,001,2025-03-09_20h35.36.492,MainFlow,2024.2.4,143.18606168589187,2025-03-09 20h35.47.771847 +0700,
2,30,0,word/worden0301.png,image/False/imgf30.png,159,159,0,x,1.1868033999344334,None,0,159,159,159,661.927363499999,,,,,,,663.4152824999765,662.9145447000628,662.9184960999992,662.9184960999992,663.4152824999765,663.4152824999765,663.4086890000617,664.4979651999893,664.4979651999893,664.4979651999893,x,1.1868033999344334,None,,,,,,,,PH_en,001,2025-03-09_20h35.36.492,MainFlow,2024.2.4,143.18606168589187,2025-03-09 20h35.47.771847 +0700,
2,88,1,word/worden0881.png,image/True/img88.png,160,160,0,z,0.8182410999434069,None,0,160,160,160,665.6981606000336,,,,,,,667.1841732000466,666.6849648000207,666.6894789000507,666.6894789000507,667.1841732000466,667.1841732000466,667.1775265999604,668.2986861000536,668.2986861000536,668.2986861000536,z,0.8182410999434069,None,,,,,,,,PH_en,001,2025-03-09_20h35.36.492,MainFlow,2024.2.4,143.18606168589187,2025-03-09 20h35.47.771847 +0700,
2,15,1,word/worden0151.png,image/True/img15.png,161,161,0,z,0.9246873999945819,None,0,161,161,161,669.1298113999655,,,,,,,670.6194669000106,670.1179986000061,670.126714700018,670.126714700018,670.6194669000106,670.6194669000106,670.6129091000184,671.7288884000154,671.7288884000154,671.7288884000154,z,0.9246873999945819,None,,,,,,,,PH_en,001,2025-03-09_20h35.36.492,MainFlow,2024.2.4,143.18606168589187,2025-03-09 20h35.47.771847 +0700,
2,54,1,word/worden0541.png,image/True/img54.png,162,162,0,z,1.1104050000431016,None,0,162,162,162,672.6626840999816,,,,,,,674.1487444000086,673.6491985999746,673.6535845999606,673.6535845999606,674.1487444000086,674.1487444000086,674.1421125000343,675.2539582999889,675.2539582999889,675.2539582999889,z,1.1104050000431016,None,,,,,,,,PH_en,001,2025-03-09_20h35.36.492,MainFlow,2024.2.4,143.18606168589187,2025-03-09 20h35.47.771847 +0700,
2,11,0,word/worden0111.png,image/False/imgf11.png,163,163,0,x,1.1414328999817371,None,0,163,163,163,676.37176800007,,,,,,,677.8579449000536,677.3593876999803,677.3637365000322,677.3637365000322,677.8579449000536,677.8579449000536,677.8512913000304,678.9680271999678,678.9680271999678,678.9680271999678,x,1.1414328999817371,None,,,,,,,,PH_en,001,2025-03-09_20h35.36.492,MainFlow,2024.2.4,143.18606168589187,2025-03-09 20h35.47.771847 +0700,
2,16,1,word/worden0161.png,image/True/img16.png,164,164,0,z,0.8303894000127912,None,0,164,164,164,680.120635200059,,,,,,,681.6069349000463,681.1068247000221,681.1107663000003,681.1107663000003,681.6069349000463,681.6069349000463,681.6001702999929,682.72057460004,682.72057460004,682.72057460004,z,0.8303894000127912,None,,,,,,,,PH_en,001,2025-03-09_20h35.36.492,MainFlow,2024.2.4,143.18606168589187,2025-03-09 20h35.47.771847 +0700,
2,1,1,word/worden0011.png,image/True/img01.png,165,165,0,z,0.8734460999257863,None,0,165,165,165,683.5594821000705,,,,,,,685.0455271999817,684.5462147999788,684.550201300066,684.550201300066,685.0455271999817,685.0455271999817,685.0388578000711,686.1479247000534,686.1479247000534,686.1479247000534,z,0.8734460999257863,None,,,,,,,,PH_en,001,2025-03-09_20h35.36.492,MainFlow,2024.2.4,143.18606168589187,2025-03-09 20h35.47.771847 +0700,
2,22,0,word/worden0221.png,image/False/imgf22.png,166,166,0,x,1.0176423999946564,None,0,166,166,166,687.0326507000718,,,,,,,688.5230651999591,688.0213474000338,688.0298841999611,688.0298841999611,688.5230651999591,688.5230651999591,688.5164604999591,689.625335699995,689.625335699995,689.625335699995,x,1.0176423999946564,None,,,,,,,,PH_en,001,2025-03-09_20h35.36.492,MainFlow,2024.2.4,143.18606168589187,2025-03-09 20h35.47.771847 +0700,
2,63,1,word/worden0631.png,image/True/img63.png,167,167,0,z,1.0832919999957085,None,0,167,167,167,690.6522998999571,,,,,,,692.1381307999836,691.6395842999918,691.6439518000698,691.6439518000698,692.1381307999836,692.1381307999836,692.1314245000249,693.2295654000482,693.2295654000482,693.2295654000482,z,1.0832919999957085,None,,,,,,,,PH_en,001,2025-03-09_20h35.36.492,MainFlow,2024.2.4,143.18606168589187,2025-03-09 20h35.47.771847 +0700,
2,87,1,word/worden0871.png,image/True/img87.png,168,168,0,z,1.0699017000151798,None,0,168,168,168,694.3205535999732,,,,,,,695.8064271999756,695.3076098000165,695.3120218999684,695.3120218999684,695.8064271999756,695.8064271999756,695.800255500013,696.909001699998,696.909001699998,696.909001699998,z,1.0699017000151798,None,,,,,,,,PH_en,001,2025-03-09_20h35.36.492,MainFlow,2024.2.4,143.18606168589187,2025-03-09 20h35.47.771847 +0700,
2,57,0,word/worden0571.png,image/False/imgf57.png,169,169,0,x,1.1343809999525547,None,0,169,169,169,697.9918534000171,,,,,,,699.4780896999873,698.979020299972,698.9829688000027,698.9829688000027,699.4780896999873,699.4780896999873,699.4718113000272,700.5762229000684,700.5762229000684,700.5762229000684,x,1.1343809999525547,None,,,,,,,,PH_en,001,2025-03-09_20h35.36.492,MainFlow,2024.2.4,143.18606168589187,2025-03-09 20h35.47.771847 +0700,
2,94,0,word/worden0941.png,image/False/imgf94.png,170,170,0,x,1.581605999963358,None,0,170,170,170,701.7221230999567,,,,,,,703.2073769000126,702.7084431999829,702.7126279000659,702.7126279000659,703.2073769000126,703.2073769000126,703.2008212000364,704.3192820000695,704.3192820000695,704.3192820000695,x,1.581605999963358,None,,,,,,,,PH_en,001,2025-03-09_20h35.36.492,MainFlow,2024.2.4,143.18606168589187,2025-03-09 20h35.47.771847 +0700,
2,93,0,word/worden0931.png,image/False/imgf93.png,171,171,0,x,0.9809533000225201,None,0,171,171,171,705.9131013000151,,,,,,,707.3962373000104,706.8969946999568,706.9009065000573,706.9009065000573,707.3962373000104,707.3962373000104,707.3894669000292,708.4855960999848,708.4855960999848,708.4855960999848,x,0.9809533000225201,None,,,,,,,,PH_en,001,2025-03-09_20h35.36.492,MainFlow,2024.2.4,143.18606168589187,2025-03-09 20h35.47.771847 +0700,
2,61,1,word/worden0611.png,image/True/img61.png,172,172,0,z,1.513100599986501,None,0,172,172,172,709.4763351000147,,,,,,,710.9805408000248,710.4791289999848,710.4875772000523,710.4875772000523,,,710.9739708000561,,712.0644506000681,712.0644506000681,z,1.513100599986501,None,,,,,,,,PH_en,001,2025-03-09_20h35.36.492,MainFlow,2024.2.4,143.18606168589187,2025-03-09 20h35.47.771847 +0700,
2,28,1,word/worden0281.png,image/True/img28.png,173,173,0,z,0.71881150000263,None,0,173,173,173,713.5848552000243,,,,,,,715.0703296000138,714.5712318000151,714.5751873999834,714.5751873999834,715.0703296000138,715.0703296000138,715.0641797999851,716.1802661999827,716.1802661999827,716.1802661999827,z,0.71881150000263,None,,,,,,,,PH_en,001,2025-03-09_20h35.36.492,MainFlow,2024.2.4,143.18606168589187,2025-03-09 20h35.47.771847 +0700,
2,46,1,word/worden0461.png,image/True/img46.png,174,174,0,z,0.7703645000001416,None,0,174,174,174,716.9085431999993,,,,,,,718.3945064999862,717.8956163000548,717.8997156000696,717.8997156000696,718.3945064999862,718.3945064999862,718.3882074999856,719.5045515999664,719.5045515999664,719.5045515999664,z,0.7703645000001416,None,,,,,,,,PH_en,001,2025-03-09_20h35.36.492,MainFlow,2024.2.4,143.18606168589187,2025-03-09 20h35.47.771847 +0700,
2,22,1,word/worden0221.png,image/True/img22.png,175,175,0,z,1.0934771000174806,None,0,175,175,175,720.281214699964,,,,,,,721.76783050003,721.2683048000326,721.272366899997,721.272366899997,721.76783050003,721.76783050003,721.7610478999559,722.8823138000444,722.8823138000444,722.8823138000444,z,1.0934771000174806,None,,,,,,,,PH_en,001,2025-03-09_20h35.36.492,MainFlow,2024.2.4,143.18606168589187,2025-03-09 20h35.47.771847 +0700,
2,93,1,word/worden0931.png,image/True/img93.png,176,176,0,z,1.846299499971792,None,0,176,176,176,723.9844688000157,,,,,,,725.4701086999848,724.9707102000248,724.974725499982,724.974725499982,725.4701086999848,725.4701086999848,725.4634437999921,726.5555846999632,726.5555846999632,726.5555846999632,z,1.846299499971792,None,,,,,,,,PH_en,001,2025-03-09_20h35.36.492,MainFlow,2024.2.4,143.18606168589187,2025-03-09 20h35.47.771847 +0700,
2,95,1,word/worden0951.png,image/True/img95.png,177,177,0,x,1.9267361999955028,None,0,177,177,177,728.4107341000345,,,,,,,729.8964795999927,729.3973922999576,729.4016137999715,729.4016137999715,729.8964795999927,729.8964795999927,729.8898455000017,731.0063508000458,731.0063508000458,731.0063508000458,x,1.9267361999955028,None,,,,,,,,PH_en,001,2025-03-09_20h35.36.492,MainFlow,2024.2.4,143.18606168589187,2025-03-09 20h35.47.771847 +0700,
2,17,0,word/worden0171.png,image/False/imgf17.png,178,178,0,z,1.3419475000118837,None,0,178,178,178,732.9435183999594,,,,,,,734.4292126999935,733.9300144000445,733.9340381000657,733.9340381000657,734.4292126999935,734.4292126999935,734.422543099965,735.5320435999893,735.5320435999893,735.5320435999893,z,1.3419475000118837,None,,,,,,,,PH_en,001,2025-03-09_20h35.36.492,MainFlow,2024.2.4,143.18606168589187,2025-03-09 20h35.47.771847 +0700,
2,26,1,word/worden0261.png,image/True/img26.png,179,179,0,z,1.1824478999478742,None,0,179,179,179,736.8852215000661,,,,,,,738.3713650000282,737.8716901000589,737.8754303000169,737.8754303000169,738.3713650000282,738.3713650000282,738.3641981000546,739.4829459000612,739.4829459000612,739.4829459000612,z,1.1824478999478742,None,,,,,,,,PH_en,001,2025-03-09_20h35.36.492,MainFlow,2024.2.4,143.18606168589187,2025-03-09 20h35.47.771847 +0700,
2,27,1,word/worden0271.png,image/True/img27.png,180,180,0,x,2.037417500047013,None,0,180,180,180,740.6769518000074,,,,,,,742.1629278999753,741.6635960000567,741.6680146000581,741.6680146000581,742.1629278999753,742.1629278999753,742.1562492999947,743.2484331000596,743.2484331000596,743.2484331000596,x,2.037417500047013,None,,,,,,,,PH_en,001,2025-03-09_20h35.36.492,MainFlow,2024.2.4,143.18606168589187,2025-03-09 20h35.47.771847 +0700,
2,31,1,word/worden0311.png,image/True/img31.png,181,181,0,z,1.8396429000422359,None,0,181,181,181,745.2977404000703,,,,,,,746.7839242999908,746.2846827000612,746.2886494999984,746.2886494999984,746.7839242999908,746.7839242999908,746.7769958999706,747.873076000018,747.873076000018,747.873076000018,z,1.8396429000422359,None,,,,,,,,PH_en,001,2025-03-09_20h35.36.492,MainFlow,2024.2.4,143.18606168589187,2025-03-09 20h35.47.771847 +0700,
2,33,0,word/worden0331.png,image/False/imgf33.png,182,182,0,x,1.2629203000105917,None,0,182,182,182,749.7238406999968,,,,,,,751.2132095000707,750.7139272000641,750.7178175000008,750.7178175000008,751.2132095000707,751.2132095000707,751.2064845999703,752.3204903999576,752.3204903999576,752.3204903999576,x,1.2629203000105917,None,,,,,,,,PH_en,001,2025-03-09_20h35.36.492,MainFlow,2024.2.4,143.18606168589187,2025-03-09 20h35.47.771847 +0700,
2,59,1,word/worden0591.png,image/True/img59.png,183,183,0,z,1.7306779999053106,None,0,183,183,183,753.595852300059,,,,,,,755.0817166999914,754.5829180000583,754.5870993999997,754.5870993999997,755.0817166999914,755.0817166999914,755.0754454999696,756.1880242000334,756.1880242000334,756.1880242000334,z,1.7306779999053106,None,,,,,,,,PH_en,001,2025-03-09_20h35.36.492,MainFlow,2024.2.4,143.18606168589187,2025-03-09 20h35.47.771847 +0700,
2,8,1,word/worden0081.png,image/True/img08.png,184,184,0,z,0.9971485999412835,None,0,184,184,184,757.9263325000647,,,,,,,759.4128149000462,758.9133623000234,758.9176712000044,758.9176712000044,759.4128149000462,759.4128149000462,759.4061307000229,760.4922996000387,760.4922996000387,760.4922996000387,z,0.9971485999412835,None,,,,,,,,PH_en,001,2025-03-09_20h35.36.492,MainFlow,2024.2.4,143.18606168589187,2025-03-09 20h35.47.771847 +0700,
2,63,0,word/worden0631.png,image/False/imgf63.png,185,185,0,x,1.0863412000471726,None,0,185,185,185,761.4997242999962,,,,,,,762.9858842999674,762.4863896999741,762.4906094999751,762.4906094999751,762.9858842999674,762.9858842999674,762.9792245000135,764.0896610000636,764.0896610000636,764.0896610000636,x,1.0863412000471726,None,,,,,,,,PH_en,001,2025-03-09_20h35.36.492,MainFlow,2024.2.4,143.18606168589187,2025-03-09 20h35.47.771847 +0700,
2,30,0,word/worden0301.png,image/False/imgf30.png,186,186,0,x,0.8996573999756947,None,0,186,186,186,765.1841956999851,,,,,,,766.6707925000228,766.1719187999843,766.1762829000363,766.1762829000363,766.6707925000228,766.6707925000228,766.6641186999623,767.7584136000369,767.7584136000369,767.7584136000369,x,0.8996573999756947,None,,,,,,,,PH_en,001,2025-03-09_20h35.36.492,MainFlow,2024.2.4,143.18606168589187,2025-03-09 20h35.47.771847 +0700,
2,15,0,word/worden0151.png,image/False/imgf15.png,187,187,0,x,0.8544916000682861,None,0,187,187,187,768.6680280000437,,,,,,,770.1540922999848,769.654130000039,769.658605500008,769.658605500008,770.1540922999848,770.1540922999848,770.1474638000363,771.2477959999815,771.2477959999815,771.2477959999815,x,0.8544916000682861,None,,,,,,,,PH_en,001,2025-03-09_20h35.36.492,MainFlow,2024.2.4,143.18606168589187,2025-03-09 20h35.47.771847 +0700,
2,71,0,word/worden0711.png,image/False/imgf71.png,188,188,0,x,0.829283699975349,None,0,188,188,188,772.1117253999691,,,,,,,773.5980708999559,773.0996760000708,773.10416420002,773.10416420002,773.5980708999559,773.5980708999559,773.5914100999944,774.7095810000319,774.7095810000319,774.7095810000319,x,0.829283699975349,None,,,,,,,,PH_en,001,2025-03-09_20h35.36.492,MainFlow,2024.2.4,143.18606168589187,2025-03-09 20h35.47.771847 +0700,
2,10,0,word/worden0101.png,image/False/imgf10.png,189,189,0,x,0.8028764000628144,None,0,189,189,189,775.5496406999882,,,,,,,777.035553200054,776.5368208000436,776.5408005999634,776.5408005999634,777.035553200054,777.035553200054,777.0288706000429,778.1309461999917,778.1309461999917,778.1309461999917,x,0.8028764000628144,None,,,,,,,,PH_en,001,2025-03-09_20h35.36.492,MainFlow,2024.2.4,143.18606168589187,2025-03-09 20h35.47.771847 +0700,
2,54,0,word/worden0541.png,image/False/imgf54.png,190,190,0,x,0.7671506999759004,None,0,190,190,190,778.9450137000531,,,,,,,780.4309988999739,779.9315220999997,779.9354837000137,779.9354837000137,780.4309988999739,780.4309988999739,780.4243004999589,781.5227950999979,781.5227950999979,781.5227950999979,x,0.7671506999759004,None,,,,,,,,PH_en,001,2025-03-09_20h35.36.492,MainFlow,2024.2.4,143.18606168589187,2025-03-09 20h35.47.771847 +0700,
2,60,0,word/worden0601.png,image/False/imgf60.png,191,191,0,x,0.8876966999378055,None,0,191,191,191,782.2996434000088,,,,,,,783.7856480999617,783.2864209000254,783.2909113999922,783.2909113999922,783.7856480999617,783.7856480999617,783.7789832999697,784.8831101000542,784.8831101000542,784.8831101000542,x,0.8876966999378055,None,,,,,,,,PH_en,001,2025-03-09_20h35.36.492,MainFlow,2024.2.4,143.18606168589187,2025-03-09 20h35.47.771847 +0700,
2,16,0,word/worden0161.png,image/False/imgf16.png,192,192,0,x,0.9653085999889299,None,0,192,192,192,785.7786321999738,,,,,,,787.2644744999707,786.7653435000684,786.7697526999982,786.7697526999982,787.2644744999707,787.2644744999707,787.2576633000281,788.3667598000029,788.3667598000029,788.3667598000029,x,0.9653085999889299,None,,,,,,,,PH_en,001,2025-03-09_20h35.36.492,MainFlow,2024.2.4,143.18606168589187,2025-03-09 20h35.47.771847 +0700,
2,50,1,word/worden0501.png,image/True/img50.png,193,193,0,z,2.0693278999533504,None,0,193,193,193,789.3452064000303,,,,,,,790.831186800031,790.3325130000012,790.3370091000106,790.3370091000106,790.831186800031,790.831186800031,790.824398900033,791.9284714000532,791.9284714000532,791.9284714000532,z,2.0693278999533504,None,,,,,,,,PH_en,001,2025-03-09_20h35.36.492,MainFlow,2024.2.4,143.18606168589187,2025-03-09 20h35.47.771847 +0700,
2,63,1,word/worden0631.png,image/True/img63.png,194,194,0,z,1.1739075999939814,None,0,194,194,194,794.0116897000698,,,,,,,795.4977489999728,794.9987901999848,795.003336600028,795.003336600028,795.4977489999728,795.4977489999728,795.4910064999713,796.5951151000336,796.5951151000336,796.5951151000336,z,1.1739075999939814,None,,,,,,,,PH_en,001,2025-03-09_20h35.36.492,MainFlow,2024.2.4,143.18606168589187,2025-03-09 20h35.47.771847 +0700,
2,24,0,word/worden0241.png,image/False/imgf24.png,195,195,0,x,1.277408300084062,None,0,195,195,195,797.7821809999878,,,,,,,799.2682009000564,798.7689474000363,798.7734914000612,798.7734914000612,799.2682009000564,799.2682009000564,799.2615153000224,800.3580622000154,800.3580622000154,800.3580622000154,x,1.277408300084062,None,,,,,,,,PH_en,001,2025-03-09_20h35.36.492,MainFlow,2024.2.4,143.18606168589187,2025-03-09 20h35.47.771847 +0700,
2,89,0,word/worden0891.png,image/False/imgf89.png,196,196,0,x,0.9830125999869779,None,0,196,196,196,801.649041500059,,,,,,,803.135197399999,802.6353068000171,802.6393250999972,802.6393250999972,803.135197399999,803.135197399999,803.1285440999782,804.2224806000013,804.2224806000013,804.2224806000013,x,0.9830125999869779,None,,,,,,,,PH_en,001,2025-03-09_20h35.36.492,MainFlow,2024.2.4,143.18606168589187,2025-03-09 20h35.47.771847 +0700,
2,6,0,word/worden0061.png,image/False/imgf06.png,197,197,0,x,2.503517900011502,None,0,197,197,197,805.2148479999742,,,,,,,806.7013857000275,806.2029507000698,806.2070715000154,806.2070715000154,806.7013857000275,806.7013857000275,806.6947205000324,807.7928478000686,807.7928478000686,807.7928478000686,x,2.503517900011502,None,,,,,,,,PH_en,001,2025-03-09_20h35.36.492,MainFlow,2024.2.4,143.18606168589187,2025-03-09 20h35.47.771847 +0700,
2,41,0,word/worden0411.png,image/False/imgf41.png,198,198,0,x,0.8555442000506446,None,0,198,198,198,810.3101005000062,,,,,,,811.797367000021,811.2967553000199,811.3006505999947,811.3006505999947,811.7901275999611,811.7901275999611,811.7837460000301,812.8655053999973,812.8655053999973,812.8655053999973,x,0.8555442000506446,None,,,,,,,,PH_en,001,2025-03-09_20h35.36.492,MainFlow,2024.2.4,143.18606168589187,2025-03-09 20h35.47.771847 +0700,
2,79,0,word/worden0791.png,image/False/imgf79.png,199,199,0,x,0.9627296000253409,None,0,199,199,199,813.7326551000588,,,,,,,815.3027539000614,814.7951383000473,814.8786904000444,814.8786904000444,,,815.2965214999858,,816.3208496000152,816.3208496000152,x,0.9627296000253409,None,,,,,,,,PH_en,001,2025-03-09_20h35.36.492,MainFlow,2024.2.4,143.18606168589187,2025-03-09 20h35.47.771847 +0700,
2,70,1,word/worden0701.png,image/True/img70.png,200,200,0,z,1.3310740999877453,None,0,200,200,200,817.2926090999972,,,,,,,818.7789459000342,818.279752500006,818.2839874000056,818.2839874000056,818.7789459000342,818.7789459000342,818.7722894999897,819.8781481999904,819.8781481999904,819.8781481999904,z,1.3310740999877453,None,,,,,,,,PH_en,001,2025-03-09_20h35.36.492,MainFlow,2024.2.4,143.18606168589187,2025-03-09 20h35.47.771847 +0700,
2,31,1,word/worden0311.png,image/True/img31.png,201,201,0,z,0.9743812000378966,None,0,201,201,201,821.2160971000558,,,,,,,822.7020998999942,822.2027836999623,822.2066753000254,822.2066753000254,822.7020998999942,822.7020998999942,822.6954097000416,823.7860662000021,823.7860662000021,823.7860662000021,z,0.9743812000378966,None,,,,,,,,PH_en,001,2025-03-09_20h35.36.492,MainFlow,2024.2.4,143.18606168589187,2025-03-09 20h35.47.771847 +0700,
2,9,1,word/worden0091.png,image/True/img09.png,202,202,0,z,0.9224877000087872,None,0,202,202,202,824.7670380000491,,,,,,,826.2530969000654,825.7537878999719,825.7578738000011,825.7578738000011,826.2530969000654,826.2530969000654,826.2465269999811,827.3138066000538,827.3138066000538,827.3138066000538,z,0.9224877000087872,None,,,,,,,,PH_en,001,2025-03-09_20h35.36.492,MainFlow,2024.2.4,143.18606168589187,2025-03-09 20h35.47.771847 +0700,
2,27,1,word/worden0271.png,image/True/img27.png,203,203,0,z,6.110200600000098,None,0,203,203,203,828.2481748000719,,,,,,,829.7337884999579,829.234106500051,829.2381379000144,829.2381379000144,829.7337884999579,829.7337884999579,829.7271402999759,830.8157225999748,830.8157225999748,830.8157225999748,z,6.110200600000098,None,,,,,,,,PH_en,001,2025-03-09_20h35.36.492,MainFlow,2024.2.4,143.18606168589187,2025-03-09 20h35.47.771847 +0700,
2,75,0,word/worden0751.png,image/False/imgf75.png,204,204,0,x,1.4998224000446498,None,0,204,204,204,836.9378261000384,,,,,,,838.4234897000715,837.9240300999954,837.9279846000718,837.9279846000718,838.4234897000715,838.4234897000715,838.416813799995,839.5142366000218,839.5142366000218,839.5142366000218,x,1.4998224000446498,None,,,,,,,,PH_en,001,2025-03-09_20h35.36.492,MainFlow,2024.2.4,143.18606168589187,2025-03-09 20h35.47.771847 +0700,
2,87,0,word/worden0871.png,image/False/imgf87.png,205,205,0,x,0.9123870999319479,None,0,205,205,205,841.0214297999628,,,,,,,842.5071594000328,842.0076343000401,842.0117417000001,842.0117417000001,842.5071594000328,842.5071594000328,842.5004343000473,843.5933160999557,843.5933160999557,843.5933160999557,x,0.9123870999319479,None,,,,,,,,PH_en,001,2025-03-09_20h35.36.492,MainFlow,2024.2.4,143.18606168589187,2025-03-09 20h35.47.771847 +0700,
2,8,0,word/worden0081.png,image/False/imgf08.png,206,206,0,x,0.913076699944213,None,0,206,206,206,844.5169971999712,,,,,,,846.0029135000659,845.5036289000418,845.507554700016,845.507554700016,846.0029135000659,846.0029135000659,845.9962310000556,847.0834359000437,847.0834359000437,847.0834359000437,x,0.913076699944213,None,,,,,,,,PH_en,001,2025-03-09_20h35.36.492,MainFlow,2024.2.4,143.18606168589187,2025-03-09 20h35.47.771847 +0700,
2,24,1,word/worden0241.png,image/True/img24.png,207,207,0,x,1.6202057000482455,None,0,207,207,207,848.0054532999638,,,,,,,849.4913657000288,848.9920632999856,848.9964965999825,848.9964965999825,849.4913657000288,849.4913657000288,849.4847227999708,850.5615186999785,850.5615186999785,850.5615186999785,x,1.6202057000482455,None,,,,,,,,PH_en,001,2025-03-09_20h35.36.492,MainFlow,2024.2.4,143.18606168589187,2025-03-09 20h35.47.771847 +0700,
2,14,1,word/worden0141.png,image/True/img14.png,208,208,0,z,1.5450179000617936,None,0,208,208,208,852.1908477999968,,,,,,,853.6773107000627,853.1784822000191,853.1824785000645,853.1824785000645,853.6773107000627,853.6773107000627,853.6706102000317,854.7735323000234,854.7735323000234,854.7735323000234,z,1.5450179000617936,None,,,,,,,,PH_en,001,2025-03-09_20h35.36.492,MainFlow,2024.2.4,143.18606168589187,2025-03-09 20h35.47.771847 +0700,
2,87,1,word/worden0871.png,image/True/img87.png,209,209,0,z,0.9852879999671131,None,0,209,209,209,856.3297423999757,,,,,,,857.8154985000147,857.315921899979,857.3203943000408,857.3203943000408,857.8154985000147,857.8154985000147,857.8087775000604,858.9188150999835,858.9188150999835,858.9188150999835,z,0.9852879999671131,None,,,,,,,,PH_en,001,2025-03-09_20h35.36.492,MainFlow,2024.2.4,143.18606168589187,2025-03-09 20h35.47.771847 +0700,
2,42,0,word/worden0421.png,image/False/imgf42.png,210,210,0,x,0.9830160998972133,None,0,210,210,210,859.9101325999945,,,,,,,861.3963010000298,860.8968198000221,860.9006999999983,860.9006999999983,861.3963010000298,861.3963010000298,861.3895927000558,862.5027520000003,862.5027520000003,862.5027520000003,x,0.9830160998972133,None,,,,,,,,PH_en,001,2025-03-09_20h35.36.492,MainFlow,2024.2.4,143.18606168589187,2025-03-09 20h35.47.771847 +0700,
2,48,0,word/worden0481.png,image/False/imgf48.png,211,211,0,x,1.1385892999824136,None,0,211,211,211,863.4970797999995,,,,,,,864.983258399996,864.4836688999785,864.4880209000548,864.4880209000548,864.983258399996,864.983258399996,864.9766046999721,866.0926041000057,866.0926041000057,866.0926041000057,x,1.1385892999824136,None,,,,,,,,PH_en,001,2025-03-09_20h35.36.492,MainFlow,2024.2.4,143.18606168589187,2025-03-09 20h35.47.771847 +0700,
2,56,0,word/worden0561.png,image/False/imgf56.png,212,212,0,x,1.3523000000277534,None,0,212,212,212,867.2380474000238,,,,,,,868.7234906000085,868.2241858000634,868.2284693999682,868.2284693999682,868.7234906000085,868.7234906000085,868.7173480000347,869.8398845000193,869.8398845000193,869.8398845000193,x,1.3523000000277534,None,,,,,,,,PH_en,001,2025-03-09_20h35.36.492,MainFlow,2024.2.4,143.18606168589187,2025-03-09 20h35.47.771847 +0700,
2,18,0,word/worden0181.png,image/False/imgf18.png,213,213,0,x,2.358377099968493,None,0,213,213,213,871.2046106000198,,,,,,,872.6946300000418,872.195362700033,872.1999381000642,872.1999381000642,872.6946300000418,872.6946300000418,872.6879218000686,873.7853350000223,873.7853350000223,873.7853350000223,x,2.358377099968493,None,,,,,,,,PH_en,001,2025-03-09_20h35.36.492,MainFlow,2024.2.4,143.18606168589187,2025-03-09 20h35.47.771847 +0700,
2,18,0,word/worden0181.png,image/False/imgf18.png,214,214,0,x,1.7777793999994174,None,0,214,214,214,876.1535960000474,,,,,,,877.6405007999856,877.1410116000334,877.144941000035,877.144941000035,877.6405007999856,877.6405007999856,877.6340550000314,878.7366068999982,878.7366068999982,878.7366068999982,x,1.7777793999994174,None,,,,,,,,PH_en,001,2025-03-09_20h35.36.492,MainFlow,2024.2.4,143.18606168589187,2025-03-09 20h35.47.771847 +0700,
2,9,0,word/worden0091.png,image/False/imgf09.png,215,215,0,x,5.097818200010806,None,0,215,215,215,880.5260838000104,,,,,,,882.012565699988,881.5128938000416,881.5169645000715,881.5169645000715,882.012565699988,882.012565699988,882.0059270999627,883.0842813999625,883.0842813999625,883.0842813999625,x,5.097818200010806,None,,,,,,,,PH_en,001,2025-03-09_20h35.36.492,MainFlow,2024.2.4,143.18606168589187,2025-03-09 20h35.47.771847 +0700,
2,55,0,word/worden0551.png,image/False/imgf55.png,216,216,0,z,0.8376278999494389,None,0,216,216,216,888.1927383999573,,,,,,,889.678475099965,889.1793728000484,889.1831220999593,889.1831220999593,889.678475099965,889.678475099965,889.6718578999862,890.7702739000088,890.7702739000088,890.7702739000088,z,0.8376278999494389,None,,,,,,,,PH_en,001,2025-03-09_20h35.36.492,MainFlow,2024.2.4,143.18606168589187,2025-03-09 20h35.47.771847 +0700,
2,17,0,word/worden0171.png,image/False/imgf17.png,217,217,0,z,1.0625839000567794,None,0,217,217,217,891.6163570999634,,,,,,,893.1028243000619,892.6033586000558,892.6075883000158,892.6075883000158,893.1028243000619,893.1028243000619,893.0961767999688,894.2065133999567,894.2065133999567,894.2065133999567,z,1.0625839000567794,None,,,,,,,,PH_en,001,2025-03-09_20h35.36.492,MainFlow,2024.2.4,143.18606168589187,2025-03-09 20h35.47.771847 +0700,
2,50,1,word/worden0501.png,image/True/img50.png,218,218,0,z,1.2144126000348479,None,0,218,218,218,895.2809537999565,,,,,,,896.766871000058,896.2680694999872,896.2722524000565,896.2722524000565,896.766871000058,896.766871000058,896.7602544999681,897.8654180000303,897.8654180000303,897.8654180000303,z,1.2144126000348479,None,,,,,,,,PH_en,001,2025-03-09_20h35.36.492,MainFlow,2024.2.4,143.18606168589187,2025-03-09 20h35.47.771847 +0700,
2,20,0,word/worden0201.png,image/False/imgf20.png,219,219,0,x,0.9800158001016825,None,0,219,219,219,899.0876549000386,,,,,,,900.5734704000643,900.0741681000218,900.0786148000043,900.0786148000043,900.5734704000643,900.5734704000643,900.5669955000049,901.691218300024,901.691218300024,901.691218300024,x,0.9800158001016825,None,,,,,,,,PH_en,001,2025-03-09_20h35.36.492,MainFlow,2024.2.4,143.18606168589187,2025-03-09 20h35.47.771847 +0700,
2,36,0,word/worden0361.png,image/False/imgf36.png,220,220,0,x,0.9635490999789909,None,0,220,220,220,902.6849569999613,,,,,,,904.1709587000078,903.6717958999798,903.6760722000618,903.6760722000618,904.1709587000078,904.1709587000078,904.1643068999983,905.2632709000027,905.2632709000027,905.2632709000027,x,0.9635490999789909,None,,,,,,,,PH_en,001,2025-03-09_20h35.36.492,MainFlow,2024.2.4,143.18606168589187,2025-03-09 20h35.47.771847 +0700,
2,7,0,word/worden0071.png,image/False/imgf07.png,221,221,0,x,0.8583442000672221,None,0,221,221,221,906.2339876999613,,,,,,,907.7199591000099,907.2207535000052,907.2246413000394,907.2246413000394,907.7199591000099,907.7199591000099,907.7137352999998,908.8105120999971,908.8105120999971,908.8105120999971,x,0.8583442000672221,None,,,,,,,,PH_en,001,2025-03-09_20h35.36.492,MainFlow,2024.2.4,143.18606168589187,2025-03-09 20h35.47.771847 +0700,
2,7,1,word/worden0071.png,image/True/img07.png,222,222,0,z,1.6690566999604926,None,0,222,222,222,909.6778473999584,,,,,,,911.1644423999824,910.665243800031,910.6691303000553,910.6691303000553,911.1644423999824,911.1644423999824,911.1577193000121,912.2651056000032,912.2651056000032,912.2651056000032,z,1.6690566999604926,None,,,,,,,,PH_en,001,2025-03-09_20h35.36.492,MainFlow,2024.2.4,143.18606168589187,2025-03-09 20h35.47.771847 +0700,
2,70,0,word/worden0701.png,image/False/imgf70.png,223,223,0,x,0.7559609999880195,None,0,223,223,223,913.9455635000486,,,,,,,915.4317430000519,914.9336132999742,914.937885100022,914.937885100022,915.4317430000519,915.4317430000519,915.4250473000575,916.5185143999988,916.5185143999988,916.5185143999988,x,0.7559609999880195,None,,,,,,,,PH_en,001,2025-03-09_20h35.36.492,MainFlow,2024.2.4,143.18606168589187,2025-03-09 20h35.47.771847 +0700,
2,68,0,word/worden0681.png,image/False/imgf68.png,224,224,0,x,1.2331154000712559,None,0,224,224,224,917.2821200999897,,,,,,,918.7680236999877,918.2690564000513,918.2728020000504,918.2728020000504,918.7680236999877,918.7680236999877,918.7616013999796,919.8524581000675,919.8524581000675,919.8524581000675,x,1.2331154000712559,None,,,,,,,,PH_en,001,2025-03-09_20h35.36.492,MainFlow,2024.2.4,143.18606168589187,2025-03-09 20h35.47.771847 +0700,
