lang,wordid,truestate,worddir,imgdir,thisN,thisTrialN,thisRepN,key_resp.keys,key_resp.rt,key_resp.duration,trials.thisRepN,trials.thisTrialN,trials.thisN,trials.thisIndex,thisRow.t,notes,tutorial.started,tutorial.stopped,key_instruct.keys,key_instruct.rt,key_instruct.duration,plusblank.started,wordshow.started,image.started,plsuer.started,image.stopped,plsuer.stopped,wordshow.stopped,plusblank.stopped,imageword.started,key_resp.started,trials.key_resp.keys,trials.key_resp.rt,trials.key_resp.duration,ending.started,text_3.started,ending_key.started,ending.stopped,ending_key.keys,ending_key.rt,ending_key.duration,participant,session,date,expName,psychopyVersion,frameRate,expStart,
,,,,,,,,,,,,,,,,,0.003475800040178001,9.04163700004574,space,8.998325000051409,None,,,,,,,,,,,,,,,,,,,,,PM_en,001,2025-03-07_11h58.25.351,MainFlow,2024.2.4,129.8893603076909,2025-03-07 11h58.36.239689 +0700,
2,87,0,word/worden0871.png,image/False/imgf87.png,0,0,0,x,0.5202884000027552,None,0,0,0,0,9.097722999984398,,,,,,,10.544175400049426,10.046275699976832,10.051642499980517,10.051642499980517,10.544175400049426,10.544175400049426,10.537647900055163,11.740200500003994,11.740200500003994,11.740200500003994,x,0.5202884000027552,None,,,,,,,,PM_en,001,2025-03-07_11h58.25.351,MainFlow,2024.2.4,129.8893603076909,2025-03-07 11h58.36.239689 +0700,
2,93,0,word/worden0931.png,image/False/imgf93.png,1,1,0,x,0.5764892000006512,None,0,1,1,1,12.267055100062862,,,,,,,13.76045439997688,13.260391399962828,13.265783800045028,13.265783800045028,13.76045439997688,13.76045439997688,13.753889400046319,14.895759399980307,14.895759399980307,14.895759399980307,x,0.5764892000006512,None,,,,,,,,PM_en,001,2025-03-07_11h58.25.351,MainFlow,2024.2.4,129.8893603076909,2025-03-07 11h58.36.239689 +0700,
2,23,0,word/worden0231.png,image/False/imgf23.png,2,2,0,x,0.3780963000608608,None,0,2,2,2,15.484548400039785,,,,,,,16.97262320003938,16.473831700044684,16.478340700035915,16.478340700035915,16.97262320003938,16.97262320003938,16.96601550001651,18.127309400006197,18.127309400006197,18.127309400006197,x,0.3780963000608608,None,,,,,,,,PM_en,001,2025-03-07_11h58.25.351,MainFlow,2024.2.4,129.8893603076909,2025-03-07 11h58.36.239689 +0700,
2,10,1,word/worden0101.png,image/True/img10.png,3,3,0,z,0.7079073999775574,None,0,3,3,3,18.51620199996978,,,,,,,20.005590399960056,19.507392600062303,19.511879400000907,19.511879400000907,20.005590399960056,20.005590399960056,19.999123799963854,21.13998520001769,21.13998520001769,21.13998520001769,z,0.7079073999775574,None,,,,,,,,PM_en,001,2025-03-07_11h58.25.351,MainFlow,2024.2.4,129.8893603076909,2025-03-07 11h58.36.239689 +0700,
2,50,0,word/worden0501.png,image/False/imgf50.png,4,4,0,x,0.4680718000745401,None,0,4,4,4,21.8546935999766,,,,,,,23.34803190000821,22.848571000038646,22.85390720004216,22.85390720004216,23.34803190000821,23.34803190000821,23.341519000008702,24.50670769996941,24.50670769996941,24.50670769996941,x,0.4680718000745401,None,,,,,,,,PM_en,001,2025-03-07_11h58.25.351,MainFlow,2024.2.4,129.8893603076909,2025-03-07 11h58.36.239689 +0700,
2,33,1,word/worden0331.png,image/True/img33.png,5,5,0,z,0.44291149999480695,None,0,5,5,5,24.983158700051717,,,,,,,26.472852500039153,25.974328899988905,25.979664799990132,25.979664799990132,26.472852500039153,26.472852500039153,26.466503600007854,27.600083000026643,27.600083000026643,27.600083000026643,z,0.44291149999480695,None,,,,,,,,PM_en,001,2025-03-07_11h58.25.351,MainFlow,2024.2.4,129.8893603076909,2025-03-07 11h58.36.239689 +0700,
2,95,0,word/worden0951.png,image/False/imgf95.png,6,6,0,x,0.49054610007442534,None,0,6,6,6,28.05467600002885,,,,,,,29.544069200055674,29.04549930000212,29.050241600023583,29.050241600023583,29.544069200055674,29.544069200055674,29.53765920002479,30.689481899957173,30.689481899957173,30.689481899957173,x,0.49054610007442534,None,,,,,,,,PM_en,001,2025-03-07_11h58.25.351,MainFlow,2024.2.4,129.8893603076909,2025-03-07 11h58.36.239689 +0700,
2,7,0,word/worden0071.png,image/False/imgf07.png,7,7,0,x,0.5188472999725491,None,0,7,7,7,31.18868460005615,,,,,,,32.67857049999293,32.17926959996112,32.18449520005379,32.18449520005379,32.67857049999293,32.67857049999293,32.672246400034055,33.80880470003467,33.80880470003467,33.80880470003467,x,0.5188472999725491,None,,,,,,,,PM_en,001,2025-03-07_11h58.25.351,MainFlow,2024.2.4,129.8893603076909,2025-03-07 11h58.36.239689 +0700,
2,28,1,word/worden0281.png,image/True/img28.png,8,8,0,z,0.4096473000245169,None,0,8,8,8,34.33643210004084,,,,,,,35.82540790003259,35.32655190001242,35.331386400037445,35.331386400037445,35.82540790003259,35.82540790003259,35.818851500051096,36.96516669995617,36.96516669995617,36.96516669995617,z,0.4096473000245169,None,,,,,,,,PM_en,001,2025-03-07_11h58.25.351,MainFlow,2024.2.4,129.8893603076909,2025-03-07 11h58.36.239689 +0700,
2,38,1,word/worden0381.png,image/True/img38.png,9,9,0,z,0.29814480000641197,None,0,9,9,9,37.38354279997293,,,,,,,38.87333560001571,38.37450519995764,38.37927559996024,38.37927559996024,38.87333560001571,38.87333560001571,38.86651439999696,39.999757800018415,39.999757800018415,39.999757800018415,z,0.29814480000641197,None,,,,,,,,PM_en,001,2025-03-07_11h58.25.351,MainFlow,2024.2.4,129.8893603076909,2025-03-07 11h58.36.239689 +0700,
2,33,0,word/worden0331.png,image/False/imgf33.png,10,10,0,x,0.3353861999930814,None,0,10,10,10,40.30885480006691,,,,,,,41.79699000006076,41.29866159998346,41.303189900005236,41.303189900005236,41.79699000006076,41.79699000006076,41.79033160000108,42.93451399996411,42.93451399996411,42.93451399996411,x,0.3353861999930814,None,,,,,,,,PM_en,001,2025-03-07_11h58.25.351,MainFlow,2024.2.4,129.8893603076909,2025-03-07 11h58.36.239689 +0700,
2,76,1,word/worden0761.png,image/True/img76.png,11,11,0,z,0.4370088999858126,None,0,11,11,11,43.27812170004472,,,,,,,44.768694399972446,44.26972870004829,44.27453699999023,44.27453699999023,44.768694399972446,44.768694399972446,44.762323100003414,45.91471330006607,45.91471330006607,45.91471330006607,z,0.4370088999858126,None,,,,,,,,PM_en,001,2025-03-07_11h58.25.351,MainFlow,2024.2.4,129.8893603076909,2025-03-07 11h58.36.239689 +0700,
2,75,0,word/worden0751.png,image/False/imgf75.png,12,12,0,x,0.3777671999996528,None,0,12,12,12,46.364468200015835,,,,,,,47.853511700057425,47.35445189999882,47.359537100070156,47.359537100070156,47.853511700057425,47.853511700057425,47.84697569999844,48.9720312000718,48.9720312000718,48.9720312000718,x,0.3777671999996528,None,,,,,,,,PM_en,001,2025-03-07_11h58.25.351,MainFlow,2024.2.4,129.8893603076909,2025-03-07 11h58.36.239689 +0700,
2,7,1,word/worden0071.png,image/True/img07.png,13,13,0,z,0.5395640999777243,None,0,13,13,13,49.36106500006281,,,,,,,50.848588500055484,50.35009149997495,50.35468800005037,50.35468800005037,50.848588500055484,50.848588500055484,50.842007100000046,51.96407470002305,51.96407470002305,51.96407470002305,z,0.5395640999777243,None,,,,,,,,PM_en,001,2025-03-07_11h58.25.351,MainFlow,2024.2.4,129.8893603076909,2025-03-07 11h58.36.239689 +0700,
2,51,1,word/worden0511.png,image/True/img51.png,14,14,0,z,0.3214927000226453,None,0,14,14,14,52.51681890001055,,,,,,,54.0037029000232,53.504732500063255,53.510277300025336,53.510277300025336,54.0037029000232,54.0037029000232,53.99718990002293,55.12420600000769,55.12420600000769,55.12420600000769,z,0.3214927000226453,None,,,,,,,,PM_en,001,2025-03-07_11h58.25.351,MainFlow,2024.2.4,129.8893603076909,2025-03-07 11h58.36.239689 +0700,
2,59,0,word/worden0591.png,image/False/imgf59.png,15,15,0,z,0.29743210005108267,None,0,15,15,15,55.45641109999269,,,,,,,56.945590000017546,56.44665359996725,56.45177409995813,56.45177409995813,56.945590000017546,56.945590000017546,56.9390027000336,58.0416137999855,58.0416137999855,58.0416137999855,z,0.29743210005108267,None,,,,,,,,PM_en,001,2025-03-07_11h58.25.351,MainFlow,2024.2.4,129.8893603076909,2025-03-07 11h58.36.239689 +0700,
2,54,0,word/worden0541.png,image/False/imgf54.png,16,16,0,x,0.4893748000031337,None,0,16,16,16,58.34798059996683,,,,,,,59.83630530000664,59.33759100001771,59.34212970000226,59.34212970000226,59.83630530000664,59.83630530000664,59.82989150006324,60.95349139999598,60.95349139999598,60.95349139999598,x,0.4893748000031337,None,,,,,,,,PM_en,001,2025-03-07_11h58.25.351,MainFlow,2024.2.4,129.8893603076909,2025-03-07 11h58.36.239689 +0700,
2,6,1,word/worden0061.png,image/True/img06.png,17,17,0,z,1.0674183999653906,None,0,17,17,17,61.45573729998432,,,,,,,62.94573969999328,62.447280499967746,62.45210570003837,62.45210570003837,62.94573969999328,62.94573969999328,62.93915059999563,64.09256290004123,64.09256290004123,64.09256290004123,z,1.0674183999653906,None,,,,,,,,PM_en,001,2025-03-07_11h58.25.351,MainFlow,2024.2.4,129.8893603076909,2025-03-07 11h58.36.239689 +0700,
2,41,1,word/worden0411.png,image/True/img41.png,18,18,0,z,0.39448870008345693,None,0,18,18,18,65.16656449995935,,,,,,,66.65993960003834,66.15904020005837,66.16552280005999,66.16552280005999,66.65993960003834,66.65993960003834,66.65363209997304,67.81821020005737,67.81821020005737,67.81821020005737,z,0.39448870008345693,None,,,,,,,,PM_en,001,2025-03-07_11h58.25.351,MainFlow,2024.2.4,129.8893603076909,2025-03-07 11h58.36.239689 +0700,
2,42,0,word/worden0421.png,image/False/imgf42.png,19,19,0,x,0.5325566999381408,None,0,19,19,19,68.22532349999528,,,,,,,69.71446030004881,69.21584910003003,69.22069119999651,69.22069119999651,69.71446030004881,69.71446030004881,69.70793659996707,70.8636858999962,70.8636858999962,70.8636858999962,x,0.5325566999381408,None,,,,,,,,PM_en,001,2025-03-07_11h58.25.351,MainFlow,2024.2.4,129.8893603076909,2025-03-07 11h58.36.239689 +0700,
2,64,0,word/worden0641.png,image/False/imgf64.png,20,20,0,x,0.5775045999325812,None,0,20,20,20,71.40809639997315,,,,,,,72.89840239996556,72.3992825000314,72.4039287000196,72.4039287000196,72.89840239996556,72.89840239996556,72.89124210004229,73.98240540002007,73.98240540002007,73.98240540002007,x,0.5775045999325812,None,,,,,,,,PM_en,001,2025-03-07_11h58.25.351,MainFlow,2024.2.4,129.8893603076909,2025-03-07 11h58.36.239689 +0700,
2,96,1,word/worden0961.png,image/True/img96.png,21,21,0,z,0.4296483000507578,None,0,21,21,21,74.56674070004374,,,,,,,76.05735080002341,75.55970360001083,75.56454970000777,75.56454970000777,76.05735080002341,76.05735080002341,76.05101369996555,77.2021646000212,77.2021646000212,77.2021646000212,z,0.4296483000507578,None,,,,,,,,PM_en,001,2025-03-07_11h58.25.351,MainFlow,2024.2.4,129.8893603076909,2025-03-07 11h58.36.239689 +0700,
2,76,0,word/worden0761.png,image/False/imgf76.png,22,22,0,x,0.5197282999288291,None,0,22,22,22,77.6387764000101,,,,,,,79.12774829997215,78.62883910001256,78.63378769997507,78.63378769997507,79.12774829997215,79.12774829997215,79.12211999995634,80.3041077000089,80.3041077000089,80.3041077000089,x,0.5197282999288291,None,,,,,,,,PM_en,001,2025-03-07_11h58.25.351,MainFlow,2024.2.4,129.8893603076909,2025-03-07 11h58.36.239689 +0700,
2,17,1,word/worden0171.png,image/True/img17.png,23,23,0,z,0.4344537000870332,None,0,23,23,23,80.831647300045,,,,,,,82.32193780003581,81.82413409999572,81.82966859999578,81.82966859999578,82.32193780003581,82.32193780003581,82.31612940004561,83.45184630004223,83.45184630004223,83.45184630004223,z,0.4344537000870332,None,,,,,,,,PM_en,001,2025-03-07_11h58.25.351,MainFlow,2024.2.4,129.8893603076909,2025-03-07 11h58.36.239689 +0700,
2,6,1,word/worden0061.png,image/True/img06.png,24,24,0,z,0.40320729999803007,None,0,24,24,24,83.89685909997206,,,,,,,85.38332340004854,84.884736899985,84.88948650006205,84.88948650006205,85.38332340004854,85.38332340004854,85.37677780003287,86.49592939997092,86.49592939997092,86.49592939997092,z,0.40320729999803007,None,,,,,,,,PM_en,001,2025-03-07_11h58.25.351,MainFlow,2024.2.4,129.8893603076909,2025-03-07 11h58.36.239689 +0700,
2,88,1,word/worden0881.png,image/True/img88.png,25,25,0,z,0.47581560001708567,None,0,25,25,25,86.91219289996661,,,,,,,88.4022712999722,87.90325790003408,87.90890849998686,87.90890849998686,88.4022712999722,88.4022712999722,88.39589960000012,89.57005079998635,89.57005079998635,89.57005079998635,z,0.47581560001708567,None,,,,,,,,PM_en,001,2025-03-07_11h58.25.351,MainFlow,2024.2.4,129.8893603076909,2025-03-07 11h58.36.239689 +0700,
2,44,1,word/worden0441.png,image/True/img44.png,26,26,0,z,0.50382039998658,None,0,26,26,26,90.05548039998394,,,,,,,91.54549719998613,91.04824300005566,91.05362350004725,91.05362350004725,91.54549719998613,91.54549719998613,91.53894730005413,92.68416509998497,92.68416509998497,92.68416509998497,z,0.50382039998658,None,,,,,,,,PM_en,001,2025-03-07_11h58.25.351,MainFlow,2024.2.4,129.8893603076909,2025-03-07 11h58.36.239689 +0700,
2,27,0,word/worden0271.png,image/False/imgf27.png,27,27,0,x,0.7110701000783592,None,0,27,27,27,93.20057430001907,,,,,,,94.68790690007154,94.18925489997491,94.19410019996576,94.19410019996576,94.68790690007154,94.68790690007154,94.68145050003659,95.79973640001845,95.79973640001845,95.79973640001845,x,0.7110701000783592,None,,,,,,,,PM_en,001,2025-03-07_11h58.25.351,MainFlow,2024.2.4,129.8893603076909,2025-03-07 11h58.36.239689 +0700,
2,14,0,word/worden0141.png,image/False/imgf14.png,28,28,0,x,0.5631575000006706,None,0,28,28,28,96.52162949997,,,,,,,98.016891199979,97.51970399997663,97.52478740003426,97.52478740003426,98.016891199979,98.016891199979,98.01045010006055,99.16417899995577,99.16417899995577,99.16417899995577,x,0.5631575000006706,None,,,,,,,,PM_en,001,2025-03-07_11h58.25.351,MainFlow,2024.2.4,129.8893603076909,2025-03-07 11h58.36.239689 +0700,
2,40,0,word/worden0401.png,image/False/imgf40.png,29,29,0,x,0.5884474000195041,None,0,29,29,29,99.73803700006101,,,,,,,101.22796579997521,100.72929339995608,100.73415579996072,100.73415579996072,101.22796579997521,101.22796579997521,101.22142329998314,102.34721989999525,102.34721989999525,102.34721989999525,x,0.5884474000195041,None,,,,,,,,PM_en,001,2025-03-07_11h58.25.351,MainFlow,2024.2.4,129.8893603076909,2025-03-07 11h58.36.239689 +0700,
2,1,0,word/worden0011.png,image/False/imgf01.png,30,30,0,x,0.6098223000299186,None,0,30,30,30,102.9438220000593,,,,,,,104.43243889999576,103.93369089998305,103.9385524999816,103.9385524999816,104.43243889999576,104.43243889999576,104.4256800999865,105.53304160002153,105.53304160002153,105.53304160002153,x,0.6098223000299186,None,,,,,,,,PM_en,001,2025-03-07_11h58.25.351,MainFlow,2024.2.4,129.8893603076909,2025-03-07 11h58.36.239689 +0700,
2,3,0,word/worden0031.png,image/False/imgf03.png,31,31,0,x,0.5284219000022858,None,0,31,31,31,106.150322600035,,,,,,,107.63818939996418,107.13984379998874,107.14426129998174,107.14426129998174,107.63818939996418,107.63818939996418,107.63178269995842,108.81225840002298,108.81225840002298,108.81225840002298,x,0.5284219000022858,None,,,,,,,,PM_en,001,2025-03-07_11h58.25.351,MainFlow,2024.2.4,129.8893603076909,2025-03-07 11h58.36.239689 +0700,
2,57,1,word/worden0571.png,image/True/img57.png,32,32,0,z,0.362043600063771,None,0,32,32,32,109.35351739998441,,,,,,,110.84356329997536,110.34553739998955,110.35066620004363,110.35066620004363,110.84356329997536,110.84356329997536,110.8370780000696,112.00068399996962,112.00068399996962,112.00068399996962,z,0.362043600063771,None,,,,,,,,PM_en,001,2025-03-07_11h58.25.351,MainFlow,2024.2.4,129.8893603076909,2025-03-07 11h58.36.239689 +0700,
2,88,0,word/worden0881.png,image/False/imgf88.png,33,33,0,x,0.47295159997884184,None,0,33,33,33,112.37410759995691,,,,,,,113.8631224000128,113.3639974000398,113.36927919997834,113.36927919997834,113.8631224000128,113.8631224000128,113.85699949995615,115.0084517999785,115.0084517999785,115.0084517999785,x,0.47295159997884184,None,,,,,,,,PM_en,001,2025-03-07_11h58.25.351,MainFlow,2024.2.4,129.8893603076909,2025-03-07 11h58.36.239689 +0700,
2,52,0,word/worden0521.png,image/False/imgf52.png,34,34,0,x,0.45666190003976226,None,0,34,34,34,115.49375180003699,,,,,,,116.98220900003798,116.483406299958,116.48813720000908,116.48813720000908,116.98220900003798,116.98220900003798,116.97567379998509,118.14631119999103,118.14631119999103,118.14631119999103,x,0.45666190003976226,None,,,,,,,,PM_en,001,2025-03-07_11h58.25.351,MainFlow,2024.2.4,129.8893603076909,2025-03-07 11h58.36.239689 +0700,
2,50,0,word/worden0501.png,image/False/imgf50.png,35,35,0,x,0.4573206000495702,None,0,35,35,35,118.61119480000343,,,,,,,120.1070682000136,119.60974220000207,119.61481579998508,119.61481579998508,120.1070682000136,120.1070682000136,120.10052950005047,121.32768820005003,121.32768820005003,121.32768820005003,x,0.4573206000495702,None,,,,,,,,PM_en,001,2025-03-07_11h58.25.351,MainFlow,2024.2.4,129.8893603076909,2025-03-07 11h58.36.239689 +0700,
2,78,1,word/worden0781.png,image/True/img78.png,36,36,0,z,0.28268990002106875,None,0,36,36,36,121.79185819998384,,,,,,,123.28232230001595,122.78371760004666,122.78839850006625,122.78839850006625,123.28232230001595,123.28232230001595,123.27588279999327,124.46016969997436,124.46016969997436,124.46016969997436,z,0.28268990002106875,None,,,,,,,,PM_en,001,2025-03-07_11h58.25.351,MainFlow,2024.2.4,129.8893603076909,2025-03-07 11h58.36.239689 +0700,
2,61,0,word/worden0611.png,image/False/imgf61.png,37,37,0,x,0.5855107000097632,None,0,37,37,37,124.75148149998859,,,,,,,126.24163699999917,125.74400750000495,125.74916140001733,125.74916140001733,126.24163699999917,126.24163699999917,126.2352508000331,127.38000840006862,127.38000840006862,127.38000840006862,x,0.5855107000097632,None,,,,,,,,PM_en,001,2025-03-07_11h58.25.351,MainFlow,2024.2.4,129.8893603076909,2025-03-07 11h58.36.239689 +0700,
2,36,0,word/worden0361.png,image/False/imgf36.png,38,38,0,x,0.5913818000117317,None,0,38,38,38,127.97289490001276,,,,,,,129.46110009995755,128.96246459998656,128.9670318000717,128.9670318000717,129.46110009995755,129.46110009995755,129.45450860005803,130.5858409999637,130.5858409999637,130.5858409999637,x,0.5913818000117317,None,,,,,,,,PM_en,001,2025-03-07_11h58.25.351,MainFlow,2024.2.4,129.8893603076909,2025-03-07 11h58.36.239689 +0700,
2,10,1,word/worden0101.png,image/True/img10.png,39,39,0,z,0.508498499984853,None,0,39,39,39,131.18824429996312,,,,,,,132.67810240003746,132.17882659996394,132.18381179997232,132.18381179997232,132.67810240003746,132.67810240003746,132.67165629996452,133.8268611000385,133.8268611000385,133.8268611000385,z,0.508498499984853,None,,,,,,,,PM_en,001,2025-03-07_11h58.25.351,MainFlow,2024.2.4,129.8893603076909,2025-03-07 11h58.36.239689 +0700,
2,75,1,word/worden0751.png,image/True/img75.png,40,40,0,z,0.7316943999612704,None,0,40,40,40,134.34346810006537,,,,,,,135.83187800005544,135.33307459997013,135.33786029997282,135.33786029997282,135.83187800005544,135.83187800005544,135.82545770006254,136.9808415999869,136.9808415999869,136.9808415999869,z,0.7316943999612704,None,,,,,,,,PM_en,001,2025-03-07_11h58.25.351,MainFlow,2024.2.4,129.8893603076909,2025-03-07 11h58.36.239689 +0700,
2,1,1,word/worden0011.png,image/True/img01.png,41,41,0,z,0.44474789989180863,None,0,41,41,41,137.7196548000211,,,,,,,139.2084522000514,138.7086746999994,138.71351859997958,138.71351859997958,139.2084522000514,139.2084522000514,139.20186999998987,140.36057610006537,140.36057610006537,140.36057610006537,z,0.44474789989180863,None,,,,,,,,PM_en,001,2025-03-07_11h58.25.351,MainFlow,2024.2.4,129.8893603076909,2025-03-07 11h58.36.239689 +0700,
2,37,1,word/worden0371.png,image/True/img37.png,42,42,0,z,0.2846215999452397,None,0,42,42,42,140.81889710004907,,,,,,,142.30928879999556,141.81025780003984,141.81497669999953,141.81497669999953,142.30928879999556,142.30928879999556,142.3022485000547,143.47795900003985,143.47795900003985,143.47795900003985,z,0.2846215999452397,None,,,,,,,,PM_en,001,2025-03-07_11h58.25.351,MainFlow,2024.2.4,129.8893603076909,2025-03-07 11h58.36.239689 +0700,
2,66,0,word/worden0661.png,image/False/imgf66.png,43,43,0,x,0.5364158999873325,None,0,43,43,43,143.77370949997567,,,,,,,145.26307880005334,144.76429940003436,144.76884939998854,144.76884939998854,145.26307880005334,145.26307880005334,145.25663119996898,146.41847480006982,146.41847480006982,146.41847480006982,x,0.5364158999873325,None,,,,,,,,PM_en,001,2025-03-07_11h58.25.351,MainFlow,2024.2.4,129.8893603076909,2025-03-07 11h58.36.239689 +0700,
2,55,1,word/worden0551.png,image/True/img55.png,44,44,0,z,0.4430741999531165,None,0,44,44,44,146.96744739997666,,,,,,,148.4573103999719,147.95854400005192,147.96354969998356,147.96354969998356,148.4573103999719,148.4573103999719,148.4508287999779,149.60916600003839,149.60916600003839,149.60916600003839,z,0.4430741999531165,None,,,,,,,,PM_en,001,2025-03-07_11h58.25.351,MainFlow,2024.2.4,129.8893603076909,2025-03-07 11h58.36.239689 +0700,
2,70,0,word/worden0701.png,image/False/imgf70.png,45,45,0,x,0.5925818999530748,None,0,45,45,45,150.06050999998115,,,,,,,151.55030410003383,151.05172180000227,151.05658079998102,151.05658079998102,151.55030410003383,151.55030410003383,151.54381940001622,152.66182330006268,152.66182330006268,152.66182330006268,x,0.5925818999530748,None,,,,,,,,PM_en,001,2025-03-07_11h58.25.351,MainFlow,2024.2.4,129.8893603076909,2025-03-07 11h58.36.239689 +0700,
2,68,0,word/worden0681.png,image/False/imgf68.png,46,46,0,x,0.5551768000004813,None,0,46,46,46,153.26551960001234,,,,,,,154.7543456000276,154.2560062999837,154.26041440002155,154.26041440002155,154.7543456000276,154.7543456000276,154.74772440001834,155.8531944999704,155.8531944999704,155.8531944999704,x,0.5551768000004813,None,,,,,,,,PM_en,001,2025-03-07_11h58.25.351,MainFlow,2024.2.4,129.8893603076909,2025-03-07 11h58.36.239689 +0700,
2,75,1,word/worden0751.png,image/True/img75.png,47,47,0,z,0.6103675999911502,None,0,47,47,47,156.41455740004312,,,,,,,157.90354490000755,157.4044847000623,157.40964700002223,157.40964700002223,157.90354490000755,157.90354490000755,157.8971171999583,159.02379590005148,159.02379590005148,159.02379590005148,z,0.6103675999911502,None,,,,,,,,PM_en,001,2025-03-07_11h58.25.351,MainFlow,2024.2.4,129.8893603076909,2025-03-07 11h58.36.239689 +0700,
2,38,1,word/worden0381.png,image/True/img38.png,48,48,0,z,0.3457044999813661,None,0,48,48,48,159.64777649997268,,,,,,,161.13477580004837,160.63645870005712,160.64121959998738,160.64121959998738,161.13477580004837,161.13477580004837,161.128109900048,162.27177160000429,162.27177160000429,162.27177160000429,z,0.3457044999813661,None,,,,,,,,PM_en,001,2025-03-07_11h58.25.351,MainFlow,2024.2.4,129.8893603076909,2025-03-07 11h58.36.239689 +0700,
2,42,1,word/worden0421.png,image/True/img42.png,49,49,0,z,0.3682420999975875,None,0,49,49,49,162.63032910006586,,,,,,,164.12045000004582,163.62265809997916,163.6275725000305,163.6275725000305,164.12045000004582,164.12045000004582,164.11390780005604,165.32678100001067,165.32678100001067,165.32678100001067,z,0.3682420999975875,None,,,,,,,,PM_en,001,2025-03-07_11h58.25.351,MainFlow,2024.2.4,129.8893603076909,2025-03-07 11h58.36.239689 +0700,
2,11,0,word/worden0111.png,image/False/imgf11.png,50,50,0,x,0.5550161000574008,None,0,50,50,50,165.70200839999598,,,,,,,167.19611190003343,166.69672840007115,166.70235559996217,166.70235559996217,167.19611190003343,167.19611190003343,167.18955460004508,168.39637720002793,168.39637720002793,168.39637720002793,x,0.5550161000574008,None,,,,,,,,PM_en,001,2025-03-07_11h58.25.351,MainFlow,2024.2.4,129.8893603076909,2025-03-07 11h58.36.239689 +0700,
2,41,0,word/worden0411.png,image/False/imgf41.png,51,51,0,x,0.43437919998541474,None,0,51,51,51,168.95838770002592,,,,,,,170.44836310006212,169.94904470001347,169.95453129999805,169.95453129999805,170.44836310006212,170.44836310006212,170.44205339998007,171.5947451000102,171.5947451000102,171.5947451000102,x,0.43437919998541474,None,,,,,,,,PM_en,001,2025-03-07_11h58.25.351,MainFlow,2024.2.4,129.8893603076909,2025-03-07 11h58.36.239689 +0700,
2,82,1,word/worden0821.png,image/True/img82.png,52,52,0,z,0.5346232000738382,None,0,52,52,52,172.0374183000531,,,,,,,173.5273999000201,173.02960370003711,173.03445030003786,173.03445030003786,173.5273999000201,173.5273999000201,173.52088530000765,174.64266939996742,174.64266939996742,174.64266939996742,z,0.5346232000738382,None,,,,,,,,PM_en,001,2025-03-07_11h58.25.351,MainFlow,2024.2.4,129.8893603076909,2025-03-07 11h58.36.239689 +0700,
2,88,0,word/worden0881.png,image/False/imgf88.png,53,53,0,x,0.6598768999101594,None,0,53,53,53,175.1885411000112,,,,,,,176.67638520000037,176.17756730003748,176.18241330003366,176.18241330003366,176.67638520000037,176.67638520000037,176.66972280002665,177.85846530005801,177.85846530005801,177.85846530005801,x,0.6598768999101594,None,,,,,,,,PM_en,001,2025-03-07_11h58.25.351,MainFlow,2024.2.4,129.8893603076909,2025-03-07 11h58.36.239689 +0700,
2,8,1,word/worden0081.png,image/True/img08.png,54,54,0,z,0.40625820006243885,None,0,54,54,54,178.52714550006203,,,,,,,180.01693270006217,179.5185217000544,179.52322269999422,179.52322269999422,180.01693270006217,180.01693270006217,180.01038490002975,181.15486959996633,181.15486959996633,181.15486959996633,z,0.40625820006243885,None,,,,,,,,PM_en,001,2025-03-07_11h58.25.351,MainFlow,2024.2.4,129.8893603076909,2025-03-07 11h58.36.239689 +0700,
2,16,0,word/worden0161.png,image/False/imgf16.png,55,55,0,x,0.48803080001380295,None,0,55,55,55,181.56767330004368,,,,,,,183.06179820001125,182.56276640004944,182.5678920999635,182.5678920999635,183.06179820001125,183.06179820001125,183.05517760000657,184.26133490004577,184.26133490004577,184.26133490004577,x,0.48803080001380295,None,,,,,,,,PM_en,001,2025-03-07_11h58.25.351,MainFlow,2024.2.4,129.8893603076909,2025-03-07 11h58.36.239689 +0700,
2,10,0,word/worden0101.png,image/False/imgf10.png,56,56,0,x,0.38449109997600317,None,0,56,56,56,184.76051629998256,,,,,,,186.25061220000498,185.75180650001857,185.7567863999866,185.7567863999866,186.25061220000498,186.25061220000498,186.2445061999606,187.43208479997702,187.43208479997702,187.43208479997702,x,0.38449109997600317,None,,,,,,,,PM_en,001,2025-03-07_11h58.25.351,MainFlow,2024.2.4,129.8893603076909,2025-03-07 11h58.36.239689 +0700,
2,76,0,word/worden0761.png,image/False/imgf76.png,57,57,0,x,0.365306599996984,None,0,57,57,57,187.82372099999338,,,,,,,189.31338419998065,188.81453760003205,188.8193621999817,188.8193621999817,189.31338419998065,189.31338419998065,189.30697020003572,190.50867869996,190.50867869996,190.50867869996,x,0.365306599996984,None,,,,,,,,PM_en,001,2025-03-07_11h58.25.351,MainFlow,2024.2.4,129.8893603076909,2025-03-07 11h58.36.239689 +0700,
2,42,1,word/worden0421.png,image/True/img42.png,58,58,0,z,0.5232985999900848,None,0,58,58,58,190.8834675999824,,,,,,,192.3717142000096,191.87276579998434,191.87780470005237,191.87780470005237,192.3717142000096,192.3717142000096,192.36533749999944,193.51778630004264,193.51778630004264,193.51778630004264,z,0.5232985999900848,None,,,,,,,,PM_en,001,2025-03-07_11h58.25.351,MainFlow,2024.2.4,129.8893603076909,2025-03-07 11h58.36.239689 +0700,
2,26,0,word/worden0261.png,image/False/imgf26.png,59,59,0,x,0.5178081999765709,None,0,59,59,59,194.0547685000347,,,,,,,195.54829770000651,195.04866039997432,195.05387030006386,195.05387030006386,195.54829770000651,195.54829770000651,195.54180250002537,196.73566470004153,196.73566470004153,196.73566470004153,x,0.5178081999765709,None,,,,,,,,PM_en,001,2025-03-07_11h58.25.351,MainFlow,2024.2.4,129.8893603076909,2025-03-07 11h58.36.239689 +0700,
2,26,1,word/worden0261.png,image/True/img26.png,60,60,0,z,0.31483269995078444,None,0,60,60,60,197.2625389000168,,,,,,,198.75325990002602,198.25444379996043,198.25924310006667,198.25924310006667,198.75325990002602,198.75325990002602,198.74690130003728,199.9015706999926,199.9015706999926,199.9015706999926,z,0.31483269995078444,None,,,,,,,,PM_en,001,2025-03-07_11h58.25.351,MainFlow,2024.2.4,129.8893603076909,2025-03-07 11h58.36.239689 +0700,
2,48,1,word/worden0481.png,image/True/img48.png,61,61,0,z,0.46358690003398806,None,0,61,61,61,200.22428109997418,,,,,,,201.7126949999947,201.21409250004217,201.21863809996285,201.21863809996285,201.7126949999947,201.7126949999947,201.70623580005486,202.85996320005506,202.85996320005506,202.85996320005506,z,0.46358690003398806,None,,,,,,,,PM_en,001,2025-03-07_11h58.25.351,MainFlow,2024.2.4,129.8893603076909,2025-03-07 11h58.36.239689 +0700,
2,71,0,word/worden0711.png,image/False/imgf71.png,62,62,0,x,0.7668588000815362,None,0,62,62,62,203.33650009997655,,,,,,,204.82520910003223,204.32656700001098,204.3313707000343,204.3313707000343,204.82520910003223,204.82520910003223,204.81863720004912,205.98895919998176,205.98895919998176,205.98895919998176,x,0.7668588000815362,None,,,,,,,,PM_en,001,2025-03-07_11h58.25.351,MainFlow,2024.2.4,129.8893603076909,2025-03-07 11h58.36.239689 +0700,
2,93,1,word/worden0931.png,image/True/img93.png,63,63,0,z,0.5078281000023708,None,0,63,63,63,206.76603359996807,,,,,,,208.25398959999438,207.75517320004292,207.7596637000097,207.7596637000097,208.25398959999438,208.25398959999438,208.24734020000324,209.37064089998603,209.37064089998603,209.37064089998603,z,0.5078281000023708,None,,,,,,,,PM_en,001,2025-03-07_11h58.25.351,MainFlow,2024.2.4,129.8893603076909,2025-03-07 11h58.36.239689 +0700,
2,51,1,word/worden0511.png,image/True/img51.png,64,64,0,z,0.41524930007290095,None,0,64,64,64,209.88706940005068,,,,,,,211.37555960007012,210.87665730004665,210.88149649999104,210.88149649999104,211.37555960007012,211.37555960007012,211.36896280001383,212.50488570006564,212.50488570006564,212.50488570006564,z,0.41524930007290095,None,,,,,,,,PM_en,001,2025-03-07_11h58.25.351,MainFlow,2024.2.4,129.8893603076909,2025-03-07 11h58.36.239689 +0700,
2,78,0,word/worden0781.png,image/False/imgf78.png,65,65,0,x,0.4745155000127852,None,0,65,65,65,212.92957739997655,,,,,,,214.41958820004947,213.92131550004706,213.92612239997834,213.92612239997834,214.41958820004947,214.41958820004947,214.4138224000344,215.53331920003984,215.53331920003984,215.53331920003984,x,0.4745155000127852,None,,,,,,,,PM_en,001,2025-03-07_11h58.25.351,MainFlow,2024.2.4,129.8893603076909,2025-03-07 11h58.36.239689 +0700,
2,64,0,word/worden0641.png,image/False/imgf64.png,66,66,0,x,0.650039599975571,None,0,66,66,66,216.0178551999852,,,,,,,217.50564300001133,217.00690300005954,217.01178479997907,217.01178479997907,217.50564300001133,217.50564300001133,217.4990386000136,218.60604169999715,218.60604169999715,218.60604169999715,x,0.650039599975571,None,,,,,,,,PM_en,001,2025-03-07_11h58.25.351,MainFlow,2024.2.4,129.8893603076909,2025-03-07 11h58.36.239689 +0700,
2,68,1,word/worden0681.png,image/True/img68.png,67,67,0,z,0.4083231999538839,None,0,67,67,67,219.26487119996455,,,,,,,220.7529443000676,220.25444220006466,220.2589417999843,220.2589417999843,220.7529443000676,220.7529443000676,220.74631620000582,221.8750981000485,221.8750981000485,221.8750981000485,z,0.4083231999538839,None,,,,,,,,PM_en,001,2025-03-07_11h58.25.351,MainFlow,2024.2.4,129.8893603076909,2025-03-07 11h58.36.239689 +0700,
2,57,0,word/worden0571.png,image/False/imgf57.png,68,68,0,x,0.518489999929443,None,0,68,68,68,222.2908141000662,,,,,,,223.7843602000503,223.2843181999633,223.2895761000691,223.2895761000691,223.7843602000503,223.7843602000503,223.77828880003653,224.99193470005412,224.99193470005412,224.99193470005412,x,0.518489999929443,None,,,,,,,,PM_en,001,2025-03-07_11h58.25.351,MainFlow,2024.2.4,129.8893603076909,2025-03-07 11h58.36.239689 +0700,
2,31,0,word/worden0311.png,image/False/imgf31.png,69,69,0,x,0.5563899000408128,None,0,69,69,69,225.51893919997383,,,,,,,227.00652309996076,226.50800040003378,226.5124962000409,226.5124962000409,227.00652309996076,227.00652309996076,226.99992620002013,228.10210899997037,228.10210899997037,228.10210899997037,x,0.5563899000408128,None,,,,,,,,PM_en,001,2025-03-07_11h58.25.351,MainFlow,2024.2.4,129.8893603076909,2025-03-07 11h58.36.239689 +0700,
2,31,0,word/worden0311.png,image/False/imgf31.png,70,70,0,x,0.5218993000453338,None,0,70,70,70,228.6657547999639,,,,,,,230.15464439999778,229.65578240004834,229.66090550005902,229.66090550005902,230.15464439999778,230.15464439999778,230.14804610004649,231.24913530005142,231.24913530005142,231.24913530005142,x,0.5218993000453338,None,,,,,,,,PM_en,001,2025-03-07_11h58.25.351,MainFlow,2024.2.4,129.8893603076909,2025-03-07 11h58.36.239689 +0700,
2,55,1,word/worden0551.png,image/True/img55.png,71,71,0,z,0.5866587000200525,None,0,71,71,71,231.779621600057,,,,,,,233.26677440002095,232.76846389996354,232.77298210002482,232.77298210002482,233.26677440002095,233.26677440002095,233.2601919999579,234.44157510006335,234.44157510006335,234.44157510006335,z,0.5866587000200525,None,,,,,,,,PM_en,001,2025-03-07_11h58.25.351,MainFlow,2024.2.4,129.8893603076909,2025-03-07 11h58.36.239689 +0700,
2,36,1,word/worden0361.png,image/True/img36.png,72,72,0,z,0.5518557999748737,None,0,72,72,72,235.03824200003874,,,,,,,236.52871430001687,236.02999119996093,236.03518020000774,236.03518020000774,236.52871430001687,236.52871430001687,236.52228959999047,237.7035739000421,237.7035739000421,237.7035739000421,z,0.5518557999748737,None,,,,,,,,PM_en,001,2025-03-07_11h58.25.351,MainFlow,2024.2.4,129.8893603076909,2025-03-07 11h58.36.239689 +0700,
2,8,0,word/worden0081.png,image/False/imgf08.png,73,73,0,x,0.5334006999619305,None,0,73,73,73,238.2654923000373,,,,,,,239.75589340005536,239.2574872999685,239.26235950004775,239.26235950004775,239.75589340005536,239.75589340005536,239.7493788000429,240.87560170004144,240.87560170004144,240.87560170004144,x,0.5334006999619305,None,,,,,,,,PM_en,001,2025-03-07_11h58.25.351,MainFlow,2024.2.4,129.8893603076909,2025-03-07 11h58.36.239689 +0700,
2,82,0,word/worden0821.png,image/False/imgf82.png,74,74,0,x,0.39637049997691065,None,0,74,74,74,241.4162737999577,,,,,,,242.90399500005879,242.4051266000606,242.40967570000794,242.40967570000794,242.90399500005879,242.90399500005879,242.89705350005534,244.03513930004556,244.03513930004556,244.03513930004556,x,0.39637049997691065,None,,,,,,,,PM_en,001,2025-03-07_11h58.25.351,MainFlow,2024.2.4,129.8893603076909,2025-03-07 11h58.36.239689 +0700,
2,14,0,word/worden0141.png,image/False/imgf14.png,75,75,0,x,0.3498389000305906,None,0,75,75,75,244.443744600052,,,,,,,245.93195620004553,245.4326424000319,245.4377970000496,245.4377970000496,245.93195620004553,245.93195620004553,245.92515080003068,247.09334699995816,247.09334699995816,247.09334699995816,x,0.3498389000305906,None,,,,,,,,PM_en,001,2025-03-07_11h58.25.351,MainFlow,2024.2.4,129.8893603076909,2025-03-07 11h58.36.239689 +0700,
2,71,1,word/worden0711.png,image/True/img71.png,76,76,0,z,0.6002863999456167,None,0,76,76,76,247.4556525000371,,,,,,,248.9499586999882,248.45095079997554,248.45682770002168,248.45682770002168,248.9499586999882,248.9499586999882,248.94366400002036,250.21957780001685,250.21957780001685,250.21957780001685,z,0.6002863999456167,None,,,,,,,,PM_en,001,2025-03-07_11h58.25.351,MainFlow,2024.2.4,129.8893603076909,2025-03-07 11h58.36.239689 +0700,
2,22,0,word/worden0221.png,image/False/imgf22.png,77,77,0,x,0.4682461000047624,None,0,77,77,77,250.8333288000431,,,,,,,252.32899619999807,251.83071180002298,251.83646230003797,251.83646230003797,252.32899619999807,252.32899619999807,252.32255789998453,253.61436050001066,253.61436050001066,253.61436050001066,x,0.4682461000047624,None,,,,,,,,PM_en,001,2025-03-07_11h58.25.351,MainFlow,2024.2.4,129.8893603076909,2025-03-07 11h58.36.239689 +0700,
2,78,1,word/worden0781.png,image/True/img78.png,78,78,0,z,0.41131859994493425,None,0,78,78,78,254.09241390007082,,,,,,,255.5875921000261,255.0893143999856,255.0945966000436,255.0945966000436,255.5875921000261,255.5875921000261,255.58135270001367,256.82843100000173,256.82843100000173,256.82843100000173,z,0.41131859994493425,None,,,,,,,,PM_en,001,2025-03-07_11h58.25.351,MainFlow,2024.2.4,129.8893603076909,2025-03-07 11h58.36.239689 +0700,
2,51,0,word/worden0511.png,image/False/imgf51.png,79,79,0,x,0.9119070000015199,None,0,79,79,79,257.2517127000028,,,,,,,258.7462242000038,258.24722809996456,258.2529307999648,258.2529307999648,258.7462242000038,258.7462242000038,258.7399438000284,259.9762340000598,259.9762340000598,259.9762340000598,x,0.9119070000015199,None,,,,,,,,PM_en,001,2025-03-07_11h58.25.351,MainFlow,2024.2.4,129.8893603076909,2025-03-07 11h58.36.239689 +0700,
2,56,1,word/worden0561.png,image/True/img56.png,80,80,0,z,0.5437701999908313,None,0,80,80,80,260.89891420002095,,,,,,,262.3945673999842,261.8965241999831,261.90239669999573,261.90239669999573,262.3945673999842,262.3945673999842,262.3885213000467,263.6054328000173,263.6054328000173,263.6054328000173,z,0.5437701999908313,None,,,,,,,,PM_en,001,2025-03-07_11h58.25.351,MainFlow,2024.2.4,129.8893603076909,2025-03-07 11h58.36.239689 +0700,
2,60,1,word/worden0601.png,image/True/img60.png,81,81,0,z,0.556932199979201,None,0,81,81,81,264.16000659996644,,,,,,,265.6555377000477,265.15665500005707,265.16285700001754,265.16285700001754,265.6555377000477,265.6555377000477,265.6494243000634,266.9350778000662,266.9350778000662,266.9350778000662,z,0.556932199979201,None,,,,,,,,PM_en,001,2025-03-07_11h58.25.351,MainFlow,2024.2.4,129.8893603076909,2025-03-07 11h58.36.239689 +0700,
2,96,0,word/worden0961.png,image/False/imgf96.png,82,82,0,x,0.695468100020662,None,0,82,82,82,267.5008939000545,,,,,,,268.99625219998416,268.4977397000184,268.50357339996845,268.50357339996845,268.99625219998416,268.99625219998416,268.98999000003096,270.1989195999922,270.1989195999922,270.1989195999922,x,0.695468100020662,None,,,,,,,,PM_en,001,2025-03-07_11h58.25.351,MainFlow,2024.2.4,129.8893603076909,2025-03-07 11h58.36.239689 +0700,
2,3,0,word/worden0031.png,image/False/imgf03.png,83,83,0,x,0.4651552999857813,None,0,83,83,83,270.90396789996885,,,,,,,272.39838100003544,271.8990861000493,271.904911300051,271.904911300051,272.39838100003544,272.39838100003544,272.3921896000393,273.58258449996356,273.58258449996356,273.58258449996356,x,0.4651552999857813,None,,,,,,,,PM_en,001,2025-03-07_11h58.25.351,MainFlow,2024.2.4,129.8893603076909,2025-03-07 11h58.36.239689 +0700,
2,55,0,word/worden0551.png,image/False/imgf55.png,84,84,0,x,0.6950509999878705,None,0,84,84,84,274.0547538000392,,,,,,,275.5488209000323,275.04926959995646,275.05499109998345,275.05499109998345,275.5488209000323,275.5488209000323,275.54245139996056,276.75962320005056,276.75962320005056,276.75962320005056,x,0.6950509999878705,None,,,,,,,,PM_en,001,2025-03-07_11h58.25.351,MainFlow,2024.2.4,129.8893603076909,2025-03-07 11h58.36.239689 +0700,
2,71,1,word/worden0711.png,image/True/img71.png,85,85,0,z,0.6759866999927908,None,0,85,85,85,277.46715969999786,,,,,,,278.9612301000161,278.461641300004,278.4674488999881,278.4674488999881,278.9612301000161,278.9612301000161,278.95500870002434,280.17111500003375,280.17111500003375,280.17111500003375,z,0.6759866999927908,None,,,,,,,,PM_en,001,2025-03-07_11h58.25.351,MainFlow,2024.2.4,129.8893603076909,2025-03-07 11h58.36.239689 +0700,
2,3,1,word/worden0031.png,image/True/img03.png,86,86,0,z,1.155347099993378,None,0,86,86,86,280.85762899997644,,,,,,,282.3517659000354,281.85227569995914,281.8580093999626,281.8580093999626,282.3517659000354,282.3517659000354,282.3454917999916,283.54844200005755,283.54844200005755,283.54844200005755,z,1.155347099993378,None,,,,,,,,PM_en,001,2025-03-07_11h58.25.351,MainFlow,2024.2.4,129.8893603076909,2025-03-07 11h58.36.239689 +0700,
2,52,1,word/worden0521.png,image/True/img52.png,87,87,0,z,0.7149134998908266,None,0,87,87,87,284.7141983000329,,,,,,,286.2117240000516,285.7126076000277,285.718443699996,285.718443699996,286.2117240000516,286.2117240000516,286.20504390005954,287.4260896999622,287.4260896999622,287.4260896999622,z,0.7149134998908266,None,,,,,,,,PM_en,001,2025-03-07_11h58.25.351,MainFlow,2024.2.4,129.8893603076909,2025-03-07 11h58.36.239689 +0700,
2,95,0,word/worden0951.png,image/False/imgf95.png,88,88,0,x,0.41287770005874336,None,0,88,88,88,288.15075220004655,,,,,,,289.64478990004864,289.1450126999989,289.1509836000623,289.1509836000623,289.64478990004864,289.64478990004864,289.63849479996134,290.8657871000469,290.8657871000469,290.8657871000469,x,0.41287770005874336,None,,,,,,,,PM_en,001,2025-03-07_11h58.25.351,MainFlow,2024.2.4,129.8893603076909,2025-03-07 11h58.36.239689 +0700,
2,6,0,word/worden0061.png,image/False/imgf06.png,89,89,0,x,0.4104848999995738,None,0,89,89,89,291.2891348999692,,,,,,,292.7828214999754,292.28299990005326,292.2892664000392,292.2892664000392,292.7828214999754,292.7828214999754,292.7764561000513,293.97154379996937,293.97154379996937,293.97154379996937,x,0.4104848999995738,None,,,,,,,,PM_en,001,2025-03-07_11h58.25.351,MainFlow,2024.2.4,129.8893603076909,2025-03-07 11h58.36.239689 +0700,
2,79,1,word/worden0791.png,image/True/img79.png,90,90,0,z,0.7231679999968037,None,0,90,90,90,294.39482350007165,,,,,,,295.8905870000599,295.39198890002444,295.3976234999718,295.3976234999718,295.8905870000599,295.8905870000599,295.8840363000054,297.10031610005535,297.10031610005535,297.10031610005535,z,0.7231679999968037,None,,,,,,,,PM_en,001,2025-03-07_11h58.25.351,MainFlow,2024.2.4,129.8893603076909,2025-03-07 11h58.36.239689 +0700,
2,61,0,word/worden0611.png,image/False/imgf61.png,91,91,0,x,0.7185284000588581,None,0,91,91,91,297.83547599997837,,,,,,,299.32916700001806,298.82993979996536,298.8355203999672,298.8355203999672,299.32916700001806,299.32916700001806,299.32328230002895,300.5632205000147,300.5632205000147,300.5632205000147,x,0.7185284000588581,None,,,,,,,,PM_en,001,2025-03-07_11h58.25.351,MainFlow,2024.2.4,129.8893603076909,2025-03-07 11h58.36.239689 +0700,
2,46,0,word/worden0461.png,image/False/imgf46.png,92,92,0,x,0.5336129000643268,None,0,92,92,92,301.29044680006336,,,,,,,302.7848049000604,302.28535739996005,302.29119380004704,302.29119380004704,302.7848049000604,302.7848049000604,302.7785484000342,304.02959970000666,304.02959970000666,304.02959970000666,x,0.5336129000643268,None,,,,,,,,PM_en,001,2025-03-07_11h58.25.351,MainFlow,2024.2.4,129.8893603076909,2025-03-07 11h58.36.239689 +0700,
2,89,1,word/worden0891.png,image/True/img89.png,93,93,0,z,0.39900330000091344,None,0,93,93,93,304.570864600013,,,,,,,306.0662181000225,305.567898600013,305.5737040999811,305.5737040999811,306.0662181000225,306.0662181000225,306.06002460001037,307.2319039000431,307.2319039000431,307.2319039000431,z,0.39900330000091344,None,,,,,,,,PM_en,001,2025-03-07_11h58.25.351,MainFlow,2024.2.4,129.8893603076909,2025-03-07 11h58.36.239689 +0700,
2,26,0,word/worden0261.png,image/False/imgf26.png,94,94,0,x,0.4381416999967769,None,0,94,94,94,307.6411169000203,,,,,,,309.1351703000255,308.6359522000421,308.6419637000654,308.6419637000654,309.1351703000255,309.1351703000255,309.1296043000184,310.3751984999981,310.3751984999981,310.3751984999981,x,0.4381416999967769,None,,,,,,,,PM_en,001,2025-03-07_11h58.25.351,MainFlow,2024.2.4,129.8893603076909,2025-03-07 11h58.36.239689 +0700,
2,44,0,word/worden0441.png,image/False/imgf44.png,95,95,0,x,0.5886262999847531,None,0,95,95,95,310.82597670005634,,,,,,,312.32113329996355,311.821337100002,311.827575400006,311.827575400006,312.32113329996355,312.32113329996355,312.31449799996335,313.56811940006446,313.56811940006446,313.56811940006446,x,0.5886262999847531,None,,,,,,,,PM_en,001,2025-03-07_11h58.25.351,MainFlow,2024.2.4,129.8893603076909,2025-03-07 11h58.36.239689 +0700,
2,82,1,word/worden0821.png,image/True/img82.png,96,96,0,z,0.4440554999746382,None,0,96,96,96,314.1676344999578,,,,,,,315.6622447000118,315.16284400003497,315.16880400001537,315.16880400001537,315.6622447000118,315.6622447000118,315.6559077000711,316.8095453999704,316.8095453999704,316.8095453999704,z,0.4440554999746382,None,,,,,,,,PM_en,001,2025-03-07_11h58.25.351,MainFlow,2024.2.4,129.8893603076909,2025-03-07 11h58.36.239689 +0700,
2,16,1,word/worden0161.png,image/True/img16.png,97,97,0,z,0.6191636000294238,None,0,97,97,97,317.2649023999693,,,,,,,318.75962659996003,318.2611050000414,318.26670949999243,318.26670949999243,318.75962659996003,318.75962659996003,318.75349190004636,319.99736350006424,319.99736350006424,319.99736350006424,z,0.6191636000294238,None,,,,,,,,PM_en,001,2025-03-07_11h58.25.351,MainFlow,2024.2.4,129.8893603076909,2025-03-07 11h58.36.239689 +0700,
2,20,1,word/worden0201.png,image/True/img20.png,98,98,0,z,0.7053862999891862,None,0,98,98,98,320.6239893999882,,,,,,,322.11896410002373,321.62038500001654,321.62609200004954,321.62609200004954,322.11896410002373,322.11896410002373,322.1126820000354,323.3432105999673,323.3432105999673,323.3432105999673,z,0.7053862999891862,None,,,,,,,,PM_en,001,2025-03-07_11h58.25.351,MainFlow,2024.2.4,129.8893603076909,2025-03-07 11h58.36.239689 +0700,
2,20,1,word/worden0201.png,image/True/img20.png,99,99,0,z,0.36424159992020577,None,0,99,99,99,324.0554367000004,,,,,,,325.5502289000433,325.0512669000309,325.0567270000465,325.0567270000465,325.5502289000433,325.5502289000433,325.54394770006184,326.7670585999731,326.7670585999731,326.7670585999731,z,0.36424159992020577,None,,,,,,,,PM_en,001,2025-03-07_11h58.25.351,MainFlow,2024.2.4,129.8893603076909,2025-03-07 11h58.36.239689 +0700,
2,96,1,word/worden0961.png,image/True/img96.png,100,100,0,z,0.4161413999972865,None,0,100,100,100,327.1423706000205,,,,,,,328.637298900052,328.1378644000506,328.144230099977,328.144230099977,328.637298900052,328.637298900052,328.6309036000166,329.85095200000796,329.85095200000796,329.85095200000796,z,0.4161413999972865,None,,,,,,,,PM_en,001,2025-03-07_11h58.25.351,MainFlow,2024.2.4,129.8893603076909,2025-03-07 11h58.36.239689 +0700,
2,64,1,word/worden0641.png,image/True/img64.png,101,101,0,z,0.4445406999439001,None,0,101,101,101,330.2781296999892,,,,,,,331.77229069999885,331.27224409999326,331.27832270006184,331.27832270006184,331.77229069999885,331.77229069999885,331.7659156000009,332.9268788000336,332.9268788000336,332.9268788000336,z,0.4445406999439001,None,,,,,,,,PM_en,001,2025-03-07_11h58.25.351,MainFlow,2024.2.4,129.8893603076909,2025-03-07 11h58.36.239689 +0700,
2,78,0,word/worden0781.png,image/False/imgf78.png,102,102,0,x,0.46857829997316003,None,0,102,102,102,333.37786030001007,,,,,,,334.8721200999571,334.3731568000512,334.37923940003384,334.37923940003384,334.8721200999571,334.8721200999571,334.8662513999734,336.035448599956,336.035448599956,336.035448599956,x,0.46857829997316003,None,,,,,,,,PM_en,001,2025-03-07_11h58.25.351,MainFlow,2024.2.4,129.8893603076909,2025-03-07 11h58.36.239689 +0700,
2,20,0,word/worden0201.png,image/False/imgf20.png,103,103,0,x,0.6184107000008225,None,0,103,103,103,336.5141309000319,,,,,,,338.00835719995666,337.50860739999916,337.514606700046,337.514606700046,338.00835719995666,338.00835719995666,338.0021487000631,339.25820020004176,339.25820020004176,339.25820020004176,x,0.6184107000008225,None,,,,,,,,PM_en,001,2025-03-07_11h58.25.351,MainFlow,2024.2.4,129.8893603076909,2025-03-07 11h58.36.239689 +0700,
2,89,1,word/worden0891.png,image/True/img89.png,104,104,0,z,0.4499404000816867,None,0,104,104,104,339.8847668999806,,,,,,,341.37931160000153,340.8797914000461,340.88577759999316,340.88577759999316,341.37931160000153,341.37931160000153,341.373154800036,342.5386519000167,342.5386519000167,342.5386519000167,z,0.4499404000816867,None,,,,,,,,PM_en,001,2025-03-07_11h58.25.351,MainFlow,2024.2.4,129.8893603076909,2025-03-07 11h58.36.239689 +0700,
2,59,0,word/worden0591.png,image/False/imgf59.png,105,105,0,x,0.4058036000933498,None,0,105,105,105,342.9998879999621,,,,,,,344.496771599981,343.998423299985,344.0042258000467,344.0042258000467,344.496771599981,344.496771599981,344.49054270004854,345.64787750004325,345.64787750004325,345.64787750004325,x,0.4058036000933498,None,,,,,,,,PM_en,001,2025-03-07_11h58.25.351,MainFlow,2024.2.4,129.8893603076909,2025-03-07 11h58.36.239689 +0700,
2,24,0,word/worden0241.png,image/False/imgf24.png,106,106,0,x,0.5094659000169486,None,0,106,106,106,346.06504190003034,,,,,,,347.55970480002,347.0602666999912,347.0664661000483,347.0664661000483,347.55970480002,347.55970480002,347.55359040002804,348.7550930000143,348.7550930000143,348.7550930000143,x,0.5094659000169486,None,,,,,,,,PM_en,001,2025-03-07_11h58.25.351,MainFlow,2024.2.4,129.8893603076909,2025-03-07 11h58.36.239689 +0700,
2,28,0,word/worden0281.png,image/False/imgf28.png,107,107,0,x,0.35699359991122037,None,0,107,107,107,349.27545159996953,,,,,,,350.77036189998034,350.27106639998965,350.2776022000471,350.2776022000471,350.77036189998034,350.77036189998034,350.76416590006556,351.9654878999572,351.9654878999572,351.9654878999572,x,0.35699359991122037,None,,,,,,,,PM_en,001,2025-03-07_11h58.25.351,MainFlow,2024.2.4,129.8893603076909,2025-03-07 11h58.36.239689 +0700,
2,15,0,word/worden0151.png,image/False/imgf15.png,108,108,0,x,0.449427800020203,None,0,108,108,108,352.3333185999654,,,,,,,353.82816220005043,353.32845170004293,353.33482410002034,353.33482410002034,353.82816220005043,353.82816220005043,353.8220679999795,355.0301449999679,355.0301449999679,355.0301449999679,x,0.449427800020203,None,,,,,,,,PM_en,001,2025-03-07_11h58.25.351,MainFlow,2024.2.4,129.8893603076909,2025-03-07 11h58.36.239689 +0700,
2,30,1,word/worden0301.png,image/True/img30.png,109,109,0,z,0.6689873000141233,None,0,109,109,109,355.48593399999663,,,,,,,356.9825827999739,356.48438390006777,356.489940200001,356.489940200001,356.9825827999739,356.9825827999739,356.9763156999834,358.1752750000451,358.1752750000451,358.1752750000451,z,0.6689873000141233,None,,,,,,,,PM_en,001,2025-03-07_11h58.25.351,MainFlow,2024.2.4,129.8893603076909,2025-03-07 11h58.36.239689 +0700,
2,64,1,word/worden0641.png,image/True/img64.png,110,110,0,z,0.6133056000107899,None,0,110,110,110,358.8517059000442,,,,,,,360.3493344000308,359.8502215000335,359.8562563000014,359.8562563000014,360.3493344000308,360.3493344000308,360.34309630002826,361.5010503999656,361.5010503999656,361.5010503999656,z,0.6133056000107899,None,,,,,,,,PM_en,001,2025-03-07_11h58.25.351,MainFlow,2024.2.4,129.8893603076909,2025-03-07 11h58.36.239689 +0700,
2,52,0,word/worden0521.png,image/False/imgf52.png,111,111,0,x,0.6623730000574142,None,0,111,111,111,362.1260966999689,,,,,,,363.62284470000304,363.1236932000611,363.13021219999064,363.13021219999064,363.62284470000304,363.62284470000304,363.61674289999064,364.7990375000518,364.7990375000518,364.7990375000518,x,0.6623730000574142,None,,,,,,,,PM_en,001,2025-03-07_11h58.25.351,MainFlow,2024.2.4,129.8893603076909,2025-03-07 11h58.36.239689 +0700,
2,33,1,word/worden0331.png,image/True/img33.png,112,112,0,z,0.6834219000302255,None,0,112,112,112,365.47192370006815,,,,,,,366.9666161000496,366.46718659996986,366.4732627000194,366.4732627000194,366.9666161000496,366.9666161000496,366.96044840000104,368.17095980001613,368.17095980001613,368.17095980001613,z,0.6834219000302255,None,,,,,,,,PM_en,001,2025-03-07_11h58.25.351,MainFlow,2024.2.4,129.8893603076909,2025-03-07 11h58.36.239689 +0700,
2,23,1,word/worden0231.png,image/True/img23.png,113,113,0,z,0.3521234999643639,None,0,113,113,113,368.8673861999996,,,,,,,370.36204340006225,369.8625805999618,369.8685930999927,369.8685930999927,370.36204340006225,370.36204340006225,370.3558425999945,371.5800078000175,371.5800078000175,371.5800078000175,z,0.3521234999643639,None,,,,,,,,PM_en,001,2025-03-07_11h58.25.351,MainFlow,2024.2.4,129.8893603076909,2025-03-07 11h58.36.239689 +0700,
2,11,1,word/worden0111.png,image/True/img11.png,114,114,0,z,0.40588320000097156,None,0,114,114,114,371.94073599996045,,,,,,,373.4350589000387,372.93559330003336,372.94142190006096,372.94142190006096,373.4350589000387,373.4350589000387,373.42891200003214,374.6735250999918,374.6735250999918,374.6735250999918,z,0.40588320000097156,None,,,,,,,,PM_en,001,2025-03-07_11h58.25.351,MainFlow,2024.2.4,129.8893603076909,2025-03-07 11h58.36.239689 +0700,
2,22,1,word/worden0221.png,image/True/img22.png,115,115,0,z,0.46740150009281933,None,0,115,115,115,375.0910253999755,,,,,,,376.58424350002315,376.0847947000293,376.0904050000245,376.0904050000245,376.58424350002315,376.58424350002315,376.5784605999943,377.8244728000136,377.8244728000136,377.8244728000136,z,0.46740150009281933,None,,,,,,,,PM_en,001,2025-03-07_11h58.25.351,MainFlow,2024.2.4,129.8893603076909,2025-03-07 11h58.36.239689 +0700,
2,37,0,word/worden0371.png,image/False/imgf37.png,116,116,0,x,0.3913835999555886,None,0,116,116,116,378.3031475000316,,,,,,,379.797480899957,379.29805260000285,379.3041258000303,379.3041258000303,379.797480899957,379.797480899957,379.7911977999611,381.0425400000531,381.0425400000531,381.0425400000531,x,0.3913835999555886,None,,,,,,,,PM_en,001,2025-03-07_11h58.25.351,MainFlow,2024.2.4,129.8893603076909,2025-03-07 11h58.36.239689 +0700,
2,79,0,word/worden0791.png,image/False/imgf79.png,117,117,0,x,1.6125772000523284,None,0,117,117,117,381.4432772999862,,,,,,,382.937464299961,382.43779590004124,382.44374480005354,382.44374480005354,382.937464299961,382.937464299961,382.9310355000198,384.1528778000502,384.1528778000502,384.1528778000502,x,1.6125772000523284,None,,,,,,,,PM_en,001,2025-03-07_11h58.25.351,MainFlow,2024.2.4,129.8893603076909,2025-03-07 11h58.36.239689 +0700,
2,56,1,word/worden0561.png,image/True/img56.png,118,118,0,z,0.3405746000353247,None,0,118,118,118,385.7727781999856,,,,,,,387.26795580005273,386.7690644999966,386.7749652999919,386.7749652999919,387.26795580005273,387.26795580005273,387.2615681999596,388.4577117000008,388.4577117000008,388.4577117000008,z,0.3405746000353247,None,,,,,,,,PM_en,001,2025-03-07_11h58.25.351,MainFlow,2024.2.4,129.8893603076909,2025-03-07 11h58.36.239689 +0700,
2,68,1,word/worden0681.png,image/True/img68.png,119,119,0,z,0.48179370001889765,None,0,119,119,119,388.8104688000167,,,,,,,390.3052534000017,389.80549329996575,389.8119067000225,389.8119067000225,390.3052534000017,390.3052534000017,390.29897600004915,391.44904680002946,391.44904680002946,391.44904680002946,z,0.48179370001889765,None,,,,,,,,PM_en,001,2025-03-07_11h58.25.351,MainFlow,2024.2.4,129.8893603076909,2025-03-07 11h58.36.239689 +0700,
2,27,0,word/worden0271.png,image/False/imgf27.png,120,120,0,x,0.5429789000190794,None,0,120,120,120,391.9409995999886,,,,,,,393.43530839995947,392.9352105000289,392.9415897000581,392.9415897000581,393.43530839995947,393.43530839995947,393.4290086000692,394.62056189996656,394.62056189996656,394.62056189996656,x,0.5429789000190794,None,,,,,,,,PM_en,001,2025-03-07_11h58.25.351,MainFlow,2024.2.4,129.8893603076909,2025-03-07 11h58.36.239689 +0700,
2,3,1,word/worden0031.png,image/True/img03.png,121,121,0,z,0.5306995999999344,None,0,121,121,121,395.17531850002706,,,,,,,396.66956189996563,396.17017449997365,396.1759827999631,396.1759827999631,396.66956189996563,396.66956189996563,396.6632600000594,397.8757747999625,397.8757747999625,397.8757747999625,z,0.5306995999999344,None,,,,,,,,PM_en,001,2025-03-07_11h58.25.351,MainFlow,2024.2.4,129.8893603076909,2025-03-07 11h58.36.239689 +0700,
2,38,0,word/worden0381.png,image/False/imgf38.png,122,122,0,x,0.6040411000140011,None,0,122,122,122,398.417826000019,,,,,,,399.9120473000221,399.4126475000521,399.4184694000287,399.4184694000287,399.9120473000221,399.9120473000221,399.90558260004036,401.15908600005787,401.15908600005787,401.15908600005787,x,0.6040411000140011,None,,,,,,,,PM_en,001,2025-03-07_11h58.25.351,MainFlow,2024.2.4,129.8893603076909,2025-03-07 11h58.36.239689 +0700,
2,59,1,word/worden0591.png,image/True/img59.png,123,123,0,z,0.3585960000054911,None,0,123,123,123,401.7730522999773,,,,,,,403.2668883999577,402.76708999997936,402.77262159995735,402.77262159995735,403.2668883999577,403.2668883999577,403.2605743999593,404.4231548999669,404.4231548999669,404.4231548999669,z,0.3585960000054911,None,,,,,,,,PM_en,001,2025-03-07_11h58.25.351,MainFlow,2024.2.4,129.8893603076909,2025-03-07 11h58.36.239689 +0700,
2,18,1,word/worden0181.png,image/True/img18.png,124,124,0,z,0.583664600038901,None,0,124,124,124,404.789954100037,,,,,,,406.2849148999667,405.78567150002345,405.7918363000499,405.7918363000499,406.2849148999667,406.2849148999667,406.2784834000049,407.45980149996467,407.45980149996467,407.45980149996467,z,0.583664600038901,None,,,,,,,,PM_en,001,2025-03-07_11h58.25.351,MainFlow,2024.2.4,129.8893603076909,2025-03-07 11h58.36.239689 +0700,
2,60,1,word/worden0601.png,image/True/img60.png,125,125,0,z,0.8338486000429839,None,0,125,125,125,408.056262099999,,,,,,,409.55045280000195,409.05125979997683,409.0571896999609,409.0571896999609,409.55045280000195,409.55045280000195,409.5439258000115,410.7470211000182,410.7470211000182,410.7470211000182,z,0.8338486000429839,None,,,,,,,,PM_en,001,2025-03-07_11h58.25.351,MainFlow,2024.2.4,129.8893603076909,2025-03-07 11h58.36.239689 +0700,
2,9,1,word/worden0091.png,image/True/img09.png,126,126,0,z,0.5042321999790147,None,0,126,126,126,411.5933194999816,,,,,,,413.0886311000213,412.5902089000447,412.5960043000523,412.5960043000523,413.0886311000213,413.0886311000213,413.08250869996846,414.21977470000274,414.21977470000274,414.21977470000274,z,0.5042321999790147,None,,,,,,,,PM_en,001,2025-03-07_11h58.25.351,MainFlow,2024.2.4,129.8893603076909,2025-03-07 11h58.36.239689 +0700,
2,9,0,word/worden0091.png,image/False/imgf09.png,127,127,0,x,0.6432219999842346,None,0,127,127,127,414.73250380007084,,,,,,,416.2269587999908,415.727551799966,415.7333910999587,415.7333910999587,416.2269587999908,416.2269587999908,416.22060620004777,417.3932180000702,417.3932180000702,417.3932180000702,x,0.6432219999842346,None,,,,,,,,PM_en,001,2025-03-07_11h58.25.351,MainFlow,2024.2.4,129.8893603076909,2025-03-07 11h58.36.239689 +0700,
2,94,0,word/worden0941.png,image/False/imgf94.png,128,128,0,x,0.49531599995680153,None,0,128,128,128,418.04573440004606,,,,,,,419.54047450004146,419.0417083000066,419.0475801000139,419.0475801000139,419.54047450004146,419.54047450004146,419.53411790006794,420.7846566999797,420.7846566999797,420.7846566999797,x,0.49531599995680153,None,,,,,,,,PM_en,001,2025-03-07_11h58.25.351,MainFlow,2024.2.4,129.8893603076909,2025-03-07 11h58.36.239689 +0700,
2,66,1,word/worden0661.png,image/True/img66.png,129,129,0,z,0.515181599999778,None,0,129,129,129,421.29082970006857,,,,,,,422.7855406999588,422.2863720000023,422.29251189995557,422.29251189995557,422.7855406999588,422.7855406999588,422.77922689996194,423.99598929996137,423.99598929996137,423.99598929996137,z,0.515181599999778,None,,,,,,,,PM_en,001,2025-03-07_11h58.25.351,MainFlow,2024.2.4,129.8893603076909,2025-03-07 11h58.36.239689 +0700,
2,1,0,word/worden0011.png,image/False/imgf01.png,130,130,0,x,0.5600692000007257,None,0,130,130,130,424.52277869998943,,,,,,,426.01756089995615,425.5178757000249,425.52420530002564,425.52420530002564,426.01756089995615,426.01756089995615,426.01133750006557,427.1994970999658,427.1994970999658,427.1994970999658,x,0.5600692000007257,None,,,,,,,,PM_en,001,2025-03-07_11h58.25.351,MainFlow,2024.2.4,129.8893603076909,2025-03-07 11h58.36.239689 +0700,
2,89,0,word/worden0891.png,image/False/imgf89.png,131,131,0,x,0.5173341000918299,None,0,131,131,131,427.7708641999634,,,,,,,429.265760099981,428.7663235999644,428.7722255999688,428.7722255999688,429.265760099981,429.265760099981,429.259368399973,430.45909809996374,430.45909809996374,430.45909809996374,x,0.5173341000918299,None,,,,,,,,PM_en,001,2025-03-07_11h58.25.351,MainFlow,2024.2.4,129.8893603076909,2025-03-07 11h58.36.239689 +0700,
2,48,1,word/worden0481.png,image/True/img48.png,132,132,0,z,0.49836049997247756,None,0,132,132,132,430.9891379000619,,,,,,,432.4832348000491,431.9833248000359,431.98958739999216,431.98958739999216,432.4832348000491,432.4832348000491,432.477107899962,433.7072292000521,433.7072292000521,433.7072292000521,z,0.49836049997247756,None,,,,,,,,PM_en,001,2025-03-07_11h58.25.351,MainFlow,2024.2.4,129.8893603076909,2025-03-07 11h58.36.239689 +0700,
2,63,0,word/worden0631.png,image/False/imgf63.png,133,133,0,x,0.6532632999587804,None,0,133,133,133,434.21851080004126,,,,,,,435.7135356999934,435.214832299971,435.22092370002065,435.22092370002065,435.7135356999934,435.7135356999934,435.7070806999691,436.9487812999869,436.9487812999869,436.9487812999869,x,0.6532632999587804,None,,,,,,,,PM_en,001,2025-03-07_11h58.25.351,MainFlow,2024.2.4,129.8893603076909,2025-03-07 11h58.36.239689 +0700,
2,23,1,word/worden0231.png,image/True/img23.png,134,134,0,z,0.5292886999668553,None,0,134,134,134,437.612157800002,,,,,,,439.1069676000625,438.60785609995946,438.61388970003463,438.61388970003463,439.1069676000625,439.1069676000625,439.1006168000167,440.32072840002365,440.32072840002365,440.32072840002365,z,0.5292886999668553,None,,,,,,,,PM_en,001,2025-03-07_11h58.25.351,MainFlow,2024.2.4,129.8893603076909,2025-03-07 11h58.36.239689 +0700,
2,40,0,word/worden0401.png,image/False/imgf40.png,135,135,0,x,0.5433492000447586,None,0,135,135,135,440.8588614000473,,,,,,,442.3535903999582,441.85445179999806,441.8602761999937,441.8602761999937,442.3535903999582,442.3535903999582,442.34761419997085,443.56899469997734,443.56899469997734,443.56899469997734,x,0.5433492000447586,None,,,,,,,,PM_en,001,2025-03-07_11h58.25.351,MainFlow,2024.2.4,129.8893603076909,2025-03-07 11h58.36.239689 +0700,
2,52,1,word/worden0521.png,image/True/img52.png,136,136,0,z,0.5142450999701396,None,0,136,136,136,444.1193826000672,,,,,,,445.6160999999847,445.1173451000359,445.12343250005506,445.12343250005506,445.6160999999847,445.6160999999847,445.60990549996495,446.84019300004,446.84019300004,446.84019300004,z,0.5142450999701396,None,,,,,,,,PM_en,001,2025-03-07_11h58.25.351,MainFlow,2024.2.4,129.8893603076909,2025-03-07 11h58.36.239689 +0700,
2,30,1,word/worden0301.png,image/True/img30.png,137,137,0,z,1.2003236999735236,None,0,137,137,137,447.36485370004084,,,,,,,448.85891479998827,448.36003620002884,448.3656339000445,448.3656339000445,448.85891479998827,448.85891479998827,448.85324179998133,450.0373418000527,450.0373418000527,450.0373418000527,z,1.2003236999735236,None,,,,,,,,PM_en,001,2025-03-07_11h58.25.351,MainFlow,2024.2.4,129.8893603076909,2025-03-07 11h58.36.239689 +0700,
2,15,1,word/worden0151.png,image/True/img15.png,138,138,0,z,0.6582686000037938,None,0,138,138,138,451.2457459999714,,,,,,,452.7399698999943,452.2404189000372,452.2462825999828,452.2462825999828,452.7399698999943,452.7399698999943,452.7337925999891,453.9707814999856,453.9707814999856,453.9707814999856,z,0.6582686000037938,None,,,,,,,,PM_en,001,2025-03-07_11h58.25.351,MainFlow,2024.2.4,129.8893603076909,2025-03-07 11h58.36.239689 +0700,
2,46,1,word/worden0461.png,image/True/img46.png,139,139,0,z,0.7832667999900877,None,0,139,139,139,454.6368130999617,,,,,,,456.13135759998113,455.6316371000139,455.6377165999729,455.6377165999729,456.13135759998113,456.13135759998113,456.125050200033,457.37846030003857,457.37846030003857,457.37846030003857,z,0.7832667999900877,None,,,,,,,,PM_en,001,2025-03-07_11h58.25.351,MainFlow,2024.2.4,129.8893603076909,2025-03-07 11h58.36.239689 +0700,
2,14,1,word/worden0141.png,image/True/img14.png,140,140,0,z,0.4809758000774309,None,0,140,140,140,458.17310799995903,,,,,,,459.6724118000129,459.1728325999575,459.17902140005026,459.17902140005026,459.6724118000129,459.6724118000129,459.666082700016,,460.8679670999991,460.8679670999991,z,0.4809758000774309,None,,,,,,,,PM_en,001,2025-03-07_11h58.25.351,MainFlow,2024.2.4,129.8893603076909,2025-03-07 11h58.36.239689 +0700,
2,66,0,word/worden0661.png,image/False/imgf66.png,141,141,0,x,1.1082191000459716,None,0,141,141,141,461.35827940003946,,,,,,,462.8530451999977,462.353824299993,462.35948330000974,462.35948330000974,462.8530451999977,462.8530451999977,462.8467759999912,464.06845470005646,464.06845470005646,464.06845470005646,x,1.1082191000459716,None,,,,,,,,PM_en,001,2025-03-07_11h58.25.351,MainFlow,2024.2.4,129.8893603076909,2025-03-07 11h58.36.239689 +0700,
2,46,0,word/worden0461.png,image/False/imgf46.png,142,142,0,x,0.45650820003356785,None,0,142,142,142,465.1885321000591,,,,,,,466.68251519999467,466.18254139996134,466.1886387000559,466.1886387000559,466.68251519999467,466.68251519999467,466.67611260002013,467.9268819000572,467.9268819000572,467.9268819000572,x,0.45650820003356785,None,,,,,,,,PM_en,001,2025-03-07_11h58.25.351,MainFlow,2024.2.4,129.8893603076909,2025-03-07 11h58.36.239689 +0700,
2,18,1,word/worden0181.png,image/True/img18.png,143,143,0,z,0.5384083000244573,None,0,143,143,143,468.39036540000234,,,,,,,469.88447439996526,469.38480090000667,469.39052220003214,469.39052220003214,469.88447439996526,469.88447439996526,469.8781452999683,471.0578012999613,471.0578012999613,471.0578012999613,z,0.5384083000244573,None,,,,,,,,PM_en,001,2025-03-07_11h58.25.351,MainFlow,2024.2.4,129.8893603076909,2025-03-07 11h58.36.239689 +0700,
2,51,0,word/worden0511.png,image/False/imgf51.png,144,144,0,x,0.9866117000347003,None,0,144,144,144,471.6062450000318,,,,,,,473.1007776999613,472.60059759998694,472.60741369996686,472.60741369996686,473.1007776999613,473.1007776999613,473.0945379000623,474.27690870000515,474.27690870000515,474.27690870000515,x,0.9866117000347003,None,,,,,,,,PM_en,001,2025-03-07_11h58.25.351,MainFlow,2024.2.4,129.8893603076909,2025-03-07 11h58.36.239689 +0700,
2,76,1,word/worden0761.png,image/True/img76.png,145,145,0,z,0.7397668000776321,None,0,145,145,145,475.27595060004387,,,,,,,476.77047340001445,476.2706290000351,476.2766959000146,476.2766959000146,476.77047340001445,476.77047340001445,476.76420129998587,477.9665931999916,477.9665931999916,477.9665931999916,z,0.7397668000776321,None,,,,,,,,PM_en,001,2025-03-07_11h58.25.351,MainFlow,2024.2.4,129.8893603076909,2025-03-07 11h58.36.239689 +0700,
2,57,1,word/worden0571.png,image/True/img57.png,146,146,0,z,1.2779626999981701,None,0,146,146,146,478.715567599982,,,,,,,480.20957599999383,479.71035040006973,479.7161303999601,479.7161303999601,480.20957599999383,480.20957599999383,480.20386540004984,481.410604899982,481.410604899982,481.410604899982,z,1.2779626999981701,None,,,,,,,,PM_en,001,2025-03-07_11h58.25.351,MainFlow,2024.2.4,129.8893603076909,2025-03-07 11h58.36.239689 +0700,
2,48,0,word/worden0481.png,image/False/imgf48.png,147,147,0,x,0.3348439000546932,None,0,147,147,147,482.7013050999958,,,,,,,484.19513849995565,483.69535629998427,483.7011258000275,483.7011258000275,484.19513849995565,484.19513849995565,484.18891050003003,485.43091680004727,485.43091680004727,485.43091680004727,x,0.3348439000546932,None,,,,,,,,PM_en,001,2025-03-07_11h58.25.351,MainFlow,2024.2.4,129.8893603076909,2025-03-07 11h58.36.239689 +0700,
2,37,0,word/worden0371.png,image/False/imgf37.png,148,148,0,x,0.6713009999366477,None,0,148,148,148,485.7741054999642,,,,,,,487.26890859997366,486.76965040003415,486.7752529999707,486.7752529999707,487.26890859997366,487.26890859997366,487.26236459997017,488.5172407999635,488.5172407999635,488.5172407999635,x,0.6713009999366477,None,,,,,,,,PM_en,001,2025-03-07_11h58.25.351,MainFlow,2024.2.4,129.8893603076909,2025-03-07 11h58.36.239689 +0700,
2,60,0,word/worden0601.png,image/False/imgf60.png,149,149,0,x,0.6376617000205442,None,0,149,149,149,489.19927550002467,,,,,,,490.6934950000141,490.19408240006305,490.1996896000346,490.1996896000346,490.6934950000141,490.6934950000141,490.68730430002324,491.89698820002377,491.89698820002377,491.89698820002377,x,0.6376617000205442,None,,,,,,,,PM_en,001,2025-03-07_11h58.25.351,MainFlow,2024.2.4,129.8893603076909,2025-03-07 11h58.36.239689 +0700,
2,24,1,word/worden0241.png,image/True/img24.png,150,150,0,z,0.7786280999425799,None,0,150,150,150,492.5456638999749,,,,,,,494.0399805000052,493.5403718999587,493.5463954999577,493.5463954999577,494.0399805000052,494.0399805000052,494.03374630003236,495.1836583999684,495.1836583999684,495.1836583999684,z,0.7786280999425799,None,,,,,,,,PM_en,001,2025-03-07_11h58.25.351,MainFlow,2024.2.4,129.8893603076909,2025-03-07 11h58.36.239689 +0700,
2,40,1,word/worden0401.png,image/True/img40.png,151,151,0,z,0.4007743999827653,None,0,151,151,151,495.97451249998994,,,,,,,497.4683886000421,496.9684369000606,496.9745962000452,496.9745962000452,497.4683886000421,497.4683886000421,497.46201809996273,498.7185463999631,498.7185463999631,498.7185463999631,z,0.4007743999827653,None,,,,,,,,PM_en,001,2025-03-07_11h58.25.351,MainFlow,2024.2.4,129.8893603076909,2025-03-07 11h58.36.239689 +0700,
2,54,1,word/worden0541.png,image/True/img54.png,152,152,0,z,0.6396145999897271,None,0,152,152,152,499.1282416000031,,,,,,,500.6223297000397,500.1234446000308,500.1291300000157,500.1291300000157,500.6223297000397,500.6223297000397,500.61638330004644,501.8668592000613,501.8668592000613,501.8668592000613,z,0.6396145999897271,None,,,,,,,,PM_en,001,2025-03-07_11h58.25.351,MainFlow,2024.2.4,129.8893603076909,2025-03-07 11h58.36.239689 +0700,
2,44,0,word/worden0441.png,image/False/imgf44.png,153,153,0,x,0.9121890999376774,None,0,153,153,153,502.519220200018,,,,,,,504.0136548000155,503.5140637999866,503.5197805999778,503.5197805999778,504.0136548000155,504.0136548000155,504.00750399997924,505.24247559998184,505.24247559998184,505.24247559998184,x,0.9121890999376774,None,,,,,,,,PM_en,001,2025-03-07_11h58.25.351,MainFlow,2024.2.4,129.8893603076909,2025-03-07 11h58.36.239689 +0700,
2,79,1,word/worden0791.png,image/True/img79.png,154,154,0,z,0.44388869998510927,None,0,154,154,154,506.1661505000666,,,,,,,507.6607801000355,507.16097059997264,507.1671612999635,507.1671612999635,507.6607801000355,507.6607801000355,507.6543021000689,508.88815819995943,508.88815819995943,508.88815819995943,z,0.44388869998510927,None,,,,,,,,PM_en,001,2025-03-07_11h58.25.351,MainFlow,2024.2.4,129.8893603076909,2025-03-07 11h58.36.239689 +0700,
2,95,1,word/worden0951.png,image/True/img95.png,155,155,0,z,0.7529003999661654,None,0,155,155,155,509.34018619998824,,,,,,,510.8334987000562,510.3342058999697,510.339694699971,510.339694699971,510.8334987000562,510.8334987000562,510.8278886000626,512.0705535999732,512.0705535999732,512.0705535999732,z,0.7529003999661654,None,,,,,,,,PM_en,001,2025-03-07_11h58.25.351,MainFlow,2024.2.4,129.8893603076909,2025-03-07 11h58.36.239689 +0700,
2,37,1,word/worden0371.png,image/True/img37.png,156,156,0,z,0.5618648999370635,None,0,156,156,156,512.8302149999654,,,,,,,514.3235215999885,513.8239202999976,513.8296595000429,513.8296595000429,514.3235215999885,514.3235215999885,514.3177336000372,515.5651271999814,515.5651271999814,515.5651271999814,z,0.5618648999370635,None,,,,,,,,PM_en,001,2025-03-07_11h58.25.351,MainFlow,2024.2.4,129.8893603076909,2025-03-07 11h58.36.239689 +0700,
2,70,1,word/worden0701.png,image/True/img70.png,157,157,0,z,0.8311370000010356,None,0,157,157,157,516.1339928000234,,,,,,,517.6283107000636,517.1289953000378,517.1347744000377,517.1347744000377,517.6283107000636,517.6283107000636,517.6220221000258,518.8319456999889,518.8319456999889,518.8319456999889,z,0.8311370000010356,None,,,,,,,,PM_en,001,2025-03-07_11h58.25.351,MainFlow,2024.2.4,129.8893603076909,2025-03-07 11h58.36.239689 +0700,
2,40,1,word/worden0401.png,image/True/img40.png,158,158,0,z,0.6022203000029549,None,0,158,158,158,519.6749800000107,,,,,,,521.1691004000604,520.6696744000074,520.675349600031,520.675349600031,521.1691004000604,521.1691004000604,521.1628594000358,522.4179425999755,522.4179425999755,522.4179425999755,z,0.6022203000029549,None,,,,,,,,PM_en,001,2025-03-07_11h58.25.351,MainFlow,2024.2.4,129.8893603076909,2025-03-07 11h58.36.239689 +0700,
2,30,0,word/worden0301.png,image/False/imgf30.png,159,159,0,x,0.7830676001030952,None,0,159,159,159,523.0302771000424,,,,,,,524.5245304000564,524.0249533000169,524.0310167999705,524.0310167999705,524.5245304000564,524.5245304000564,524.5182310000528,525.7042032000609,525.7042032000609,525.7042032000609,x,0.7830676001030952,None,,,,,,,,PM_en,001,2025-03-07_11h58.25.351,MainFlow,2024.2.4,129.8893603076909,2025-03-07 11h58.36.239689 +0700,
2,88,1,word/worden0881.png,image/True/img88.png,160,160,0,z,0.4359744999092072,None,0,160,160,160,526.4938872000203,,,,,,,527.9880521000596,527.488253199961,527.4942126000533,527.4942126000533,527.9880521000596,527.9880521000596,527.9817113999743,529.2126184999943,529.2126184999943,529.2126184999943,z,0.4359744999092072,None,,,,,,,,PM_en,001,2025-03-07_11h58.25.351,MainFlow,2024.2.4,129.8893603076909,2025-03-07 11h58.36.239689 +0700,
2,15,1,word/worden0151.png,image/True/img15.png,161,161,0,z,0.43862059991806746,None,0,161,161,161,529.6604623000603,,,,,,,531.154594099964,530.6551226000302,530.6610423000529,530.6610423000529,531.154594099964,531.154594099964,531.1485272999853,532.3970803000266,532.3970803000266,532.3970803000266,z,0.43862059991806746,None,,,,,,,,PM_en,001,2025-03-07_11h58.25.351,MainFlow,2024.2.4,129.8893603076909,2025-03-07 11h58.36.239689 +0700,
2,54,1,word/worden0541.png,image/True/img54.png,162,162,0,z,0.3659911999711767,None,0,162,162,162,532.8483831000049,,,,,,,534.3423884999938,533.8429411000106,533.84861310001,533.84861310001,534.3423884999938,534.3423884999938,534.3360282999929,535.5824086000212,535.5824086000212,535.5824086000212,z,0.3659911999711767,None,,,,,,,,PM_en,001,2025-03-07_11h58.25.351,MainFlow,2024.2.4,129.8893603076909,2025-03-07 11h58.36.239689 +0700,
2,11,0,word/worden0111.png,image/False/imgf11.png,163,163,0,x,0.5308151999488473,None,0,163,163,163,535.9571885999758,,,,,,,537.45127770002,536.9519087000517,536.9579307000386,536.9579307000386,537.45127770002,537.45127770002,537.4450361999916,538.6844959000591,538.6844959000591,538.6844959000591,x,0.5308151999488473,None,,,,,,,,PM_en,001,2025-03-07_11h58.25.351,MainFlow,2024.2.4,129.8893603076909,2025-03-07 11h58.36.239689 +0700,
2,16,1,word/worden0161.png,image/True/img16.png,164,164,0,z,0.6952134999446571,None,0,164,164,164,539.2217848000582,,,,,,,540.7163299999665,540.2167035000166,540.2229605000466,540.2229605000466,540.7163299999665,540.7163299999665,540.7101329000434,541.9520346999634,541.9520346999634,541.9520346999634,z,0.6952134999446571,None,,,,,,,,PM_en,001,2025-03-07_11h58.25.351,MainFlow,2024.2.4,129.8893603076909,2025-03-07 11h58.36.239689 +0700,
2,1,1,word/worden0011.png,image/True/img01.png,165,165,0,z,0.573837999952957,None,0,165,165,165,542.656819100026,,,,,,,544.1505952000152,543.6514396000421,543.6571973999962,543.6571973999962,544.1505952000152,544.1505952000152,544.1454477000516,545.3650417999597,545.3650417999597,545.3650417999597,z,0.573837999952957,None,,,,,,,,PM_en,001,2025-03-07_11h58.25.351,MainFlow,2024.2.4,129.8893603076909,2025-03-07 11h58.36.239689 +0700,
2,22,0,word/worden0221.png,image/False/imgf22.png,166,166,0,x,0.6220316999824718,None,0,166,166,166,545.9514975000639,,,,,,,547.4455071999691,546.9458521000342,546.951648300048,546.951648300048,547.4455071999691,547.4455071999691,547.4389684000053,548.6631840000628,548.6631840000628,548.6631840000628,x,0.6220316999824718,None,,,,,,,,PM_en,001,2025-03-07_11h58.25.351,MainFlow,2024.2.4,129.8893603076909,2025-03-07 11h58.36.239689 +0700,
2,63,1,word/worden0631.png,image/True/img63.png,167,167,0,z,0.35402830003295094,None,0,167,167,167,549.2950020000571,,,,,,,550.7894286999945,550.2896063000662,550.2961994999787,550.2961994999787,550.7894286999945,550.7894286999945,550.7831992000574,551.9893840999575,551.9893840999575,551.9893840999575,z,0.35402830003295094,None,,,,,,,,PM_en,001,2025-03-07_11h58.25.351,MainFlow,2024.2.4,129.8893603076909,2025-03-07 11h58.36.239689 +0700,
2,87,1,word/worden0871.png,image/True/img87.png,168,168,0,z,0.40853049990255386,None,0,168,168,168,552.3566115000285,,,,,,,553.8512296000263,553.3522407000419,553.3577443000395,553.3577443000395,553.8512296000263,553.8512296000263,553.8449598000152,555.06678870006,555.06678870006,555.06678870006,z,0.40853049990255386,None,,,,,,,,PM_en,001,2025-03-07_11h58.25.351,MainFlow,2024.2.4,129.8893603076909,2025-03-07 11h58.36.239689 +0700,
2,57,0,word/worden0571.png,image/False/imgf57.png,169,169,0,x,0.6611831999616697,None,0,169,169,169,555.4850578999612,,,,,,,556.9797365000704,556.4805066999979,556.4869184000418,556.4869184000418,556.9797365000704,556.9797365000704,556.9738431000151,558.1955108999973,558.1955108999973,558.1955108999973,x,0.6611831999616697,None,,,,,,,,PM_en,001,2025-03-07_11h58.25.351,MainFlow,2024.2.4,129.8893603076909,2025-03-07 11h58.36.239689 +0700,
2,94,0,word/worden0941.png,image/False/imgf94.png,170,170,0,x,0.8880383000941947,None,0,170,170,170,558.8640148000559,,,,,,,560.3632041000528,559.8637473999988,559.8698708000593,559.8698708000593,560.3632041000528,560.3632041000528,560.3568170999642,,561.5903904000297,561.5903904000297,x,0.8880383000941947,None,,,,,,,,PM_en,001,2025-03-07_11h58.25.351,MainFlow,2024.2.4,129.8893603076909,2025-03-07 11h58.36.239689 +0700,
2,93,0,word/worden0931.png,image/False/imgf93.png,171,171,0,x,0.5465664000948891,None,0,171,171,171,562.4908842999721,,,,,,,563.9847147000255,563.485162200057,563.4906674000667,563.4906674000667,563.9847147000255,563.9847147000255,563.9787178999977,565.1492956000147,565.1492956000147,565.1492956000147,x,0.5465664000948891,None,,,,,,,,PM_en,001,2025-03-07_11h58.25.351,MainFlow,2024.2.4,129.8893603076909,2025-03-07 11h58.36.239689 +0700,
2,61,1,word/worden0611.png,image/True/img61.png,172,172,0,z,0.3705163999693468,None,0,172,172,172,565.7042650000658,,,,,,,567.1991706000408,566.7001157000195,566.7060787000228,566.7060787000228,567.1991706000408,567.1991706000408,567.192855100031,568.4122237999691,568.4122237999691,568.4122237999691,z,0.3705163999693468,None,,,,,,,,PM_en,001,2025-03-07_11h58.25.351,MainFlow,2024.2.4,129.8893603076909,2025-03-07 11h58.36.239689 +0700,
2,28,1,word/worden0281.png,image/True/img28.png,173,173,0,z,0.5489337000763044,None,0,173,173,173,568.7919678000035,,,,,,,570.2867889000336,569.7876354999607,569.7937422000105,569.7937422000105,570.2867889000336,570.2867889000336,570.2805423999671,571.5112226000056,571.5112226000056,571.5112226000056,z,0.5489337000763044,None,,,,,,,,PM_en,001,2025-03-07_11h58.25.351,MainFlow,2024.2.4,129.8893603076909,2025-03-07 11h58.36.239689 +0700,
2,46,1,word/worden0461.png,image/True/img46.png,174,174,0,z,0.4789115999592468,None,0,174,174,174,572.0703650000505,,,,,,,573.5643737000646,573.065076500061,573.0713533000089,573.0713533000089,573.5643737000646,573.5643737000646,573.5587413000176,574.797851499985,574.797851499985,574.797851499985,z,0.4789115999592468,None,,,,,,,,PM_en,001,2025-03-07_11h58.25.351,MainFlow,2024.2.4,129.8893603076909,2025-03-07 11h58.36.239689 +0700,
2,22,1,word/worden0221.png,image/True/img22.png,175,175,0,z,1.2567273000022396,None,0,175,175,175,575.2864823000273,,,,,,,576.7802169000497,576.2802996999817,576.2858534000115,576.2858534000115,576.7802169000497,576.7802169000497,576.7740220000269,578.0167619000422,578.0167619000422,578.0167619000422,z,1.2567273000022396,None,,,,,,,,PM_en,001,2025-03-07_11h58.25.351,MainFlow,2024.2.4,129.8893603076909,2025-03-07 11h58.36.239689 +0700,
2,93,1,word/worden0931.png,image/True/img93.png,176,176,0,z,0.840219400008209,None,0,176,176,176,579.2828863000032,,,,,,,580.776711500017,580.2768354000291,580.2822922000196,580.2822922000196,580.776711500017,580.776711500017,580.770481399959,581.9506472999929,581.9506472999929,581.9506472999929,z,0.840219400008209,None,,,,,,,,PM_en,001,2025-03-07_11h58.25.351,MainFlow,2024.2.4,129.8893603076909,2025-03-07 11h58.36.239689 +0700,
2,95,1,word/worden0951.png,image/True/img95.png,177,177,0,z,0.4290933000156656,None,0,177,177,177,582.7973564000567,,,,,,,584.2917439000448,583.7913802000694,583.7982905000681,583.7982905000681,584.2917439000448,584.2917439000448,584.2854391000001,585.5236632999731,585.5236632999731,585.5236632999731,z,0.4290933000156656,None,,,,,,,,PM_en,001,2025-03-07_11h58.25.351,MainFlow,2024.2.4,129.8893603076909,2025-03-07 11h58.36.239689 +0700,
2,17,0,word/worden0171.png,image/False/imgf17.png,178,178,0,x,0.5267954999580979,None,0,178,178,178,585.9600318999728,,,,,,,587.4545737999724,586.955333000049,586.961253699963,586.961253699963,587.4545737999724,587.4545737999724,587.4482752999756,588.6679394000676,588.6679394000676,588.6679394000676,x,0.5267954999580979,None,,,,,,,,PM_en,001,2025-03-07_11h58.25.351,MainFlow,2024.2.4,129.8893603076909,2025-03-07 11h58.36.239689 +0700,
2,26,1,word/worden0261.png,image/True/img26.png,179,179,0,z,0.5607568999985233,None,0,179,179,179,589.2062728999881,,,,,,,590.7009052999783,590.2008855000604,590.2072469000705,590.2072469000705,590.7009052999783,590.7009052999783,590.6945424999576,591.9404123000568,591.9404123000568,591.9404123000568,z,0.5607568999985233,None,,,,,,,,PM_en,001,2025-03-07_11h58.25.351,MainFlow,2024.2.4,129.8893603076909,2025-03-07 11h58.36.239689 +0700,
2,27,1,word/worden0271.png,image/True/img27.png,180,180,0,z,0.8183049999643117,None,0,180,180,180,592.5100608000066,,,,,,,594.0042347999988,593.504182200064,593.5103840000229,593.5103840000229,594.0042347999988,594.0042347999988,593.9978951000376,595.1855554999784,595.1855554999784,595.1855554999784,z,0.8183049999643117,None,,,,,,,,PM_en,001,2025-03-07_11h58.25.351,MainFlow,2024.2.4,129.8893603076909,2025-03-07 11h58.36.239689 +0700,
2,31,1,word/worden0311.png,image/True/img31.png,181,181,0,z,0.455994600080885,None,0,181,181,181,596.0144591999706,,,,,,,597.5088241000194,597.009032699978,597.0151289000642,597.0151289000642,597.5088241000194,597.5088241000194,597.5025773000671,598.6998280000407,598.6998280000407,598.6998280000407,z,0.455994600080885,None,,,,,,,,PM_en,001,2025-03-07_11h58.25.351,MainFlow,2024.2.4,129.8893603076909,2025-03-07 11h58.36.239689 +0700,
2,33,0,word/worden0331.png,image/False/imgf33.png,182,182,0,z,0.4806852999608964,None,0,182,182,182,599.1626473000506,,,,,,,600.6572608000133,600.1578497999581,600.1639569000108,600.1639569000108,600.6572608000133,600.6572608000133,600.6508618000662,601.8671769000357,601.8671769000357,601.8671769000357,z,0.4806852999608964,None,,,,,,,,PM_en,001,2025-03-07_11h58.25.351,MainFlow,2024.2.4,129.8893603076909,2025-03-07 11h58.36.239689 +0700,
2,59,1,word/worden0591.png,image/True/img59.png,183,183,0,z,0.2971333999885246,None,0,183,183,183,602.3589746999787,,,,,,,603.8532395999646,603.3533091000281,603.3595078999642,603.3595078999642,603.8532395999646,603.8532395999646,603.8469321000157,605.0130167000461,605.0130167000461,605.0130167000461,z,0.2971333999885246,None,,,,,,,,PM_en,001,2025-03-07_11h58.25.351,MainFlow,2024.2.4,129.8893603076909,2025-03-07 11h58.36.239689 +0700,
2,8,1,word/worden0081.png,image/True/img08.png,184,184,0,z,0.5168220000341535,None,0,184,184,184,605.3209727000212,,,,,,,606.8150057999883,606.3158275999594,606.3219779999927,606.3219779999927,606.8150057999883,606.8150057999883,606.8093366000103,607.9807241000235,607.9807241000235,607.9807241000235,z,0.5168220000341535,None,,,,,,,,PM_en,001,2025-03-07_11h58.25.351,MainFlow,2024.2.4,129.8893603076909,2025-03-07 11h58.36.239689 +0700,
2,63,0,word/worden0631.png,image/False/imgf63.png,185,185,0,x,0.6018271000357345,None,0,185,185,185,608.5079853000352,,,,,,,610.0020127999596,609.5023078999948,609.5078424999956,609.5078424999956,610.0020127999596,610.0020127999596,609.9957979000174,611.2342031999724,611.2342031999724,611.2342031999724,x,0.6018271000357345,None,,,,,,,,PM_en,001,2025-03-07_11h58.25.351,MainFlow,2024.2.4,129.8893603076909,2025-03-07 11h58.36.239689 +0700,
2,30,0,word/worden0301.png,image/False/imgf30.png,186,186,0,x,0.8232780999969691,None,0,186,186,186,611.8443762999959,,,,,,,613.33838500001,612.8392636000644,612.8454232000513,612.8454232000513,613.33838500001,613.33838500001,613.3328456999734,614.5231915999902,614.5231915999902,614.5231915999902,x,0.8232780999969691,None,,,,,,,,PM_en,001,2025-03-07_11h58.25.351,MainFlow,2024.2.4,129.8893603076909,2025-03-07 11h58.36.239689 +0700,
2,15,0,word/worden0151.png,image/False/imgf15.png,187,187,0,x,0.4052430000156164,None,0,187,187,187,615.356242800015,,,,,,,616.8508256999776,616.3512455000309,616.3571358000627,616.3571358000627,616.8508256999776,616.8508256999776,616.8445448999992,618.0430175999645,618.0430175999645,618.0430175999645,x,0.4052430000156164,None,,,,,,,,PM_en,001,2025-03-07_11h58.25.351,MainFlow,2024.2.4,129.8893603076909,2025-03-07 11h58.36.239689 +0700,
2,71,0,word/worden0711.png,image/False/imgf71.png,188,188,0,x,0.4941343000391498,None,0,188,188,188,618.4559091000119,,,,,,,619.9501671000617,619.4500475999666,619.4563088000286,619.4563088000286,619.9501671000617,619.9501671000617,619.9437652999768,621.1812549000606,621.1812549000606,621.1812549000606,x,0.4941343000391498,None,,,,,,,,PM_en,001,2025-03-07_11h58.25.351,MainFlow,2024.2.4,129.8893603076909,2025-03-07 11h58.36.239689 +0700,
2,10,0,word/worden0101.png,image/False/imgf10.png,189,189,0,x,0.6878410999197513,None,0,189,189,189,621.6878288000589,,,,,,,623.1823568000691,622.6834718000609,622.6897860000608,622.6897860000608,623.1823568000691,623.1823568000691,623.1768694999628,624.3809521000367,624.3809521000367,624.3809521000367,x,0.6878410999197513,None,,,,,,,,PM_en,001,2025-03-07_11h58.25.351,MainFlow,2024.2.4,129.8893603076909,2025-03-07 11h58.36.239689 +0700,
2,54,0,word/worden0541.png,image/False/imgf54.png,190,190,0,x,0.9013464000308886,None,0,190,190,190,625.0813536000205,,,,,,,626.5758825000376,626.0763143000659,626.0826103000436,626.0826103000436,626.5758825000376,626.5758825000376,626.5696296000388,627.7686177999713,627.7686177999713,627.7686177999713,x,0.9013464000308886,None,,,,,,,,PM_en,001,2025-03-07_11h58.25.351,MainFlow,2024.2.4,129.8893603076909,2025-03-07 11h58.36.239689 +0700,
2,60,0,word/worden0601.png,image/False/imgf60.png,191,191,0,x,0.4342161000240594,None,0,191,191,191,628.681184999994,,,,,,,630.1755728999851,629.6759084999794,629.6818382999627,629.6818382999627,630.1755728999851,630.1755728999851,630.1694286999991,631.3844828000292,631.3844828000292,631.3844828000292,x,0.4342161000240594,None,,,,,,,,PM_en,001,2025-03-07_11h58.25.351,MainFlow,2024.2.4,129.8893603076909,2025-03-07 11h58.36.239689 +0700,
2,16,0,word/worden0161.png,image/False/imgf16.png,192,192,0,x,0.7158707999624312,None,0,192,192,192,631.8278451999649,,,,,,,633.3219526000321,632.8223860999569,632.8282261999557,632.8282261999557,633.3219526000321,633.3219526000321,633.3155815000646,634.5380069999956,634.5380069999956,634.5380069999956,x,0.7158707999624312,None,,,,,,,,PM_en,001,2025-03-07_11h58.25.351,MainFlow,2024.2.4,129.8893603076909,2025-03-07 11h58.36.239689 +0700,
2,50,1,word/worden0501.png,image/True/img50.png,193,193,0,z,0.29021720006130636,None,0,193,193,193,635.2614816999994,,,,,,,636.7560200999724,636.2565535999602,636.2626271999907,636.2626271999907,636.7560200999724,636.7560200999724,636.7497610000428,637.9604733999586,637.9604733999586,637.9604733999586,z,0.29021720006130636,None,,,,,,,,PM_en,001,2025-03-07_11h58.25.351,MainFlow,2024.2.4,129.8893603076909,2025-03-07 11h58.36.239689 +0700,
2,63,1,word/worden0631.png,image/True/img63.png,194,194,0,z,0.48159659991506487,None,0,194,194,194,638.2612208999926,,,,,,,639.7568144999677,639.2582765000407,639.2638644999824,639.2638644999824,639.7568144999677,639.7568144999677,639.7502863999689,640.9620013000676,640.9620013000676,640.9620013000676,z,0.48159659991506487,None,,,,,,,,PM_en,001,2025-03-07_11h58.25.351,MainFlow,2024.2.4,129.8893603076909,2025-03-07 11h58.36.239689 +0700,
2,24,0,word/worden0241.png,image/False/imgf24.png,195,195,0,x,0.5242177000036463,None,0,195,195,195,641.4561425000429,,,,,,,642.9502969000023,642.4503979999572,642.4565842000302,642.4565842000302,642.9502969000023,642.9502969000023,642.9440341000445,644.1418875000672,644.1418875000672,644.1418875000672,x,0.5242177000036463,None,,,,,,,,PM_en,001,2025-03-07_11h58.25.351,MainFlow,2024.2.4,129.8893603076909,2025-03-07 11h58.36.239689 +0700,
2,89,0,word/worden0891.png,image/False/imgf89.png,196,196,0,x,0.8375673999544233,None,0,196,196,196,644.6736244000494,,,,,,,646.168142199982,645.6687224999769,645.674495000043,645.674495000043,646.168142199982,646.168142199982,646.1618660000386,647.3742436000612,647.3742436000612,647.3742436000612,x,0.8375673999544233,None,,,,,,,,PM_en,001,2025-03-07_11h58.25.351,MainFlow,2024.2.4,129.8893603076909,2025-03-07 11h58.36.239689 +0700,
2,6,0,word/worden0061.png,image/False/imgf06.png,197,197,0,x,0.3023575999541208,None,0,197,197,197,648.2217412999598,,,,,,,649.7159607000649,649.2161138000665,649.2223418999929,649.2223418999929,649.7159607000649,649.7159607000649,649.7095324000111,650.9020854000701,650.9020854000701,650.9020854000701,x,0.3023575999541208,None,,,,,,,,PM_en,001,2025-03-07_11h58.25.351,MainFlow,2024.2.4,129.8893603076909,2025-03-07 11h58.36.239689 +0700,
2,41,0,word/worden0411.png,image/False/imgf41.png,198,198,0,x,0.46022819995414466,None,0,198,198,198,651.2136904000072,,,,,,,652.7075022000354,652.2075855999719,652.2130345000187,652.2130345000187,652.7075022000354,652.7075022000354,652.7013004999608,653.8663562999573,653.8663562999573,653.8663562999573,x,0.46022819995414466,None,,,,,,,,PM_en,001,2025-03-07_11h58.25.351,MainFlow,2024.2.4,129.8893603076909,2025-03-07 11h58.36.239689 +0700,
2,79,0,word/worden0791.png,image/False/imgf79.png,199,199,0,x,0.3755379000212997,None,0,199,199,199,654.3350949999876,,,,,,,655.8296641999623,655.3301343000494,655.3357100000139,655.3357100000139,655.8296641999623,655.8296641999623,655.8233119000215,657.0536869000643,657.0536869000643,657.0536869000643,x,0.3755379000212997,None,,,,,,,,PM_en,001,2025-03-07_11h58.25.351,MainFlow,2024.2.4,129.8893603076909,2025-03-07 11h58.36.239689 +0700,
2,70,1,word/worden0701.png,image/True/img70.png,200,200,0,z,0.3837282999884337,None,0,200,200,200,657.4395472999895,,,,,,,658.9335322000552,658.4338859000709,658.4394995999755,658.4394995999755,658.9335322000552,658.9335322000552,658.927324200049,660.1526129000122,660.1526129000122,660.1526129000122,z,0.3837282999884337,None,,,,,,,,PM_en,001,2025-03-07_11h58.25.351,MainFlow,2024.2.4,129.8893603076909,2025-03-07 11h58.36.239689 +0700,
2,31,1,word/worden0311.png,image/True/img31.png,201,201,0,z,0.31502809992525727,None,0,201,201,201,660.5480859000236,,,,,,,662.0419290000573,661.5423396000406,661.5480362999951,661.5480362999951,662.0419290000573,662.0419290000573,662.0355636000168,663.2389077000553,663.2389077000553,663.2389077000553,z,0.31502809992525727,None,,,,,,,,PM_en,001,2025-03-07_11h58.25.351,MainFlow,2024.2.4,129.8893603076909,2025-03-07 11h58.36.239689 +0700,
2,9,1,word/worden0091.png,image/True/img09.png,202,202,0,z,0.3687938000075519,None,0,202,202,202,663.5643788999878,,,,,,,665.0585837999824,664.5591121000471,664.565520000062,664.565520000062,665.0585837999824,665.0585837999824,665.0526765000541,666.2078123000683,666.2078123000683,666.2078123000683,z,0.3687938000075519,None,,,,,,,,PM_en,001,2025-03-07_11h58.25.351,MainFlow,2024.2.4,129.8893603076909,2025-03-07 11h58.36.239689 +0700,
2,27,1,word/worden0271.png,image/True/img27.png,203,203,0,z,0.7505229999078438,None,0,203,203,203,666.5856977000367,,,,,,,668.0800299000693,667.5805293000303,667.5865254000528,667.5865254000528,668.0800299000693,668.0800299000693,668.073645299999,669.2789171000477,669.2789171000477,669.2789171000477,z,0.7505229999078438,None,,,,,,,,PM_en,001,2025-03-07_11h58.25.351,MainFlow,2024.2.4,129.8893603076909,2025-03-07 11h58.36.239689 +0700,
2,75,0,word/worden0751.png,image/False/imgf75.png,204,204,0,x,0.5646422000136226,None,0,204,204,204,670.0420045000501,,,,,,,671.5366158999968,671.0367435000371,671.0428905000445,671.0428905000445,671.5366158999968,671.5366158999968,671.5301348000066,672.7310228999704,672.7310228999704,672.7310228999704,x,0.5646422000136226,None,,,,,,,,PM_en,001,2025-03-07_11h58.25.351,MainFlow,2024.2.4,129.8893603076909,2025-03-07 11h58.36.239689 +0700,
2,87,0,word/worden0871.png,image/False/imgf87.png,205,205,0,x,0.33249509998131543,None,0,205,205,205,673.3082698000362,,,,,,,674.8021184999961,674.3024808999617,674.3081325000385,674.3081325000385,674.8021184999961,674.8021184999961,674.7956949999789,675.9951197999762,675.9951197999762,675.9951197999762,x,0.33249509998131543,None,,,,,,,,PM_en,001,2025-03-07_11h58.25.351,MainFlow,2024.2.4,129.8893603076909,2025-03-07 11h58.36.239689 +0700,
2,8,0,word/worden0081.png,image/False/imgf08.png,206,206,0,x,0.49739389994647354,None,0,206,206,206,676.3379281000234,,,,,,,677.8319682000438,677.3323921000119,677.3381218999857,677.3381218999857,677.8319682000438,677.8319682000438,677.8256245000521,679.0079973000102,679.0079973000102,679.0079973000102,x,0.49739389994647354,None,,,,,,,,PM_en,001,2025-03-07_11h58.25.351,MainFlow,2024.2.4,129.8893603076909,2025-03-07 11h58.36.239689 +0700,
2,24,1,word/worden0241.png,image/True/img24.png,207,207,0,z,0.5824842000147328,None,0,207,207,207,679.5142119000666,,,,,,,681.0087475000182,680.5092331999913,680.5153040000005,680.5153040000005,681.0087475000182,681.0087475000182,681.0025138000492,682.1653502000263,682.1653502000263,682.1653502000263,z,0.5824842000147328,None,,,,,,,,PM_en,001,2025-03-07_11h58.25.351,MainFlow,2024.2.4,129.8893603076909,2025-03-07 11h58.36.239689 +0700,
2,14,1,word/worden0141.png,image/True/img14.png,208,208,0,z,0.39888629992492497,None,0,208,208,208,682.7543465000344,,,,,,,684.2491140000056,683.7499823999824,683.7559543000534,683.7559543000534,684.2491140000056,684.2491140000056,684.2428420999786,685.4618733000243,685.4618733000243,685.4618733000243,z,0.39888629992492497,None,,,,,,,,PM_en,001,2025-03-07_11h58.25.351,MainFlow,2024.2.4,129.8893603076909,2025-03-07 11h58.36.239689 +0700,
2,87,1,word/worden0871.png,image/True/img87.png,209,209,0,z,0.3245522999204695,None,0,209,209,209,685.8689360000426,,,,,,,687.3632265999913,686.8633782999823,686.8696567000588,686.8696567000588,687.3632265999913,687.3632265999913,687.3572215000167,688.6032262999797,688.6032262999797,688.6032262999797,z,0.3245522999204695,None,,,,,,,,PM_en,001,2025-03-07_11h58.25.351,MainFlow,2024.2.4,129.8893603076909,2025-03-07 11h58.36.239689 +0700,
2,42,0,word/worden0421.png,image/False/imgf42.png,210,210,0,x,0.5174721999792382,None,0,210,210,210,688.9359185000649,,,,,,,690.4307511000661,689.9310620999895,689.9374454000499,689.9374454000499,690.4307511000661,690.4307511000661,690.4245434000622,691.6781437000027,691.6781437000027,691.6781437000027,x,0.5174721999792382,None,,,,,,,,PM_en,001,2025-03-07_11h58.25.351,MainFlow,2024.2.4,129.8893603076909,2025-03-07 11h58.36.239689 +0700,
2,48,0,word/worden0481.png,image/False/imgf48.png,211,211,0,x,0.46390950004570186,None,0,211,211,211,692.2084756999975,,,,,,,693.7062828000635,693.2077470000368,693.2136434999993,693.2136434999993,693.7062828000635,693.7062828000635,693.7002109000459,,695.0088957999833,695.0088957999833,x,0.46390950004570186,None,,,,,,,,PM_en,001,2025-03-07_11h58.25.351,MainFlow,2024.2.4,129.8893603076909,2025-03-07 11h58.36.239689 +0700,
2,56,0,word/worden0561.png,image/False/imgf56.png,212,212,0,x,0.4045196999795735,None,0,212,212,212,695.4803403000114,,,,,,,696.9760676999576,696.4774678000249,696.4837880000705,696.4837880000705,696.9760676999576,696.9760676999576,696.9700941999909,698.2400881999638,698.2400881999638,698.2400881999638,x,0.4045196999795735,None,,,,,,,,PM_en,001,2025-03-07_11h58.25.351,MainFlow,2024.2.4,129.8893603076909,2025-03-07 11h58.36.239689 +0700,
2,18,0,word/worden0181.png,image/False/imgf18.png,213,213,0,x,0.6153017999604344,None,0,213,213,213,698.6560319999699,,,,,,,700.1523983000079,699.653583999956,699.6593776000664,699.6593776000664,700.1523983000079,700.1523983000079,700.1454250999959,701.3483813999919,701.3483813999919,701.3483813999919,x,0.6153017999604344,None,,,,,,,,PM_en,001,2025-03-07_11h58.25.351,MainFlow,2024.2.4,129.8893603076909,2025-03-07 11h58.36.239689 +0700,
2,18,0,word/worden0181.png,image/False/imgf18.png,214,214,0,x,0.43536490004044026,None,0,214,214,214,701.9724586000666,,,,,,,703.4671913000057,702.9681815999793,702.9742075999966,702.9742075999966,703.4671913000057,703.4671913000057,703.4608959000325,704.66418349999,704.66418349999,704.66418349999,x,0.43536490004044026,None,,,,,,,,PM_en,001,2025-03-07_11h58.25.351,MainFlow,2024.2.4,129.8893603076909,2025-03-07 11h58.36.239689 +0700,
2,9,0,word/worden0091.png,image/False/imgf09.png,215,215,0,x,0.5022594999754801,None,0,215,215,215,705.1077959999675,,,,,,,706.6020581000485,706.1024809000082,706.1081393000204,706.1081393000204,706.6020581000485,706.6020581000485,706.5956948000239,707.7691475000465,707.7691475000465,707.7691475000465,x,0.5022594999754801,None,,,,,,,,PM_en,001,2025-03-07_11h58.25.351,MainFlow,2024.2.4,129.8893603076909,2025-03-07 11h58.36.239689 +0700,
2,55,0,word/worden0551.png,image/False/imgf55.png,216,216,0,x,0.5748080000048503,None,0,216,216,216,708.2826172000496,,,,,,,709.776896800031,709.2769483999582,709.2829985000426,709.2829985000426,709.776896800031,709.776896800031,709.7706447000382,710.9899162000511,710.9899162000511,710.9899162000511,x,0.5748080000048503,None,,,,,,,,PM_en,001,2025-03-07_11h58.25.351,MainFlow,2024.2.4,129.8893603076909,2025-03-07 11h58.36.239689 +0700,
2,17,0,word/worden0171.png,image/False/imgf17.png,217,217,0,x,0.5979340999620035,None,0,217,217,217,711.5774125000462,,,,,,,713.0713309000712,712.5722360999789,712.5781948000658,712.5781948000658,713.0713309000712,713.0713309000712,713.0657438000198,714.3240723999916,714.3240723999916,714.3240723999916,x,0.5979340999620035,None,,,,,,,,PM_en,001,2025-03-07_11h58.25.351,MainFlow,2024.2.4,129.8893603076909,2025-03-07 11h58.36.239689 +0700,
2,50,1,word/worden0501.png,image/True/img50.png,218,218,0,z,0.5198994999518618,None,0,218,218,218,714.9343975000083,,,,,,,716.4318094999762,715.9328111000359,715.9385223999852,715.9385223999852,716.4318094999762,716.4318094999762,716.4262271999614,715.9385223999852,717.7094914000481,717.7094914000481,z,0.5198994999518618,None,,,,,,,,PM_en,001,2025-03-07_11h58.25.351,MainFlow,2024.2.4,129.8893603076909,2025-03-07 11h58.36.239689 +0700,
2,20,0,word/worden0201.png,image/False/imgf20.png,219,219,0,x,0.5964696999872103,None,0,219,219,219,718.2369549999712,,,,,,,719.7316316000652,719.2330965000438,719.2389143999899,719.2389143999899,719.7316316000652,719.7316316000652,719.7256042000372,721.0144267999567,721.0144267999567,721.0144267999567,x,0.5964696999872103,None,,,,,,,,PM_en,001,2025-03-07_11h58.25.351,MainFlow,2024.2.4,129.8893603076909,2025-03-07 11h58.36.239689 +0700,
2,36,0,word/worden0361.png,image/False/imgf36.png,220,220,0,x,0.4796122000552714,None,0,220,220,220,721.6183496000012,,,,,,,723.113170400029,722.6140673999907,722.6199688999914,722.6199688999914,723.113170400029,723.113170400029,723.1071147000184,724.3289309999673,724.3289309999673,724.3289309999673,x,0.4796122000552714,None,,,,,,,,PM_en,001,2025-03-07_11h58.25.351,MainFlow,2024.2.4,129.8893603076909,2025-03-07 11h58.36.239689 +0700,
2,7,0,word/worden0071.png,image/False/imgf07.png,221,221,0,x,0.4744986000005156,None,0,221,221,221,724.8165892000543,,,,,,,726.3112427999731,725.8119455999695,725.8181641000556,725.8181641000556,726.3112427999731,726.3112427999731,726.3050880000228,727.5168103000615,727.5168103000615,727.5168103000615,x,0.4744986000005156,None,,,,,,,,PM_en,001,2025-03-07_11h58.25.351,MainFlow,2024.2.4,129.8893603076909,2025-03-07 11h58.36.239689 +0700,
2,7,1,word/worden0071.png,image/True/img07.png,222,222,0,z,0.31153539998922497,None,0,222,222,222,728.0040155999595,,,,,,,729.4995119000087,729.0010839999886,729.0069361999631,729.0069361999631,729.4995119000087,729.4995119000087,729.49342720001,730.7367389999563,730.7367389999563,730.7367389999563,z,0.31153539998922497,None,,,,,,,,PM_en,001,2025-03-07_11h58.25.351,MainFlow,2024.2.4,129.8893603076909,2025-03-07 11h58.36.239689 +0700,
2,70,0,word/worden0701.png,image/False/imgf70.png,223,223,0,x,0.9002080999780446,None,0,223,223,223,731.0578312999569,,,,,,,732.5531556999777,732.0552076000022,732.0609589000233,732.0609589000233,732.5531556999777,732.5531556999777,732.5470919000218,733.7899909999687,733.7899909999687,733.7899909999687,x,0.9002080999780446,None,,,,,,,,PM_en,001,2025-03-07_11h58.25.351,MainFlow,2024.2.4,129.8893603076909,2025-03-07 11h58.36.239689 +0700,
2,68,0,word/worden0681.png,image/False/imgf68.png,224,224,0,x,0.6104568999726325,None,0,224,224,224,734.7018355999608,,,,,,,736.1967101000482,735.697026400012,735.7035189999733,735.7035189999733,736.1967101000482,736.1967101000482,736.1903848999646,737.3784608000424,737.3784608000424,737.3784608000424,x,0.6104568999726325,None,,,,,,,,PM_en,001,2025-03-07_11h58.25.351,MainFlow,2024.2.4,129.8893603076909,2025-03-07 11h58.36.239689 +0700,
