lang,wordid,truestate,worddir,imgdir,thisN,thisTrialN,thisRepN,key_resp.keys,key_resp.rt,key_resp.duration,trials.thisRepN,trials.thisTrialN,trials.thisN,trials.thisIndex,thisRow.t,notes,tutorial.started,tutorial.stopped,key_instruct.keys,key_instruct.rt,key_instruct.duration,plusblank.started,wordshow.started,image.started,plsuer.started,wordshow.stopped,imageword.started,key_resp.started,trials.key_resp.keys,trials.key_resp.rt,trials.key_resp.duration,image.stopped,plsuer.stopped,plusblank.stopped,ending.started,text_3.started,ending_key.started,ending.stopped,ending_key.keys,ending_key.rt,ending_key.duration,participant,session,date,expName,psychopyVersion,frameRate,expStart,
,,,,,,,,,,,,,,,,,0.004116999996767845,1.5498783000002732,space,1.5190987000023597,None,,,,,,,,,,,,,,,,,,,,,PN_en,001,2025-03-14_19h52.23.295,MainFlow,2024.2.4,144.67341424580547,2025-03-14 19h52.30.249882 +0700,
2,87,0,word/worden0871.png,image/False/imgf87.png,0,0,0,x,1.6196313999971608,None,0,0,0,0,1.59503080000286,,,,,,,3.062600299999758,2.5626508999994257,2.5682271999976365,2.5682271999976365,3.0557142999969074,4.2446265000035055,4.2446265000035055,x,1.6196313999971608,None,,,,,,,,,,,PN_en,001,2025-03-14_19h52.23.295,MainFlow,2024.2.4,144.67341424580547,2025-03-14 19h52.30.249882 +0700,
2,93,0,word/worden0931.png,image/False/imgf93.png,1,1,0,x,0.6163642999963486,None,0,1,1,1,5.87706099999923,,,,,,,7.372458899997582,6.868403599997691,6.878827499996987,6.878827499996987,7.365746299998136,8.456886699997995,8.456886699997995,x,0.6163642999963486,None,7.372458899997582,7.372458899997582,8.456886699997995,,,,,,,,PN_en,001,2025-03-14_19h52.23.295,MainFlow,2024.2.4,144.67341424580547,2025-03-14 19h52.30.249882 +0700,
2,23,0,word/worden0231.png,image/False/imgf23.png,2,2,0,x,0.5698504000029061,None,0,2,2,2,9.082477999996627,,,,,,,10.577045899997756,10.072686300001806,10.083506199996918,10.083506199996918,10.570398600000772,11.695399199998064,11.695399199998064,x,0.5698504000029061,None,10.577045899997756,10.577045899997756,11.695399199998064,,,,,,,,PN_en,001,2025-03-14_19h52.23.295,MainFlow,2024.2.4,144.67341424580547,2025-03-14 19h52.30.249882 +0700,
2,10,1,word/worden0101.png,image/True/img10.png,3,3,0,z,0.7020787000001292,None,0,3,3,3,12.273171799999545,,,,,,,13.760747899999842,13.261766700001317,13.266403100002208,13.266403100002208,13.753950199999963,14.852167299999564,14.852167299999564,z,0.7020787000001292,None,13.760747899999842,13.760747899999842,14.852167299999564,,,,,,,,PN_en,001,2025-03-14_19h52.23.295,MainFlow,2024.2.4,144.67341424580547,2025-03-14 19h52.30.249882 +0700,
2,50,0,word/worden0501.png,image/False/imgf50.png,4,4,0,x,0.5420669000013731,None,0,4,4,4,15.561195100002806,,,,,,,17.048757500000647,16.550135899997258,16.554410999997344,16.554410999997344,17.04207850000239,18.140180100002908,18.140180100002908,x,0.5420669000013731,None,17.048757500000647,17.048757500000647,18.140180100002908,,,,,,,,PN_en,001,2025-03-14_19h52.23.295,MainFlow,2024.2.4,144.67341424580547,2025-03-14 19h52.30.249882 +0700,
2,33,1,word/worden0331.png,image/True/img33.png,5,5,0,z,0.35217450000345707,None,0,5,5,5,18.68930890000047,,,,,,,20.183855800001766,19.67959780000092,19.690315400002874,19.690315400002874,20.177164599997923,21.28208099999756,21.28208099999756,z,0.35217450000345707,None,20.183855800001766,20.183855800001766,21.28208099999756,,,,,,,,PN_en,001,2025-03-14_19h52.23.295,MainFlow,2024.2.4,144.67341424580547,2025-03-14 19h52.30.249882 +0700,
2,95,0,word/worden0951.png,image/False/imgf95.png,6,6,0,x,0.5587312999996357,None,0,6,6,6,21.643648299999768,,,,,,,23.131243800002267,22.632037800001854,22.63685070000065,22.63685070000065,23.124506899999687,24.236518099998648,24.236518099998648,x,0.5587312999996357,None,23.131243800002267,23.131243800002267,24.236518099998648,,,,,,,,PN_en,001,2025-03-14_19h52.23.295,MainFlow,2024.2.4,144.67341424580547,2025-03-14 19h52.30.249882 +0700,
2,7,0,word/worden0071.png,image/False/imgf07.png,7,7,0,x,0.38575390000187326,None,0,7,7,7,24.806501500002923,,,,,,,26.29412289999891,25.794950199997402,25.799731899998733,25.799731899998733,26.287388999997347,27.385505999998713,27.385505999998713,x,0.38575390000187326,None,26.29412289999891,26.29412289999891,27.385505999998713,,,,,,,,PN_en,001,2025-03-14_19h52.23.295,MainFlow,2024.2.4,144.67341424580547,2025-03-14 19h52.30.249882 +0700,
2,28,1,word/worden0281.png,image/True/img28.png,8,8,0,z,0.5037526000014623,None,0,8,8,8,27.78169689999777,,,,,,,29.27623550000135,28.772205100001884,28.782713499997044,28.782713499997044,29.26954939999996,30.388494400001946,30.388494400001946,z,0.5037526000014623,None,29.27623550000135,29.27623550000135,30.388494400001946,,,,,,,,PN_en,001,2025-03-14_19h52.23.295,MainFlow,2024.2.4,144.67341424580547,2025-03-14 19h52.30.249882 +0700,
2,38,1,word/worden0381.png,image/True/img38.png,9,9,0,z,0.3545377999980701,None,0,9,9,9,30.902853999999934,,,,,,,32.397388799996406,31.893187900001067,31.903871100003016,31.903871100003016,32.390707999998995,33.48171480000019,33.48171480000019,z,0.3545377999980701,None,32.397388799996406,32.397388799996406,33.48171480000019,,,,,,,,PN_en,001,2025-03-14_19h52.23.295,MainFlow,2024.2.4,144.67341424580547,2025-03-14 19h52.30.249882 +0700,
2,33,0,word/worden0331.png,image/False/imgf33.png,10,10,0,x,0.40715300000010757,None,0,10,10,10,33.84332629999699,,,,,,,35.33089990000008,34.83106930000213,34.837224900002184,34.837224900002184,35.324332800002594,36.42909289999807,36.42909289999807,x,0.40715300000010757,None,35.33089990000008,35.33089990000008,36.42909289999807,,,,,,,,PN_en,001,2025-03-14_19h52.23.295,MainFlow,2024.2.4,144.67341424580547,2025-03-14 19h52.30.249882 +0700,
2,76,1,word/worden0761.png,image/True/img76.png,11,11,0,z,0.34946940000372706,None,0,11,11,11,36.84631139999692,,,,,,,38.34084379999695,37.83592050000152,37.84731230000034,37.84731230000034,38.33416060000309,39.43178639999678,39.43178639999678,z,0.34946940000372706,None,38.34084379999695,38.34084379999695,39.43178639999678,,,,,,,,PN_en,001,2025-03-14_19h52.23.295,MainFlow,2024.2.4,144.67341424580547,2025-03-14 19h52.30.249882 +0700,
2,75,0,word/worden0751.png,image/False/imgf75.png,12,12,0,x,0.657637700001942,None,0,12,12,12,39.793701199996576,,,,,,,41.28822029999719,40.78410730000178,40.7947067999994,40.7947067999994,41.281532300003164,42.379616799997166,42.379616799997166,x,0.657637700001942,None,41.28822029999719,41.28822029999719,42.379616799997166,,,,,,,,PN_en,001,2025-03-14_19h52.23.295,MainFlow,2024.2.4,144.67341424580547,2025-03-14 19h52.30.249882 +0700,
2,7,1,word/worden0071.png,image/True/img07.png,13,13,0,z,0.6213728999937302,None,0,13,13,13,43.046104100001685,,,,,,,44.53451710000081,44.03448709999793,44.04099329999735,44.04099329999735,44.52783289999934,45.63287159999891,45.63287159999891,z,0.6213728999937302,None,44.53451710000081,44.53451710000081,45.63287159999891,,,,,,,,PN_en,001,2025-03-14_19h52.23.295,MainFlow,2024.2.4,144.67341424580547,2025-03-14 19h52.30.249882 +0700,
2,51,1,word/worden0511.png,image/True/img51.png,14,14,0,z,0.29197500000009313,None,0,14,14,14,46.265298799997254,,,,,,,47.759951,47.255042600001616,47.266422499997134,47.266422499997134,47.75328620000073,48.85828929999843,48.85828929999843,z,0.29197500000009313,None,47.759951,47.759951,48.85828929999843,,,,,,,,PN_en,001,2025-03-14_19h52.23.295,MainFlow,2024.2.4,144.67341424580547,2025-03-14 19h52.30.249882 +0700,
2,59,0,word/worden0591.png,image/False/imgf59.png,15,15,0,x,0.3230725999965216,None,0,15,15,15,49.15721119999944,,,,,,,50.644783700001426,50.14522440000292,50.15113939999719,50.15113939999719,50.63813669999945,51.71517550000135,51.71517550000135,x,0.3230725999965216,None,50.644783700001426,50.644783700001426,51.71517550000135,,,,,,,,PN_en,001,2025-03-14_19h52.23.295,MainFlow,2024.2.4,144.67341424580547,2025-03-14 19h52.30.249882 +0700,
2,54,0,word/worden0541.png,image/False/imgf54.png,16,16,0,x,0.6034264999980223,None,0,16,16,16,52.048987100002705,,,,,,,53.53654419999657,53.036996299997554,53.04288850000012,53.04288850000012,53.52975790000346,54.62781800000084,54.62781800000084,x,0.6034264999980223,None,53.53654419999657,53.53654419999657,54.62781800000084,,,,,,,,PN_en,001,2025-03-14_19h52.23.295,MainFlow,2024.2.4,144.67341424580547,2025-03-14 19h52.30.249882 +0700,
2,6,1,word/worden0061.png,image/True/img06.png,17,17,0,z,0.31661540000641253,None,0,17,17,17,55.23963340000046,,,,,,,56.734172299999045,56.22892460000003,56.2406192999988,56.2406192999988,56.72748870000214,57.818639500001154,57.818639500001154,z,0.31661540000641253,None,56.734172299999045,56.734172299999045,57.818639500001154,,,,,,,,PN_en,001,2025-03-14_19h52.23.295,MainFlow,2024.2.4,144.67341424580547,2025-03-14 19h52.30.249882 +0700,
2,41,1,word/worden0411.png,image/True/img41.png,18,18,0,z,0.2950942999959807,None,0,18,18,18,58.14530470000318,,,,,,,59.63988439999957,59.13506709999638,59.146307199996954,59.146307199996954,59.63315419999708,60.745158799996716,60.745158799996716,z,0.2950942999959807,None,59.63988439999957,59.63988439999957,60.745158799996716,,,,,,,,PN_en,001,2025-03-14_19h52.23.295,MainFlow,2024.2.4,144.67341424580547,2025-03-14 19h52.30.249882 +0700,
2,42,0,word/worden0421.png,image/False/imgf42.png,19,19,0,x,0.4295246000037878,None,0,19,19,19,61.05098320000252,,,,,,,62.545564599997306,62.04094869999972,62.05200959999638,62.05200959999638,62.53882809999777,63.650726400002895,63.650726400002895,x,0.4295246000037878,None,62.545564599997306,62.545564599997306,63.650726400002895,,,,,,,,PN_en,001,2025-03-14_19h52.23.295,MainFlow,2024.2.4,144.67341424580547,2025-03-14 19h52.30.249882 +0700,
2,64,0,word/worden0641.png,image/False/imgf64.png,20,20,0,x,0.5704158000007737,None,0,20,20,20,64.08873049999966,,,,,,,65.5832620000001,65.07903919999808,65.0897580000019,65.0897580000019,65.57656210000277,66.65383879999717,66.65383879999717,x,0.5704158000007737,None,65.5832620000001,65.5832620000001,66.65383879999717,,,,,,,,PN_en,001,2025-03-14_19h52.23.295,MainFlow,2024.2.4,144.67341424580547,2025-03-14 19h52.30.249882 +0700,
2,96,1,word/worden0961.png,image/True/img96.png,21,21,0,z,0.475706999997783,None,0,21,21,21,67.23773300000175,,,,,,,68.73228470000322,68.2282086999985,68.23874390000128,68.23874390000128,68.72558389999904,69.83755540000129,69.83755540000129,z,0.475706999997783,None,68.73228470000322,68.73228470000322,69.83755540000129,,,,,,,,PN_en,001,2025-03-14_19h52.23.295,MainFlow,2024.2.4,144.67341424580547,2025-03-14 19h52.30.249882 +0700,
2,76,0,word/worden0761.png,image/False/imgf76.png,22,22,0,x,0.4133970999973826,None,0,22,22,22,70.32415420000325,,,,,,,71.81172209999932,71.31166130000202,71.31825050000043,71.31825050000043,71.80507829999988,72.92385439999634,72.92385439999634,x,0.4133970999973826,None,71.81172209999932,71.81172209999932,72.92385439999634,,,,,,,,PN_en,001,2025-03-14_19h52.23.295,MainFlow,2024.2.4,144.67341424580547,2025-03-14 19h52.30.249882 +0700,
2,17,1,word/worden0171.png,image/True/img17.png,23,23,0,z,0.5084742000035476,None,0,23,23,23,73.34800379999797,,,,,,,74.84254379999766,74.33811309999874,74.34900249999919,74.34900249999919,74.83581630000117,75.93379200000345,75.93379200000345,z,0.5084742000035476,None,74.84254379999766,74.84254379999766,75.93379200000345,,,,,,,,PN_en,001,2025-03-14_19h52.23.295,MainFlow,2024.2.4,144.67341424580547,2025-03-14 19h52.30.249882 +0700,
2,6,1,word/worden0061.png,image/True/img06.png,24,24,0,z,0.4030843000000459,None,0,24,24,24,76.45527659999789,,,,,,,77.94284499999776,77.44272320000164,77.44931940000242,77.44931940000242,77.9361745999995,79.02716520000104,79.02716520000104,z,0.4030843000000459,None,77.94284499999776,77.94284499999776,79.02716520000104,,,,,,,,PN_en,001,2025-03-14_19h52.23.295,MainFlow,2024.2.4,144.67341424580547,2025-03-14 19h52.30.249882 +0700,
2,88,1,word/worden0881.png,image/True/img88.png,25,25,0,z,0.6760113999989699,None,0,25,25,25,79.43739459999779,,,,,,,80.9250028000024,80.4256766000035,80.43061280000256,80.43061280000256,80.9182942999978,82.03025909999997,82.03025909999997,z,0.6760113999989699,None,80.9250028000024,80.9250028000024,82.03025909999997,,,,,,,,PN_en,001,2025-03-14_19h52.23.295,MainFlow,2024.2.4,144.67341424580547,2025-03-14 19h52.30.249882 +0700,
2,44,1,word/worden0441.png,image/True/img44.png,26,26,0,z,0.4089181000017561,None,0,26,26,26,82.71843880000233,,,,,,,84.20603790000314,83.706938299998,83.71165589999873,83.71165589999873,84.19939729999896,85.29033789999812,85.29033789999812,z,0.4089181000017561,None,84.20603790000314,84.20603790000314,85.29033789999812,,,,,,,,PN_en,001,2025-03-14_19h52.23.295,MainFlow,2024.2.4,144.67341424580547,2025-03-14 19h52.30.249882 +0700,
2,27,0,word/worden0271.png,image/False/imgf27.png,27,27,0,x,0.4859204999957001,None,0,27,27,27,85.70755140000256,,,,,,,87.20208589999675,86.6967685999989,86.70851630000107,86.70851630000107,87.19541220000247,88.29332989999966,88.29332989999966,x,0.4859204999957001,None,87.20208589999675,87.20208589999675,88.29332989999966,,,,,,,,PN_en,001,2025-03-14_19h52.23.295,MainFlow,2024.2.4,144.67341424580547,2025-03-14 19h52.30.249882 +0700,
2,14,0,word/worden0141.png,image/False/imgf14.png,28,28,0,x,0.5122604999996838,None,0,28,28,28,88.78701120000187,,,,,,,90.28153510000266,89.77691449999838,89.78801530000055,89.78801530000055,90.27485190000152,91.37999229999696,91.37999229999696,x,0.5122604999996838,None,90.28153510000266,90.28153510000266,91.37999229999696,,,,,,,,PN_en,001,2025-03-14_19h52.23.295,MainFlow,2024.2.4,144.67341424580547,2025-03-14 19h52.30.249882 +0700,
2,40,0,word/worden0401.png,image/False/imgf40.png,29,29,0,x,0.23309259999950882,None,0,29,29,29,91.90124159999687,,,,,,,93.38879669999733,92.88965810000082,92.89443739999842,92.89443739999842,93.38210770000296,94.48715570000059,94.48715570000059,x,0.23309259999950882,None,93.38879669999733,93.38879669999733,94.48715570000059,,,,,,,,PN_en,001,2025-03-14_19h52.23.295,MainFlow,2024.2.4,144.67341424580547,2025-03-14 19h52.30.249882 +0700,
2,1,0,word/worden0011.png,image/False/imgf01.png,30,30,0,x,0.4188893000027747,None,0,30,30,30,94.73041329999978,,,,,,,96.22500299999956,95.7200165999966,95.73143279999931,95.73143279999931,96.21831199999724,97.30939390000276,97.30939390000276,x,0.4188893000027747,None,96.22500299999956,96.22500299999956,97.30939390000276,,,,,,,,PN_en,001,2025-03-14_19h52.23.295,MainFlow,2024.2.4,144.67341424580547,2025-03-14 19h52.30.249882 +0700,
2,3,0,word/worden0031.png,image/False/imgf03.png,31,31,0,x,0.361979599998449,None,0,31,31,31,97.74037910000334,,,,,,,99.22798760000296,98.72877110000263,98.73359450000135,98.73359450000135,99.22127280000132,100.31927580000047,100.31927580000047,x,0.361979599998449,None,99.22798760000296,99.22798760000296,100.31927580000047,,,,,,,,PN_en,001,2025-03-14_19h52.23.295,MainFlow,2024.2.4,144.67341424580547,2025-03-14 19h52.30.249882 +0700,
2,57,1,word/worden0571.png,image/True/img57.png,32,32,0,z,0.46167180000338703,None,0,32,32,32,100.6947033999968,,,,,,,102.1892669000008,101.68507310000132,101.69571870000073,101.69571870000073,102.18252999999822,103.28758090000338,103.28758090000338,z,0.46167180000338703,None,102.1892669000008,102.1892669000008,103.28758090000338,,,,,,,,PN_en,001,2025-03-14_19h52.23.295,MainFlow,2024.2.4,144.67341424580547,2025-03-14 19h52.30.249882 +0700,
2,88,0,word/worden0881.png,image/False/imgf88.png,33,33,0,x,0.3641803999998956,None,0,33,33,33,103.76024219999817,,,,,,,105.24784809999983,104.7477396999966,104.7542700999984,104.7542700999984,105.2411729000014,106.34606740000163,106.34606740000163,x,0.3641803999998956,None,105.24784809999983,105.24784809999983,106.34606740000163,,,,,,,,PN_en,001,2025-03-14_19h52.23.295,MainFlow,2024.2.4,144.67341424580547,2025-03-14 19h52.30.249882 +0700,
2,52,0,word/worden0521.png,image/False/imgf52.png,34,34,0,x,0.4246671000000788,None,0,34,34,34,106.72155229999771,,,,,,,108.20916579999903,107.71003760000167,107.71477069999673,107.71477069999673,108.20244239999738,109.29358250000223,109.29358250000223,x,0.4246671000000788,None,108.20916579999903,108.20916579999903,109.29358250000223,,,,,,,,PN_en,001,2025-03-14_19h52.23.295,MainFlow,2024.2.4,144.67341424580547,2025-03-14 19h52.30.249882 +0700,
2,50,0,word/worden0501.png,image/False/imgf50.png,35,35,0,x,0.4237732000037795,None,0,35,35,35,109.7315082999994,,,,,,,111.21911040000123,110.71918849999929,110.72561629999836,110.72561629999836,111.21241890000238,112.31048870000086,112.31048870000086,x,0.4237732000037795,None,111.21911040000123,111.21911040000123,112.31048870000086,,,,,,,,PN_en,001,2025-03-14_19h52.23.295,MainFlow,2024.2.4,144.67341424580547,2025-03-14 19h52.30.249882 +0700,
2,78,1,word/worden0781.png,image/True/img78.png,36,36,0,z,0.5027948999995715,None,0,36,36,36,112.7414312999972,,,,,,,114.2290221000003,113.72981240000081,113.73466709999775,113.73466709999775,114.22236949999933,115.3204498999985,115.3204498999985,z,0.5027948999995715,None,114.2290221000003,114.2290221000003,115.3204498999985,,,,,,,,PN_en,001,2025-03-14_19h52.23.295,MainFlow,2024.2.4,144.67341424580547,2025-03-14 19h52.30.249882 +0700,
2,61,0,word/worden0611.png,image/False/imgf61.png,37,37,0,x,0.3885995000018738,None,0,37,37,37,115.83481970000139,,,,,,,117.32933999999659,116.82514909999736,116.8358264999988,116.8358264999988,117.32268990000011,118.43465100000321,118.43465100000321,x,0.3885995000018738,None,117.32933999999659,117.32933999999659,118.43465100000321,,,,,,,,PN_en,001,2025-03-14_19h52.23.295,MainFlow,2024.2.4,144.67341424580547,2025-03-14 19h52.30.249882 +0700,
2,36,0,word/worden0361.png,image/False/imgf36.png,38,38,0,x,0.5314187000039965,None,0,38,38,38,118.83086960000219,,,,,,,120.32540709999739,119.82097200000135,119.83187709999766,119.83187709999766,120.31870090000302,121.41682739999669,121.41682739999669,x,0.5314187000039965,None,120.32540709999739,120.32540709999739,121.41682739999669,,,,,,,,PN_en,001,2025-03-14_19h52.23.295,MainFlow,2024.2.4,144.67341424580547,2025-03-14 19h52.30.249882 +0700,
2,10,1,word/worden0101.png,image/True/img10.png,39,39,0,z,0.38229149999824585,None,0,39,39,39,121.95897420000256,,,,,,,123.44660029999795,122.94668130000355,122.9528879999998,122.9528879999998,123.43987940000079,124.53795600000012,124.53795600000012,z,0.38229149999824585,None,123.44660029999795,123.44660029999795,124.53795600000012,,,,,,,,PN_en,001,2025-03-14_19h52.23.295,MainFlow,2024.2.4,144.67341424580547,2025-03-14 19h52.30.249882 +0700,
2,75,1,word/worden0751.png,image/True/img75.png,40,40,0,z,0.4949025000023539,None,0,40,40,40,124.92721940000047,,,,,,,126.41481639999984,125.9148389999973,125.9211370999983,125.9211370999983,126.40811329999997,127.50535079999827,127.50535079999827,z,0.4949025000023539,None,126.41481639999984,126.41481639999984,127.50535079999827,,,,,,,,PN_en,001,2025-03-14_19h52.23.295,MainFlow,2024.2.4,144.67341424580547,2025-03-14 19h52.30.249882 +0700,
2,1,1,word/worden0011.png,image/True/img01.png,41,41,0,z,0.4947438000017428,None,0,41,41,41,128.0136549000017,,,,,,,129.50122679999913,129.00123059999896,129.0075543999992,129.0075543999992,129.494534999998,130.60650699999678,130.60650699999678,z,0.4947438000017428,None,129.50122679999913,129.50122679999913,130.60650699999678,,,,,,,,PN_en,001,2025-03-14_19h52.23.295,MainFlow,2024.2.4,144.67341424580547,2025-03-14 19h52.30.249882 +0700,
2,37,1,word/worden0371.png,image/True/img37.png,42,42,0,z,0.2645753999968292,None,0,42,42,42,131.1139131000018,,,,,,,132.6015211999984,132.1021397000004,132.10715209999762,132.10715209999762,132.59482240000216,133.72073249999812,133.72073249999812,z,0.2645753999968292,None,132.6015211999984,132.6015211999984,133.72073249999812,,,,,,,,PN_en,001,2025-03-14_19h52.23.295,MainFlow,2024.2.4,144.67341424580547,2025-03-14 19h52.30.249882 +0700,
2,66,0,word/worden0661.png,image/False/imgf66.png,43,43,0,x,0.4666174999947543,None,0,43,43,43,133.99876429999858,,,,,,,135.4933228000009,134.98894570000266,134.999770800001,134.999770800001,135.4866026000018,136.5916572999995,136.5916572999995,x,0.4666174999947543,None,135.4933228000009,135.4933228000009,136.5916572999995,,,,,,,,PN_en,001,2025-03-14_19h52.23.295,MainFlow,2024.2.4,144.67341424580547,2025-03-14 19h52.30.249882 +0700,
2,55,1,word/worden0551.png,image/True/img55.png,44,44,0,z,0.3980885999990278,None,0,44,44,44,137.07128430000012,,,,,,,138.55884869999863,138.0594207000031,138.0645063999982,138.0645063999982,138.55203159999655,139.66415979999874,139.66415979999874,z,0.3980885999990278,None,138.55884869999863,138.55884869999863,139.66415979999874,,,,,,,,PN_en,001,2025-03-14_19h52.23.295,MainFlow,2024.2.4,144.67341424580547,2025-03-14 19h52.30.249882 +0700,
2,70,0,word/worden0701.png,image/False/imgf70.png,45,45,0,x,0.4171448999986751,None,0,45,45,45,140.0742545999965,,,,,,,141.5688302999988,141.0639572,141.07528279999678,141.07528279999678,141.56212300000334,142.6531118999992,142.6531118999992,x,0.4171448999986751,None,141.5688302999988,141.5688302999988,142.6531118999992,,,,,,,,PN_en,001,2025-03-14_19h52.23.295,MainFlow,2024.2.4,144.67341424580547,2025-03-14 19h52.30.249882 +0700,
2,68,0,word/worden0681.png,image/False/imgf68.png,46,46,0,x,0.5299880000020494,None,0,46,46,46,143.0772754999998,,,,,,,144.57182530000136,144.06669880000118,144.07824339999934,144.07824339999934,144.56511150000006,145.6492889000001,145.6492889000001,x,0.5299880000020494,None,144.57182530000136,144.57182530000136,145.6492889000001,,,,,,,,PN_en,001,2025-03-14_19h52.23.295,MainFlow,2024.2.4,144.67341424580547,2025-03-14 19h52.30.249882 +0700,
2,75,1,word/worden0751.png,image/True/img75.png,47,47,0,z,0.41363210000417894,None,0,47,47,47,146.19065019999834,,,,,,,147.67912339999748,147.17908239999815,147.1855377000029,147.1855377000029,147.67243649999727,148.76961760000268,148.76961760000268,z,0.41363210000417894,None,147.67912339999748,147.67912339999748,148.76961760000268,,,,,,,,PN_en,001,2025-03-14_19h52.23.295,MainFlow,2024.2.4,144.67341424580547,2025-03-14 19h52.30.249882 +0700,
2,38,1,word/worden0381.png,image/True/img38.png,48,48,0,z,0.3257235000055516,None,0,48,48,48,149.1944560999982,,,,,,,150.68209470000147,150.18208610000147,150.18853549999767,150.18853549999767,150.6752819999965,151.7665233000007,151.7665233000007,z,0.3257235000055516,None,150.68209470000147,150.68209470000147,151.7665233000007,,,,,,,,PN_en,001,2025-03-14_19h52.23.295,MainFlow,2024.2.4,144.67341424580547,2025-03-14 19h52.30.249882 +0700,
2,42,1,word/worden0421.png,image/True/img42.png,49,49,0,z,0.47417809999751626,None,0,49,49,49,152.10014590000355,,,,,,,153.58775220000098,153.08761029999732,153.09421409999777,153.09421409999777,153.58103649999975,154.68607180000254,154.68607180000254,z,0.47417809999751626,None,153.58775220000098,153.58775220000098,154.68607180000254,,,,,,,,PN_en,001,2025-03-14_19h52.23.295,MainFlow,2024.2.4,144.67341424580547,2025-03-14 19h52.30.249882 +0700,
2,11,0,word/worden0111.png,image/False/imgf11.png,50,50,0,x,0.5568132999978843,None,0,50,50,50,155.17266650000238,,,,,,,156.6672350000008,156.16329720000067,156.1736763000008,156.1736763000008,156.66049059999932,157.77944220000063,157.77944220000063,x,0.5568132999978843,None,156.6672350000008,156.6672350000008,157.77944220000063,,,,,,,,PN_en,001,2025-03-14_19h52.23.295,MainFlow,2024.2.4,144.67341424580547,2025-03-14 19h52.30.249882 +0700,
2,41,0,word/worden0411.png,image/False/imgf41.png,51,51,0,x,1.2456699000031222,None,0,51,51,51,158.34943290000228,,,,,,,159.83701719999954,159.3372051999977,159.34333999999944,159.34333999999944,159.83035270000255,160.9075765000016,160.9075765000016,x,1.2456699000031222,None,159.83701719999954,159.83701719999954,160.9075765000016,,,,,,,,PN_en,001,2025-03-14_19h52.23.295,MainFlow,2024.2.4,144.67341424580547,2025-03-14 19h52.30.249882 +0700,
2,82,1,word/worden0821.png,image/True/img82.png,52,52,0,z,0.3264251000000513,None,0,52,52,52,162.1657578000013,,,,,,,163.66029430000344,163.15603620000184,163.1667729999972,163.1667729999972,163.6536333999975,164.73082799999975,164.73082799999975,z,0.3264251000000513,None,163.66029430000344,163.66029430000344,164.73082799999975,,,,,,,,PN_en,001,2025-03-14_19h52.23.295,MainFlow,2024.2.4,144.67341424580547,2025-03-14 19h52.30.249882 +0700,
2,88,0,word/worden0881.png,image/False/imgf88.png,53,53,0,x,0.45188709999638377,None,0,53,53,53,165.06448069999897,,,,,,,166.55208519999724,166.05198850000306,166.05853580000257,166.05853580000257,166.5454002999977,167.6504141999976,167.6504141999976,x,0.45188709999638377,None,166.55208519999724,166.55208519999724,167.6504141999976,,,,,,,,PN_en,001,2025-03-14_19h52.23.295,MainFlow,2024.2.4,144.67341424580547,2025-03-14 19h52.30.249882 +0700,
2,8,1,word/worden0081.png,image/True/img08.png,54,54,0,z,0.8479781999994884,None,0,54,54,54,168.1092009999993,,,,,,,169.59675440000137,169.09735250000085,169.10239719999663,169.10239719999663,169.58995319999667,170.6742813000019,170.6742813000019,z,0.8479781999994884,None,169.59675440000137,169.59675440000137,170.6742813000019,,,,,,,,PN_en,001,2025-03-14_19h52.23.295,MainFlow,2024.2.4,144.67341424580547,2025-03-14 19h52.30.249882 +0700,
2,16,0,word/worden0161.png,image/False/imgf16.png,55,55,0,x,0.6261998000045423,None,0,55,55,55,171.53538300000218,,,,,,,173.02381089999835,172.52440219999698,172.52942780000012,172.52942780000012,173.0171143999978,174.1290833000021,174.1290833000021,x,0.6261998000045423,None,173.02381089999835,173.02381089999835,174.1290833000021,,,,,,,,PN_en,001,2025-03-14_19h52.23.295,MainFlow,2024.2.4,144.67341424580547,2025-03-14 19h52.30.249882 +0700,
2,10,0,word/worden0101.png,image/False/imgf10.png,56,56,0,x,0.4087470999947982,None,0,56,56,56,174.7685788000017,,,,,,,176.2561679999999,175.75637129999814,175.7624919000009,175.7624919000009,176.24949070000002,177.35454069999832,177.35454069999832,x,0.4087470999947982,None,176.2561679999999,176.2561679999999,177.35454069999832,,,,,,,,PN_en,001,2025-03-14_19h52.23.295,MainFlow,2024.2.4,144.67341424580547,2025-03-14 19h52.30.249882 +0700,
2,76,0,word/worden0761.png,image/False/imgf76.png,57,57,0,x,0.38395070000115084,None,0,57,57,57,177.77159750000283,,,,,,,179.25919240000076,178.75917140000092,178.76550889999635,178.76550889999635,179.25250589999632,180.37129789999744,180.37129789999744,x,0.38395070000115084,None,179.25919240000076,179.25919240000076,180.37129789999744,,,,,,,,PN_en,001,2025-03-14_19h52.23.295,MainFlow,2024.2.4,144.67341424580547,2025-03-14 19h52.30.249882 +0700,
2,42,1,word/worden0421.png,image/True/img42.png,58,58,0,z,0.43479439999646274,None,0,58,58,58,180.76761049999914,,,,,,,182.25523950000206,181.75512519999756,181.76166209999792,181.76166209999792,182.24858030000178,183.3534531999976,183.3534531999976,z,0.43479439999646274,None,182.25523950000206,182.25523950000206,183.3534531999976,,,,,,,,PN_en,001,2025-03-14_19h52.23.295,MainFlow,2024.2.4,144.67341424580547,2025-03-14 19h52.30.249882 +0700,
2,26,0,word/worden0261.png,image/False/imgf26.png,59,59,0,x,0.41505139999935636,None,0,59,59,59,183.7984421000001,,,,,,,185.29299439999886,184.78828690000228,184.7994467000026,184.7994467000026,185.2863206999973,186.40522000000055,186.40522000000055,x,0.41505139999935636,None,185.29299439999886,185.29299439999886,186.40522000000055,,,,,,,,PN_en,001,2025-03-14_19h52.23.295,MainFlow,2024.2.4,144.67341424580547,2025-03-14 19h52.30.249882 +0700,
2,26,1,word/worden0261.png,image/True/img26.png,60,60,0,z,1.5801741999966907,None,0,60,60,60,186.8292300999965,,,,,,,188.31682880000153,187.81719699999667,187.82318590000068,187.82318590000068,188.3101547999977,189.42907399999967,189.42907399999967,z,1.5801741999966907,None,188.31682880000153,188.31682880000153,189.42907399999967,,,,,,,,PN_en,001,2025-03-14_19h52.23.295,MainFlow,2024.2.4,144.67341424580547,2025-03-14 19h52.30.249882 +0700,
2,48,1,word/worden0481.png,image/True/img48.png,61,61,0,z,1.2554713000063202,None,0,61,61,61,191.02079599999706,,,,,,,192.50850499999797,192.00892000000022,192.01413429999957,192.01413429999957,192.50182849999692,193.61379319999833,193.61379319999833,z,1.2554713000063202,None,192.50850499999797,192.50850499999797,193.61379319999833,,,,,,,,PN_en,001,2025-03-14_19h52.23.295,MainFlow,2024.2.4,144.67341424580547,2025-03-14 19h52.30.249882 +0700,
2,71,0,word/worden0711.png,image/False/imgf71.png,62,62,0,x,0.5685407999990275,None,0,62,62,62,194.87810460000037,,,,,,,196.37350190000143,195.86901950000174,195.8799438999995,195.8799438999995,196.36666339999647,197.48571229999652,197.48571229999652,x,0.5685407999990275,None,196.37350190000143,196.37350190000143,197.48571229999652,,,,,,,,PN_en,001,2025-03-14_19h52.23.295,MainFlow,2024.2.4,144.67341424580547,2025-03-14 19h52.30.249882 +0700,
2,93,1,word/worden0931.png,image/True/img93.png,63,63,0,z,0.5755733999976655,None,0,63,63,63,198.06263559999934,,,,,,,199.55022820000158,199.0500630000024,199.0566839000021,199.0566839000021,199.5435370999985,200.6346979000009,200.6346979000009,z,0.5755733999976655,None,199.55022820000158,199.55022820000158,200.6346979000009,,,,,,,,PN_en,001,2025-03-14_19h52.23.295,MainFlow,2024.2.4,144.67341424580547,2025-03-14 19h52.30.249882 +0700,
2,51,1,word/worden0511.png,image/True/img51.png,64,64,0,z,1.1118018999986816,None,0,64,64,64,201.21860259999812,,,,,,,202.70618410000316,202.20599680000305,202.21265459999995,202.21265459999995,202.6994982000033,203.8114762999976,203.8114762999976,z,1.1118018999986816,None,202.70618410000316,202.70618410000316,203.8114762999976,,,,,,,,PN_en,001,2025-03-14_19h52.23.295,MainFlow,2024.2.4,144.67341424580547,2025-03-14 19h52.30.249882 +0700,
2,78,0,word/worden0781.png,image/False/imgf78.png,65,65,0,x,0.3926071000023512,None,0,65,65,65,204.93674289999763,,,,,,,206.42518720000226,205.92497890000232,205.9316009999966,205.9316009999966,206.418488299998,207.50264990000142,207.50264990000142,x,0.3926071000023512,None,206.42518720000226,206.42518720000226,207.50264990000142,,,,,,,,PN_en,001,2025-03-14_19h52.23.295,MainFlow,2024.2.4,144.67341424580547,2025-03-14 19h52.30.249882 +0700,
2,64,0,word/worden0641.png,image/False/imgf64.png,66,66,0,x,0.38331649999599904,None,0,66,66,66,207.90580329999648,,,,,,,209.3934104,208.8933956999972,208.89993010000035,208.89993010000035,209.38672309999674,210.4639376999985,210.4639376999985,x,0.38331649999599904,None,209.3934104,209.3934104,210.4639376999985,,,,,,,,PN_en,001,2025-03-14_19h52.23.295,MainFlow,2024.2.4,144.67341424580547,2025-03-14 19h52.30.249882 +0700,
2,68,1,word/worden0681.png,image/True/img68.png,67,67,0,z,0.47903510000469396,None,0,67,67,67,210.8601462000006,,,,,,,212.34775020000234,211.84777020000183,211.85407580000174,211.85407580000174,212.34105299999646,213.42522940000345,213.42522940000345,z,0.47903510000469396,None,212.34775020000234,212.34775020000234,213.42522940000345,,,,,,,,PN_en,001,2025-03-14_19h52.23.295,MainFlow,2024.2.4,144.67341424580547,2025-03-14 19h52.30.249882 +0700,
2,57,0,word/worden0571.png,image/False/imgf57.png,68,68,0,x,0.36356379999779165,None,0,68,68,68,213.91178509999736,,,,,,,215.39941440000257,214.8993257999973,214.9058753999998,214.9058753999998,215.39267429999745,216.50468269999692,216.50468269999692,x,0.36356379999779165,None,215.39941440000257,215.39941440000257,216.50468269999692,,,,,,,,PN_en,001,2025-03-14_19h52.23.295,MainFlow,2024.2.4,144.67341424580547,2025-03-14 19h52.30.249882 +0700,
2,31,0,word/worden0311.png,image/False/imgf31.png,69,69,0,x,0.34292850000201724,None,0,69,69,69,216.88005700000213,,,,,,,218.3746026000008,217.8697048000031,217.88106069999776,217.88106069999776,218.36795880000136,219.43732730000193,219.43732730000193,x,0.34292850000201724,None,218.3746026000008,218.3746026000008,219.43732730000193,,,,,,,,PN_en,001,2025-03-14_19h52.23.295,MainFlow,2024.2.4,144.67341424580547,2025-03-14 19h52.30.249882 +0700,
2,31,0,word/worden0311.png,image/False/imgf31.png,70,70,0,x,0.35026400000060676,None,0,70,70,70,219.7926651000016,,,,,,,221.2802475999997,220.78016460000072,220.78672599999845,220.78672599999845,221.27357840000332,222.34299779999856,222.34299779999856,x,0.35026400000060676,None,221.2802475999997,221.2802475999997,222.34299779999856,,,,,,,,PN_en,001,2025-03-14_19h52.23.295,MainFlow,2024.2.4,144.67341424580547,2025-03-14 19h52.30.249882 +0700,
2,55,1,word/worden0551.png,image/True/img55.png,71,71,0,z,0.4281057999978657,None,0,71,71,71,222.70530500000314,,,,,,,224.19287800000166,223.69285230000241,223.69935850000184,223.69935850000184,224.1862265000018,225.30514109999785,225.30514109999785,z,0.4281057999978657,None,224.19287800000166,224.19287800000166,225.30514109999785,,,,,,,,PN_en,001,2025-03-14_19h52.23.295,MainFlow,2024.2.4,144.67341424580547,2025-03-14 19h52.30.249882 +0700,
2,36,1,word/worden0361.png,image/True/img36.png,72,72,0,z,0.4391883999996935,None,0,72,72,72,225.74294699999882,,,,,,,227.23065599999973,226.73062229999778,226.73709609999787,226.73709609999787,227.2239492000008,228.3150736000025,228.3150736000025,z,0.4391883999996935,None,227.23065599999973,227.23065599999973,228.3150736000025,,,,,,,,PN_en,001,2025-03-14_19h52.23.295,MainFlow,2024.2.4,144.67341424580547,2025-03-14 19h52.30.249882 +0700,
2,8,0,word/worden0081.png,image/False/imgf08.png,73,73,0,x,0.4881681999977445,None,0,73,73,73,228.76691520000168,,,,,,,230.25447839999833,229.75450100000307,229.76096539999708,229.76096539999708,230.24780050000118,231.33808590000262,231.33808590000262,x,0.4881681999977445,None,230.25447839999833,230.25447839999833,231.33808590000262,,,,,,,,PN_en,001,2025-03-14_19h52.23.295,MainFlow,2024.2.4,144.67341424580547,2025-03-14 19h52.30.249882 +0700,
2,82,0,word/worden0821.png,image/False/imgf82.png,74,74,0,x,0.4849188000007416,None,0,74,74,74,231.83942350000143,,,,,,,233.32698769999843,232.82690919999732,232.83347330000106,232.83347330000106,233.3203441000005,234.42535299999872,234.42535299999872,x,0.4849188000007416,None,233.32698769999843,233.32698769999843,234.42535299999872,,,,,,,,PN_en,001,2025-03-14_19h52.23.295,MainFlow,2024.2.4,144.67341424580547,2025-03-14 19h52.30.249882 +0700,
2,14,0,word/worden0141.png,image/False/imgf14.png,75,75,0,x,0.4744711000021198,None,0,75,75,75,234.91881809999904,,,,,,,236.4063696000012,235.90644900000188,235.91298259999894,235.91298259999894,236.3997795999967,237.5047975999987,237.5047975999987,x,0.4744711000021198,None,236.4063696000012,236.4063696000012,237.5047975999987,,,,,,,,PN_en,001,2025-03-14_19h52.23.295,MainFlow,2024.2.4,144.67341424580547,2025-03-14 19h52.30.249882 +0700,
2,71,1,word/worden0711.png,image/True/img71.png,76,76,0,z,0.5434671999973943,None,0,76,76,76,237.99140230000194,,,,,,,239.4789843000035,238.97860850000143,238.98542989999987,238.98542989999987,239.47231080000347,240.58381760000339,240.58381760000339,z,0.5434671999973943,None,239.4789843000035,239.4789843000035,240.58381760000339,,,,,,,,PN_en,001,2025-03-14_19h52.23.295,MainFlow,2024.2.4,144.67341424580547,2025-03-14 19h52.30.249882 +0700,
2,22,0,word/worden0221.png,image/False/imgf22.png,77,77,0,x,0.43310689999634633,None,0,77,77,77,241.14034119999997,,,,,,,242.6279499000011,242.1286398000011,242.13357930000348,242.13357930000348,242.62126379999972,243.74714099999983,243.74714099999983,x,0.43310689999634633,None,242.6279499000011,242.6279499000011,243.74714099999983,,,,,,,,PN_en,001,2025-03-14_19h52.23.295,MainFlow,2024.2.4,144.67341424580547,2025-03-14 19h52.30.249882 +0700,
2,78,1,word/worden0781.png,image/True/img78.png,78,78,0,z,0.3132876000017859,None,0,78,78,78,244.19200160000037,,,,,,,245.6796153999967,245.1795534999983,245.1860317000028,245.1860317000028,245.6729243000009,246.77097330000106,246.77097330000106,z,0.3132876000017859,None,245.6796153999967,245.6796153999967,246.77097330000106,,,,,,,,PN_en,001,2025-03-14_19h52.23.295,MainFlow,2024.2.4,144.67341424580547,2025-03-14 19h52.30.249882 +0700,
2,51,0,word/worden0511.png,image/False/imgf51.png,79,79,0,x,0.36859439999534516,None,0,79,79,79,247.09769589999632,,,,,,,248.58526629999687,248.0850539000021,248.0916683999967,248.0916683999967,248.57859409999946,249.6766856999966,249.6766856999966,x,0.36859439999534516,None,248.58526629999687,248.58526629999687,249.6766856999966,,,,,,,,PN_en,001,2025-03-14_19h52.23.295,MainFlow,2024.2.4,144.67341424580547,2025-03-14 19h52.30.249882 +0700,
2,56,1,word/worden0561.png,image/True/img56.png,80,80,0,z,0.3171918999942136,None,0,80,80,80,250.05895050000254,,,,,,,251.55352850000054,251.0491808000006,251.0599796000024,251.0599796000024,251.54680959999678,252.64405609999812,252.64405609999812,z,0.3171918999942136,None,251.55352850000054,251.55352850000054,252.64405609999812,,,,,,,,PN_en,001,2025-03-14_19h52.23.295,MainFlow,2024.2.4,144.67341424580547,2025-03-14 19h52.30.249882 +0700,
2,60,1,word/worden0601.png,image/True/img60.png,81,81,0,z,0.3486401999980444,None,0,81,81,81,252.97161210000195,,,,,,,254.46614959999715,253.96173409999756,253.97261499999877,253.97261499999877,254.45945740000025,255.5566839000021,255.5566839000021,z,0.3486401999980444,None,254.46614959999715,254.46614959999715,255.5566839000021,,,,,,,,PN_en,001,2025-03-14_19h52.23.295,MainFlow,2024.2.4,144.67341424580547,2025-03-14 19h52.30.249882 +0700,
2,96,0,word/worden0961.png,image/False/imgf96.png,82,82,0,x,0.47122910000325646,None,0,82,82,82,255.91899959999864,,,,,,,257.40657590000046,256.9066288999966,256.91290619999927,256.91290619999927,257.399926099999,258.511018600002,258.511018600002,x,0.47122910000325646,None,257.40657590000046,257.40657590000046,258.511018600002,,,,,,,,PN_en,001,2025-03-14_19h52.23.295,MainFlow,2024.2.4,144.67341424580547,2025-03-14 19h52.30.249882 +0700,
2,3,0,word/worden0031.png,image/False/imgf03.png,83,83,0,x,0.5968466000049375,None,0,83,83,83,258.99136429999635,,,,,,,260.47898030000215,259.97909320000326,259.9854284999965,259.9854284999965,260.4724034000028,261.5774199000007,261.5774199000007,x,0.5968466000049375,None,260.47898030000215,260.47898030000215,261.5774199000007,,,,,,,,PN_en,001,2025-03-14_19h52.23.295,MainFlow,2024.2.4,144.67341424580547,2025-03-14 19h52.30.249882 +0700,
2,55,0,word/worden0551.png,image/False/imgf55.png,84,84,0,x,0.3021515000000363,None,0,84,84,84,262.1822003999987,,,,,,,263.6697529000012,263.16961340000125,263.1762428000002,263.1762428000002,263.6630767000024,264.7681175999969,264.7681175999969,x,0.3021515000000363,None,263.6697529000012,263.6697529000012,264.7681175999969,,,,,,,,PN_en,001,2025-03-14_19h52.23.295,MainFlow,2024.2.4,144.67341424580547,2025-03-14 19h52.30.249882 +0700,
2,71,1,word/worden0711.png,image/True/img71.png,85,85,0,z,0.31746859999839216,None,0,85,85,85,265.0808806999994,,,,,,,266.5685070999971,266.0682244999989,266.07494880000013,266.07494880000013,266.56181549999746,267.6737813,267.6737813,z,0.31746859999839216,None,266.5685070999971,266.5685070999971,267.6737813,,,,,,,,PN_en,001,2025-03-14_19h52.23.295,MainFlow,2024.2.4,144.67341424580547,2025-03-14 19h52.30.249882 +0700,
2,3,1,word/worden0031.png,image/True/img03.png,86,86,0,z,0.3488394000014523,None,0,86,86,86,268.00048830000014,,,,,,,269.48807210000086,268.98819959999673,268.99457529999927,268.99457529999927,269.4813890000005,270.58641190000344,270.58641190000344,z,0.3488394000014523,None,269.48807210000086,269.48807210000086,270.58641190000344,,,,,,,,PN_en,001,2025-03-14_19h52.23.295,MainFlow,2024.2.4,144.67341424580547,2025-03-14 19h52.30.249882 +0700,
2,52,1,word/worden0521.png,image/True/img52.png,87,87,0,z,0.34750260000146227,None,0,87,87,87,270.9478728999966,,,,,,,272.43546429999697,271.9355285999991,271.94178320000356,271.94178320000356,272.42877739999676,273.54075190000003,273.54075190000003,z,0.34750260000146227,None,272.43546429999697,272.43546429999697,273.54075190000003,,,,,,,,PN_en,001,2025-03-14_19h52.23.295,MainFlow,2024.2.4,144.67341424580547,2025-03-14 19h52.30.249882 +0700,
2,95,0,word/worden0951.png,image/False/imgf95.png,88,88,0,x,0.4161471999977948,None,0,88,88,88,273.89526399999886,,,,,,,275.3828552999985,274.8827577999982,274.88920540000254,274.88920540000254,275.37611820000166,276.48813379999774,276.48813379999774,x,0.4161471999977948,None,275.3828552999985,275.3828552999985,276.48813379999774,,,,,,,,PN_en,001,2025-03-14_19h52.23.295,MainFlow,2024.2.4,144.67341424580547,2025-03-14 19h52.30.249882 +0700,
2,6,0,word/worden0061.png,image/False/imgf06.png,89,89,0,x,0.43613019999611424,None,0,89,89,89,276.91215589999774,,,,,,,278.399737300002,277.8996337999997,277.9062103000033,277.9062103000033,278.3930382000035,279.48412259999895,279.48412259999895,x,0.43613019999611424,None,278.399737300002,278.399737300002,279.48412259999895,,,,,,,,PN_en,001,2025-03-14_19h52.23.295,MainFlow,2024.2.4,144.67341424580547,2025-03-14 19h52.30.249882 +0700,
2,79,1,word/worden0791.png,image/True/img79.png,90,90,0,z,0.5582093000048189,None,0,90,90,90,279.9290697000033,,,,,,,281.41664740000124,280.9173035999993,280.92265629999747,280.92265629999747,281.4099638999978,282.5150399999984,282.5150399999984,z,0.5582093000048189,None,281.41664740000124,281.41664740000124,282.5150399999984,,,,,,,,PN_en,001,2025-03-14_19h52.23.295,MainFlow,2024.2.4,144.67341424580547,2025-03-14 19h52.30.249882 +0700,
2,61,0,word/worden0611.png,image/False/imgf61.png,91,91,0,x,0.5005278999960865,None,0,91,91,91,283.0841348000031,,,,,,,284.5725530999989,284.07167969999864,284.0781900000002,284.0781900000002,284.5658648000026,285.6847254000022,285.6847254000022,x,0.5005278999960865,None,284.5725530999989,284.5725530999989,285.6847254000022,,,,,,,,PN_en,001,2025-03-14_19h52.23.295,MainFlow,2024.2.4,144.67341424580547,2025-03-14 19h52.30.249882 +0700,
2,46,0,word/worden0461.png,image/False/imgf46.png,92,92,0,x,0.5483039000027929,None,0,92,92,92,286.1922571999967,,,,,,,287.6867665000027,287.1819452999989,287.19325319999916,287.19325319999916,287.67997070000274,288.8059624000016,288.8059624000016,x,0.5483039000027929,None,287.6867665000027,287.6867665000027,288.8059624000016,,,,,,,,PN_en,001,2025-03-14_19h52.23.295,MainFlow,2024.2.4,144.67341424580547,2025-03-14 19h52.30.249882 +0700,
2,89,1,word/worden0891.png,image/True/img89.png,93,93,0,x,0.29217179999977816,None,0,93,93,93,289.36207419999846,,,,,,,290.8496421000018,290.35027909999917,290.3552844000005,290.3552844000005,290.842833900002,291.9340861000019,291.9340861000019,x,0.29217179999977816,None,290.8496421000018,290.8496421000018,291.9340861000019,,,,,,,,PN_en,001,2025-03-14_19h52.23.295,MainFlow,2024.2.4,144.67341424580547,2025-03-14 19h52.30.249882 +0700,
2,26,0,word/worden0261.png,image/False/imgf26.png,94,94,0,x,0.5464568999959738,None,0,94,94,94,292.23993340000015,,,,,,,293.7275370999996,293.227461399998,293.2339772999985,293.2339772999985,293.72081099999923,294.8397812999974,294.8397812999974,x,0.5464568999959738,None,293.7275370999996,293.7275370999996,294.8397812999974,,,,,,,,PN_en,001,2025-03-14_19h52.23.295,MainFlow,2024.2.4,144.67341424580547,2025-03-14 19h52.30.249882 +0700,
2,44,0,word/worden0441.png,image/False/imgf44.png,95,95,0,x,1.3436734999995679,None,0,95,95,95,295.39586399999826,,,,,,,296.88346640000236,296.3834854000015,296.3898820000031,296.3898820000031,296.876757799997,297.99557630000345,297.99557630000345,x,1.3436734999995679,None,296.88346640000236,296.88346640000236,297.99557630000345,,,,,,,,PN_en,001,2025-03-14_19h52.23.295,MainFlow,2024.2.4,144.67341424580547,2025-03-14 19h52.30.249882 +0700,
2,82,1,word/worden0821.png,image/True/img82.png,96,96,0,z,0.76593110000249,None,0,96,96,96,299.3503637000031,,,,,,,300.8388011999996,300.3388075999974,300.34525790000043,300.34525790000043,300.83211350000056,301.9093181999997,301.9093181999997,z,0.76593110000249,None,300.8388011999996,300.8388011999996,301.9093181999997,,,,,,,,PN_en,001,2025-03-14_19h52.23.295,MainFlow,2024.2.4,144.67341424580547,2025-03-14 19h52.30.249882 +0700,
2,16,1,word/worden0161.png,image/True/img16.png,97,97,0,z,0.509506300004432,None,0,97,97,97,302.687877999997,,,,,,,304.17545979999704,303.67529349999677,303.6819115000035,303.6819115000035,304.1687613000031,305.29473970000254,305.29473970000254,z,0.509506300004432,None,304.17545979999704,304.17545979999704,305.29473970000254,,,,,,,,PN_en,001,2025-03-14_19h52.23.295,MainFlow,2024.2.4,144.67341424580547,2025-03-14 19h52.30.249882 +0700,
2,20,1,word/worden0201.png,image/True/img20.png,98,98,0,z,0.6535401000001002,None,0,98,98,98,305.8159441000025,,,,,,,307.31050530000357,306.8063267999969,306.8169793999987,306.8169793999987,307.3037957999986,308.4227503000002,308.4227503000002,z,0.6535401000001002,None,307.31050530000357,307.31050530000357,308.4227503000002,,,,,,,,PN_en,001,2025-03-14_19h52.23.295,MainFlow,2024.2.4,144.67341424580547,2025-03-14 19h52.30.249882 +0700,
2,20,1,word/worden0201.png,image/True/img20.png,99,99,0,z,0.5700934999986202,None,0,99,99,99,309.0831349,,,,,,,310.5707123000029,310.07085689999803,310.0770412999991,310.0770412999991,310.5640123999983,311.6751660000009,311.6751660000009,z,0.5700934999986202,None,310.5707123000029,310.5707123000029,311.6751660000009,,,,,,,,PN_en,001,2025-03-14_19h52.23.295,MainFlow,2024.2.4,144.67341424580547,2025-03-14 19h52.30.249882 +0700,
2,96,1,word/worden0961.png,image/True/img96.png,100,100,0,z,0.6474518000031821,None,0,100,100,100,312.25293070000043,,,,,,,313.74052420000226,313.240630100001,313.24685509999836,313.24685509999836,313.73382790000323,314.84580450000067,314.84580450000067,z,0.6474518000031821,None,313.74052420000226,313.74052420000226,314.84580450000067,,,,,,,,PN_en,001,2025-03-14_19h52.23.295,MainFlow,2024.2.4,144.67341424580547,2025-03-14 19h52.30.249882 +0700,
2,64,1,word/worden0641.png,image/True/img64.png,101,101,0,z,0.5762127000052715,None,0,101,101,101,315.5062220999971,,,,,,,316.9937938000003,316.493762099999,316.5002224999989,316.5002224999989,316.9870927000011,318.07814849999704,318.07814849999704,z,0.5762127000052715,None,316.9937938000003,316.9937938000003,318.07814849999704,,,,,,,,PN_en,001,2025-03-14_19h52.23.295,MainFlow,2024.2.4,144.67341424580547,2025-03-14 19h52.30.249882 +0700,
2,78,0,word/worden0781.png,image/False/imgf78.png,102,102,0,x,0.364089700000477,None,0,102,102,102,318.66213750000315,,,,,,,320.149699900001,319.64961010000115,319.65615550000075,319.65615550000075,320.14301780000096,321.234157400002,321.234157400002,x,0.364089700000477,None,320.149699900001,320.149699900001,321.234157400002,,,,,,,,PN_en,001,2025-03-14_19h52.23.295,MainFlow,2024.2.4,144.67341424580547,2025-03-14 19h52.30.249882 +0700,
2,20,0,word/worden0201.png,image/False/imgf20.png,103,103,0,x,0.47100650000356836,None,0,103,103,103,321.6095107000001,,,,,,,323.0971161999987,322.5972486000028,322.60342110000056,322.60342110000056,323.09041750000324,324.2232554000002,324.2232554000002,x,0.47100650000356836,None,323.0971161999987,323.0971161999987,324.2232554000002,,,,,,,,PN_en,001,2025-03-14_19h52.23.295,MainFlow,2024.2.4,144.67341424580547,2025-03-14 19h52.30.249882 +0700,
2,89,1,word/worden0891.png,image/True/img89.png,104,104,0,z,0.52328920000582,None,0,104,104,104,324.70283519999793,,,,,,,326.1904452000017,325.6903126000034,325.696895699999,325.696895699999,326.18373460000294,327.2679719000007,327.2679719000007,z,0.52328920000582,None,326.1904452000017,326.1904452000017,327.2679719000007,,,,,,,,PN_en,001,2025-03-14_19h52.23.295,MainFlow,2024.2.4,144.67341424580547,2025-03-14 19h52.30.249882 +0700,
2,59,0,word/worden0591.png,image/False/imgf59.png,105,105,0,x,0.6720407000029809,None,0,105,105,105,327.80319579999923,,,,,,,329.2907594999997,328.79063809999934,328.79724149999674,328.79724149999674,329.28408269999636,330.37520879999647,330.37520879999647,x,0.6720407000029809,None,329.2907594999997,329.2907594999997,330.37520879999647,,,,,,,,PN_en,001,2025-03-14_19h52.23.295,MainFlow,2024.2.4,144.67341424580547,2025-03-14 19h52.30.249882 +0700,
2,24,0,word/worden0241.png,image/False/imgf24.png,106,106,0,x,0.7898918999999296,None,0,106,106,106,331.0556923999975,,,,,,,332.5440250000029,332.04563380000036,332.04966219999915,332.04966219999915,332.5373286999966,333.6423605000018,333.6423605000018,x,0.7898918999999296,None,332.5440250000029,332.5440250000029,333.6423605000018,,,,,,,,PN_en,001,2025-03-14_19h52.23.295,MainFlow,2024.2.4,144.67341424580547,2025-03-14 19h52.30.249882 +0700,
2,28,0,word/worden0281.png,image/False/imgf28.png,107,107,0,x,0.5715322000032756,None,0,107,107,107,334.4417336999977,,,,,,,335.9293312000009,335.4295093999972,335.43566850000207,335.43566850000207,335.9226525999984,337.0207192000016,337.0207192000016,x,0.5715322000032756,None,335.9293312000009,335.9293312000009,337.0207192000016,,,,,,,,PN_en,001,2025-03-14_19h52.23.295,MainFlow,2024.2.4,144.67341424580547,2025-03-14 19h52.30.249882 +0700,
2,15,0,word/worden0151.png,image/False/imgf15.png,108,108,0,x,0.4336805999992066,None,0,108,108,108,337.6046378000028,,,,,,,339.09217309999804,338.5927905999997,338.5982345000011,338.5982345000011,339.0855429000003,340.1905820999964,340.1905820999964,x,0.4336805999992066,None,339.09217309999804,339.09217309999804,340.1905820999964,,,,,,,,PN_en,001,2025-03-14_19h52.23.295,MainFlow,2024.2.4,144.67341424580547,2025-03-14 19h52.30.249882 +0700,
2,30,1,word/worden0301.png,image/True/img30.png,109,109,0,z,0.46368709999660496,None,0,109,109,109,340.63531019999937,,,,,,,342.1299657999989,341.6250125000006,341.63643160000356,341.63643160000356,342.12329979999777,343.21356379999634,343.21356379999634,z,0.46368709999660496,None,342.1299657999989,342.1299657999989,343.21356379999634,,,,,,,,PN_en,001,2025-03-14_19h52.23.295,MainFlow,2024.2.4,144.67341424580547,2025-03-14 19h52.30.249882 +0700,
2,64,1,word/worden0641.png,image/True/img64.png,110,110,0,z,0.4451623999993899,None,0,110,110,110,343.6870901000002,,,,,,,345.1746904000029,344.67463220000354,344.6811044999995,344.6811044999995,345.1679862000019,346.2521498999995,346.2521498999995,z,0.4451623999993899,None,345.1746904000029,345.1746904000029,346.2521498999995,,,,,,,,PN_en,001,2025-03-14_19h52.23.295,MainFlow,2024.2.4,144.67341424580547,2025-03-14 19h52.30.249882 +0700,
2,52,0,word/worden0521.png,image/False/imgf52.png,111,111,0,x,1.1432942999963416,None,0,111,111,111,346.7109188000031,,,,,,,348.19855169999937,347.69869969999854,347.7048464999971,347.7048464999971,348.19182290000026,349.2829553999982,349.2829553999982,x,1.1432942999963416,None,348.19855169999937,348.19855169999937,349.2829553999982,,,,,,,,PN_en,001,2025-03-14_19h52.23.295,MainFlow,2024.2.4,144.67341424580547,2025-03-14 19h52.30.249882 +0700,
2,33,1,word/worden0331.png,image/True/img33.png,112,112,0,z,0.4515986999977031,None,0,112,112,112,350.4368525000027,,,,,,,351.92447790000006,351.4246327000001,351.4307852999991,351.4307852999991,351.91774180000357,353.0226629000026,353.0226629000026,z,0.4515986999977031,None,351.92447790000006,351.92447790000006,353.0226629000026,,,,,,,,PN_en,001,2025-03-14_19h52.23.295,MainFlow,2024.2.4,144.67341424580547,2025-03-14 19h52.30.249882 +0700,
2,23,1,word/worden0231.png,image/True/img23.png,113,113,0,z,0.4627727000042796,None,0,113,113,113,353.48155450000195,,,,,,,354.9691815999977,354.4692670000004,354.4754957999976,354.4754957999976,354.96249030000035,356.06749919999857,356.06749919999857,z,0.4627727000042796,None,354.9691815999977,354.9691815999977,356.06749919999857,,,,,,,,PN_en,001,2025-03-14_19h52.23.295,MainFlow,2024.2.4,144.67341424580547,2025-03-14 19h52.30.249882 +0700,
2,11,1,word/worden0111.png,image/True/img11.png,114,114,0,z,2.9203329000010854,None,0,114,114,114,356.5401922000019,,,,,,,358.0277914000035,357.52801739999995,357.5341044000015,357.5341044000015,358.021084699998,359.14691969999694,359.14691969999694,z,2.9203329000010854,None,358.0277914000035,358.0277914000035,359.14691969999694,,,,,,,,PN_en,001,2025-03-14_19h52.23.295,MainFlow,2024.2.4,144.67341424580547,2025-03-14 19h52.30.249882 +0700,
2,22,1,word/worden0221.png,image/True/img22.png,115,115,0,z,0.549058700002206,None,0,115,115,115,362.0804161999986,,,,,,,363.5680438999989,363.06766490000155,363.0744743999967,363.0744743999967,363.56133070000215,364.6872013000029,364.6872013000029,z,0.549058700002206,None,363.5680438999989,363.5680438999989,364.6872013000029,,,,,,,,PN_en,001,2025-03-14_19h52.23.295,MainFlow,2024.2.4,144.67341424580547,2025-03-14 19h52.30.249882 +0700,
2,37,0,word/worden0371.png,image/False/imgf37.png,116,116,0,x,0.4341790000034962,None,0,116,116,116,365.24326219999784,,,,,,,366.7308535999982,366.23083880000195,366.2373105000006,366.2373105000006,366.72417600000335,367.85008740000194,367.85008740000194,x,0.4341790000034962,None,366.7308535999982,366.7308535999982,367.85008740000194,,,,,,,,PN_en,001,2025-03-14_19h52.23.295,MainFlow,2024.2.4,144.67341424580547,2025-03-14 19h52.30.249882 +0700,
2,79,0,word/worden0791.png,image/False/imgf79.png,117,117,0,x,0.4923999999955413,None,0,117,117,117,368.29499660000147,,,,,,,369.7825559999983,369.2826025999966,369.28888690000167,369.28888690000167,369.77589279999665,370.88784779999696,370.88784779999696,x,0.4923999999955413,None,369.7825559999983,369.7825559999983,370.88784779999696,,,,,,,,PN_en,001,2025-03-14_19h52.23.295,MainFlow,2024.2.4,144.67341424580547,2025-03-14 19h52.30.249882 +0700,
2,56,1,word/worden0561.png,image/True/img56.png,118,118,0,z,0.43793850000656676,None,0,118,118,118,371.38832120000006,,,,,,,372.87590900000214,372.3759071000022,372.38237859999936,372.38237859999936,372.86930140000186,373.9673124999972,373.9673124999972,z,0.43793850000656676,None,372.87590900000214,372.87590900000214,373.9673124999972,,,,,,,,PN_en,001,2025-03-14_19h52.23.295,MainFlow,2024.2.4,144.67341424580547,2025-03-14 19h52.30.249882 +0700,
2,68,1,word/worden0681.png,image/True/img68.png,119,119,0,z,0.5229495000021416,None,0,119,119,119,374.4121763000003,,,,,,,375.89977669999644,375.39975499999855,375.4061084999994,375.4061084999994,375.89305140000215,376.9702984999967,376.9702984999967,z,0.5229495000021416,None,375.89977669999644,375.89977669999644,376.9702984999967,,,,,,,,PN_en,001,2025-03-14_19h52.23.295,MainFlow,2024.2.4,144.67341424580547,2025-03-14 19h52.30.249882 +0700,
2,27,0,word/worden0271.png,image/False/imgf27.png,120,120,0,x,0.41819240000040736,None,0,120,120,120,377.5055448999992,,,,,,,378.9931407999975,378.4929161999971,378.49960750000173,378.49960750000173,378.9864824000033,380.0840648000012,380.0840648000012,x,0.41819240000040736,None,378.9931407999975,378.9931407999975,380.0840648000012,,,,,,,,PN_en,001,2025-03-14_19h52.23.295,MainFlow,2024.2.4,144.67341424580547,2025-03-14 19h52.30.249882 +0700,
2,3,1,word/worden0031.png,image/True/img03.png,121,121,0,z,0.6328437000047415,None,0,121,121,121,380.5155089999971,,,,,,,382.0030620999969,381.5031825999977,381.5093949000002,381.5093949000002,381.99638660000346,383.10142189999897,383.10142189999897,z,0.6328437000047415,None,382.0030620999969,382.0030620999969,383.10142189999897,,,,,,,,PN_en,001,2025-03-14_19h52.23.295,MainFlow,2024.2.4,144.67341424580547,2025-03-14 19h52.30.249882 +0700,
2,38,0,word/worden0381.png,image/False/imgf38.png,122,122,0,x,0.3725456999964081,None,0,122,122,122,383.7478659999979,,,,,,,385.23539750000054,384.73479000000225,384.74109560000215,384.74109560000215,385.2287475999983,386.36170960000163,386.36170960000163,x,0.3725456999964081,None,385.23539750000054,385.23539750000054,386.36170960000163,,,,,,,,PN_en,001,2025-03-14_19h52.23.295,MainFlow,2024.2.4,144.67341424580547,2025-03-14 19h52.30.249882 +0700,
2,59,1,word/worden0591.png,image/True/img59.png,123,123,0,z,0.3862613000019337,None,0,123,123,123,386.7438946999973,,,,,,,388.2314719999995,387.73135380000167,387.7379443000027,387.7379443000027,388.22483040000225,389.30899269999645,389.30899269999645,z,0.3862613000019337,None,388.2314719999995,388.2314719999995,389.30899269999645,,,,,,,,PN_en,001,2025-03-14_19h52.23.295,MainFlow,2024.2.4,144.67341424580547,2025-03-14 19h52.30.249882 +0700,
2,18,1,word/worden0181.png,image/True/img18.png,124,124,0,z,0.42710109999461565,None,0,124,124,124,389.7052205,,,,,,,391.19976309999765,390.69516770000337,390.7062154000014,390.7062154000014,391.19304040000134,392.28417289999925,392.28417289999925,z,0.42710109999461565,None,391.19976309999765,391.19976309999765,392.28417289999925,,,,,,,,PN_en,001,2025-03-14_19h52.23.295,MainFlow,2024.2.4,144.67341424580547,2025-03-14 19h52.30.249882 +0700,
2,60,1,word/worden0601.png,image/True/img60.png,125,125,0,z,0.5629633999997168,None,0,125,125,125,392.7221094999986,,,,,,,394.20971439999994,393.70969049999985,393.7161313999968,393.7161313999968,394.2030322999999,395.2932824000018,395.2932824000018,z,0.5629633999997168,None,394.20971439999994,394.20971439999994,395.2932824000018,,,,,,,,PN_en,001,2025-03-14_19h52.23.295,MainFlow,2024.2.4,144.67341424580547,2025-03-14 19h52.30.249882 +0700,
2,9,1,word/worden0091.png,image/True/img09.png,126,126,0,z,0.5950351000064984,None,0,126,126,126,395.86411809999845,,,,,,,397.3586523999984,396.85349549999955,396.86511079999764,396.86511079999764,397.3519954000003,398.42921200000274,398.42921200000274,z,0.5950351000064984,None,397.3586523999984,397.3586523999984,398.42921200000274,,,,,,,,PN_en,001,2025-03-14_19h52.23.295,MainFlow,2024.2.4,144.67341424580547,2025-03-14 19h52.30.249882 +0700,
2,9,0,word/worden0091.png,image/False/imgf09.png,127,127,0,x,0.5526628000006895,None,0,127,127,127,399.0339698000025,,,,,,,400.5215526000029,400.0214089000001,400.0278868000023,400.0278868000023,400.51487110000016,401.59162189999915,401.59162189999915,x,0.5526628000006895,None,400.5215526000029,400.5215526000029,401.59162189999915,,,,,,,,PN_en,001,2025-03-14_19h52.23.295,MainFlow,2024.2.4,144.67341424580547,2025-03-14 19h52.30.249882 +0700,
2,94,0,word/worden0941.png,image/False/imgf94.png,128,128,0,x,0.5363729000018793,None,0,128,128,128,402.15513980000105,,,,,,,403.64964920000057,403.1451038000014,403.1561453000031,403.1561453000031,403.64297400000214,404.7688844000004,404.7688844000004,x,0.5363729000018793,None,403.64964920000057,403.64964920000057,404.7688844000004,,,,,,,,PN_en,001,2025-03-14_19h52.23.295,MainFlow,2024.2.4,144.67341424580547,2025-03-14 19h52.30.249882 +0700,
2,66,1,word/worden0661.png,image/True/img66.png,129,129,0,z,0.2421314999955939,None,0,129,129,129,405.3180203000011,,,,,,,406.8056102999981,406.30555399999866,406.31211690000055,406.31211690000055,406.7988705000025,407.9031185999993,407.9031185999993,z,0.2421314999955939,None,406.8056102999981,406.8056102999981,407.9031185999993,,,,,,,,PN_en,001,2025-03-14_19h52.23.295,MainFlow,2024.2.4,144.67341424580547,2025-03-14 19h52.30.249882 +0700,
2,1,0,word/worden0011.png,image/False/imgf01.png,130,130,0,x,0.5960550000017975,None,0,130,130,130,408.1541584000006,,,,,,,409.64177159999963,409.1417089000024,409.1482071999999,409.1482071999999,409.63507409999875,410.7261889000001,410.7261889000001,x,0.5960550000017975,None,409.64177159999963,409.64177159999963,410.7261889000001,,,,,,,,PN_en,001,2025-03-14_19h52.23.295,MainFlow,2024.2.4,144.67341424580547,2025-03-14 19h52.30.249882 +0700,
2,89,0,word/worden0891.png,image/False/imgf89.png,131,131,0,x,0.6044815000059316,None,0,131,131,131,411.33095909999975,,,,,,,412.81841919999715,412.3184695000018,412.3250060999999,412.3250060999999,412.81185050000204,413.9097898999971,413.9097898999971,x,0.6044815000059316,None,412.81841919999715,412.81841919999715,413.9097898999971,,,,,,,,PN_en,001,2025-03-14_19h52.23.295,MainFlow,2024.2.4,144.67341424580547,2025-03-14 19h52.30.249882 +0700,
2,48,1,word/worden0481.png,image/True/img48.png,132,132,0,z,0.43483220000052825,None,0,132,132,132,414.52774079999654,,,,,,,416.0161994000009,415.5163268999968,415.5224913999991,415.5224913999991,416.00947160000214,417.1284222000031,417.1284222000031,z,0.43483220000052825,None,416.0161994000009,416.0161994000009,417.1284222000031,,,,,,,,PN_en,001,2025-03-14_19h52.23.295,MainFlow,2024.2.4,144.67341424580547,2025-03-14 19h52.30.249882 +0700,
2,63,0,word/worden0631.png,image/False/imgf63.png,133,133,0,x,0.3821364999967045,None,0,133,133,133,417.57328669999697,,,,,,,419.06783110000106,418.5628699000008,418.57429189999675,418.57429189999675,419.0611261000013,420.17311840000184,420.17311840000184,x,0.3821364999967045,None,419.06783110000106,419.06783110000106,420.17311840000184,,,,,,,,PN_en,001,2025-03-14_19h52.23.295,MainFlow,2024.2.4,144.67341424580547,2025-03-14 19h52.30.249882 +0700,
2,23,1,word/worden0231.png,image/True/img23.png,134,134,0,z,0.350964400000521,None,0,134,134,134,420.56236579999677,,,,,,,422.0499689999997,421.5500011999975,421.55630609999935,421.55630609999935,422.04329020000296,423.1482929999984,423.1482929999984,z,0.350964400000521,None,422.0499689999997,422.0499689999997,423.1482929999984,,,,,,,,PN_en,001,2025-03-14_19h52.23.295,MainFlow,2024.2.4,144.67341424580547,2025-03-14 19h52.30.249882 +0700,
2,40,0,word/worden0401.png,image/False/imgf40.png,135,135,0,x,0.39657679999800166,None,0,135,135,135,423.5097480999975,,,,,,,424.9973644999991,424.49730470000213,424.50374159999774,424.50374159999774,424.99066080000193,426.0956922999976,426.0956922999976,x,0.39657679999800166,None,424.9973644999991,424.9973644999991,426.0956922999976,,,,,,,,PN_en,001,2025-03-14_19h52.23.295,MainFlow,2024.2.4,144.67341424580547,2025-03-14 19h52.30.249882 +0700,
2,52,1,word/worden0521.png,image/True/img52.png,136,136,0,z,0.44261359999654815,None,0,136,136,136,426.50580569999875,,,,,,,427.993392700002,427.4934293999977,427.49971430000005,427.49971430000005,427.986705000003,429.1056488000031,429.1056488000031,z,0.44261359999654815,None,427.993392700002,427.993392700002,429.1056488000031,,,,,,,,PN_en,001,2025-03-14_19h52.23.295,MainFlow,2024.2.4,144.67341424580547,2025-03-14 19h52.30.249882 +0700,
2,30,1,word/worden0301.png,image/True/img30.png,137,137,0,z,0.4277025999981561,None,0,137,137,137,429.55743919999804,,,,,,,431.04506409999885,430.5451286000025,430.5515563000008,430.5515563000008,431.0383809999985,432.1295555999968,432.1295555999968,z,0.4277025999981561,None,431.04506409999885,431.04506409999885,432.1295555999968,,,,,,,,PN_en,001,2025-03-14_19h52.23.295,MainFlow,2024.2.4,144.67341424580547,2025-03-14 19h52.30.249882 +0700,
2,15,1,word/worden0151.png,image/True/img15.png,138,138,0,z,0.5659940999976243,None,0,138,138,138,432.56739240000024,,,,,,,434.0550141999993,433.5548512000023,433.56146389999776,433.56146389999776,434.048318000001,435.16728429999785,435.16728429999785,z,0.5659940999976243,None,434.0550141999993,434.0550141999993,435.16728429999785,,,,,,,,PN_en,001,2025-03-14_19h52.23.295,MainFlow,2024.2.4,144.67341424580547,2025-03-14 19h52.30.249882 +0700,
2,46,1,word/worden0461.png,image/True/img46.png,139,139,0,z,0.42936319999716943,None,0,139,139,139,435.74415540000336,,,,,,,437.2317628000019,436.7316376000017,436.7382082999975,436.7382082999975,437.2250449999992,438.3438888000019,438.3438888000019,z,0.42936319999716943,None,437.2317628000019,437.2317628000019,438.3438888000019,,,,,,,,PN_en,001,2025-03-14_19h52.23.295,MainFlow,2024.2.4,144.67341424580547,2025-03-14 19h52.30.249882 +0700,
2,14,1,word/worden0141.png,image/True/img14.png,140,140,0,z,0.503262199999881,None,0,140,140,140,438.78194369999983,,,,,,,440.2695163000026,439.76967929999955,439.77585250000266,439.77585250000266,440.26282560000254,441.3670190999983,441.3670190999983,z,0.503262199999881,None,440.2695163000026,440.2695163000026,441.3670190999983,,,,,,,,PN_en,001,2025-03-14_19h52.23.295,MainFlow,2024.2.4,144.67341424580547,2025-03-14 19h52.30.249882 +0700,
2,66,0,word/worden0661.png,image/False/imgf66.png,141,141,0,x,0.4671280999973533,None,0,141,141,141,441.88225789999706,,,,,,,443.36982810000336,442.8697958999983,442.8763669999971,442.8763669999971,443.363145000003,444.4751233999996,444.4751233999996,x,0.4671280999973533,None,443.36982810000336,443.36982810000336,444.4751233999996,,,,,,,,PN_en,001,2025-03-14_19h52.23.295,MainFlow,2024.2.4,144.67341424580547,2025-03-14 19h52.30.249882 +0700,
2,46,0,word/worden0461.png,image/False/imgf46.png,142,142,0,x,0.46973650000290945,None,0,142,142,142,444.9547365000035,,,,,,,446.44236239999736,445.9422427000027,445.9487719000026,445.9487719000026,446.4356721000004,447.5615172999969,447.5615172999969,x,0.46973650000290945,None,446.44236239999736,446.44236239999736,447.5615172999969,,,,,,,,PN_en,001,2025-03-14_19h52.23.295,MainFlow,2024.2.4,144.67341424580547,2025-03-14 19h52.30.249882 +0700,
2,18,1,word/worden0181.png,image/True/img18.png,143,143,0,z,0.49004669999703765,None,0,143,143,143,448.0410688999982,,,,,,,449.5287354999964,449.0287623999975,449.03508619999775,449.03508619999775,449.5220502000011,450.6131991000002,450.6131991000002,z,0.49004669999703765,None,449.5287354999964,449.5287354999964,450.6131991000002,,,,,,,,PN_en,001,2025-03-14_19h52.23.295,MainFlow,2024.2.4,144.67341424580547,2025-03-14 19h52.30.249882 +0700,
2,51,0,word/worden0511.png,image/False/imgf51.png,144,144,0,x,0.6905895000018063,None,0,144,144,144,451.11369399999967,,,,,,,452.60820789999707,452.1028229000003,452.1146529000034,452.1146529000034,452.60153880000144,453.6926628000001,453.6926628000001,x,0.6905895000018063,None,452.60820789999707,452.60820789999707,453.6926628000001,,,,,,,,PN_en,001,2025-03-14_19h52.23.295,MainFlow,2024.2.4,144.67341424580547,2025-03-14 19h52.30.249882 +0700,
2,76,1,word/worden0761.png,image/True/img76.png,145,145,0,z,0.4913775999957579,None,0,145,145,145,454.39390560000174,,,,,,,455.8823276999974,455.38296770000306,455.38796459999867,455.38796459999867,455.8756233000022,456.9728709999981,456.9728709999981,z,0.4913775999957579,None,455.8823276999974,455.8823276999974,456.9728709999981,,,,,,,,PN_en,001,2025-03-14_19h52.23.295,MainFlow,2024.2.4,144.67341424580547,2025-03-14 19h52.30.249882 +0700,
2,57,1,word/worden0571.png,image/True/img57.png,146,146,0,z,0.4361348000020371,None,0,146,146,146,457.474189200002,,,,,,,458.9618040999994,458.4618143999978,458.4682369000002,458.4682369000002,458.95507019999786,460.06011320000107,460.06011320000107,z,0.4361348000020371,None,458.9618040999994,458.9618040999994,460.06011320000107,,,,,,,,PN_en,001,2025-03-14_19h52.23.295,MainFlow,2024.2.4,144.67341424580547,2025-03-14 19h52.30.249882 +0700,
2,48,0,word/worden0481.png,image/False/imgf48.png,147,147,0,x,1.6415926000045147,None,0,147,147,147,460.5050055000029,,,,,,,461.992556600002,461.492499699998,461.49901549999777,461.49901549999777,461.9858624999979,463.1116598000008,463.1116598000008,x,1.6415926000045147,None,461.992556600002,461.992556600002,463.1116598000008,,,,,,,,PN_en,001,2025-03-14_19h52.23.295,MainFlow,2024.2.4,144.67341424580547,2025-03-14 19h52.30.249882 +0700,
2,37,0,word/worden0371.png,image/False/imgf37.png,148,148,0,x,0.45224600000074133,None,0,148,148,148,464.76535980000335,,,,,,,466.25378869999986,465.753996200001,465.7601122999986,465.7601122999986,466.2470661999978,467.3730171999996,467.3730171999996,x,0.45224600000074133,None,466.25378869999986,466.25378869999986,467.3730171999996,,,,,,,,PN_en,001,2025-03-14_19h52.23.295,MainFlow,2024.2.4,144.67341424580547,2025-03-14 19h52.30.249882 +0700,
2,60,0,word/worden0601.png,image/False/imgf60.png,149,149,0,x,0.4174115999994683,None,0,149,149,149,467.8386621000027,,,,,,,469.32624670000223,468.8262351000012,468.83271010000317,468.83271010000317,469.31955339999695,470.41683499999635,470.41683499999635,x,0.4174115999994683,None,469.32624670000223,469.32624670000223,470.41683499999635,,,,,,,,PN_en,001,2025-03-14_19h52.23.295,MainFlow,2024.2.4,144.67341424580547,2025-03-14 19h52.30.249882 +0700,
2,24,1,word/worden0241.png,image/True/img24.png,150,150,0,z,0.37855280000076164,None,0,150,150,150,470.8417061,,,,,,,472.329296099997,471.8293335999988,471.8357139,471.8357139,472.3225148999991,473.3996976999988,473.3996976999988,z,0.37855280000076164,None,472.329296099997,472.329296099997,473.3996976999988,,,,,,,,PN_en,001,2025-03-14_19h52.23.295,MainFlow,2024.2.4,144.67341424580547,2025-03-14 19h52.30.249882 +0700,
2,40,1,word/worden0401.png,image/True/img40.png,151,151,0,z,0.3914509000023827,None,0,151,151,151,473.7890589000017,,,,,,,475.27665739999793,474.7766623999996,474.7829886999971,474.7829886999971,475.2699520000024,476.4028057000032,476.4028057000032,z,0.3914509000023827,None,475.27665739999793,475.27665739999793,476.4028057000032,,,,,,,,PN_en,001,2025-03-14_19h52.23.295,MainFlow,2024.2.4,144.67341424580547,2025-03-14 19h52.30.249882 +0700,
2,54,1,word/worden0541.png,image/True/img54.png,152,152,0,z,0.4374530999994022,None,0,152,152,152,476.8059469,,,,,,,478.2935562999992,477.7934249000027,477.8000205999997,477.8000205999997,478.28687029999855,479.4058060000025,479.4058060000025,z,0.4374530999994022,None,478.2935562999992,478.2935562999992,479.4058060000025,,,,,,,,PN_en,001,2025-03-14_19h52.23.295,MainFlow,2024.2.4,144.67341424580547,2025-03-14 19h52.30.249882 +0700,
2,44,0,word/worden0441.png,image/False/imgf44.png,153,153,0,x,0.5447462000011001,None,0,153,153,153,479.85052690000157,,,,,,,481.33824040000036,480.8383806999991,480.84461870000086,480.84461870000086,481.3315594000014,482.4505044000034,482.4505044000034,x,0.5447462000011001,None,481.33824040000036,481.33824040000036,482.4505044000034,,,,,,,,PN_en,001,2025-03-14_19h52.23.295,MainFlow,2024.2.4,144.67341424580547,2025-03-14 19h52.30.249882 +0700,
2,79,1,word/worden0791.png,image/True/img79.png,154,154,0,z,0.6597273999941535,None,0,154,154,154,483.00659350000205,,,,,,,484.49421099999745,483.9942643000031,484.00065840000025,484.00065840000025,484.4874981999965,485.59253049999825,485.59253049999825,z,0.6597273999941535,None,484.49421099999745,484.49421099999745,485.59253049999825,,,,,,,,PN_en,001,2025-03-14_19h52.23.295,MainFlow,2024.2.4,144.67341424580547,2025-03-14 19h52.30.249882 +0700,
2,95,1,word/worden0951.png,image/True/img95.png,155,155,0,z,0.3845682000028319,None,0,155,155,155,486.2598224999965,,,,,,,487.7474415999968,487.2472592999984,487.25391140000283,487.25391140000283,487.7407525000017,488.8596869999965,488.8596869999965,z,0.3845682000028319,None,487.7474415999968,487.7474415999968,488.8596869999965,,,,,,,,PN_en,001,2025-03-14_19h52.23.295,MainFlow,2024.2.4,144.67341424580547,2025-03-14 19h52.30.249882 +0700,
2,37,1,word/worden0371.png,image/True/img37.png,156,156,0,z,0.405578300000343,None,0,156,156,156,489.25589619999664,,,,,,,490.74348160000227,490.2434288000004,490.2499521999998,490.2499521999998,490.73668259999977,491.86268310000014,491.86268310000014,z,0.405578300000343,None,490.74348160000227,490.74348160000227,491.86268310000014,,,,,,,,PN_en,001,2025-03-14_19h52.23.295,MainFlow,2024.2.4,144.67341424580547,2025-03-14 19h52.30.249882 +0700,
2,70,1,word/worden0701.png,image/True/img70.png,157,157,0,z,0.3236010000036913,None,0,157,157,157,492.2797550999967,,,,,,,493.7673200999998,493.26734289999877,493.27366020000045,493.27366020000045,493.76065109999763,494.8656539000003,494.8656539000003,z,0.3236010000036913,None,493.7673200999998,493.7673200999998,494.8656539000003,,,,,,,,PN_en,001,2025-03-14_19h52.23.295,MainFlow,2024.2.4,144.67341424580547,2025-03-14 19h52.30.249882 +0700,
2,40,1,word/worden0401.png,image/True/img40.png,158,158,0,z,0.33598799999890616,None,0,158,158,158,495.1993310999969,,,,,,,496.6869153000007,496.1868241999982,496.1932839000001,496.1932839000001,496.6802147999988,497.8052620000017,497.8052620000017,z,0.33598799999890616,None,496.6869153000007,496.6869153000007,497.8052620000017,,,,,,,,PN_en,001,2025-03-14_19h52.23.295,MainFlow,2024.2.4,144.67341424580547,2025-03-14 19h52.30.249882 +0700,
2,30,0,word/worden0301.png,image/False/imgf30.png,159,159,0,z,0.22566669999650912,None,0,159,159,159,498.15366879999783,,,,,,,499.6412563999984,499.14126090000354,499.1477137999973,499.1477137999973,499.6345435999974,500.7325947999998,500.7325947999998,z,0.22566669999650912,None,499.6412563999984,499.6412563999984,500.7325947999998,,,,,,,,PN_en,001,2025-03-14_19h52.23.295,MainFlow,2024.2.4,144.67341424580547,2025-03-14 19h52.30.249882 +0700,
2,88,1,word/worden0881.png,image/True/img88.png,160,160,0,z,0.38962760000140406,None,0,160,160,160,500.9689728000012,,,,,,,502.456560300001,501.95646329999727,501.9630290999994,501.9630290999994,502.4498652999973,503.56867919999786,503.56867919999786,z,0.38962760000140406,None,502.456560300001,502.456560300001,503.56867919999786,,,,,,,,PN_en,001,2025-03-14_19h52.23.295,MainFlow,2024.2.4,144.67341424580547,2025-03-14 19h52.30.249882 +0700,
2,15,1,word/worden0151.png,image/True/img15.png,161,161,0,z,0.31445890000031795,None,0,161,161,161,503.97196350000013,,,,,,,505.4595644000001,504.9594027999992,504.9660178999984,504.9660178999984,505.45291310000175,506.5717905999991,506.5717905999991,z,0.31445890000031795,None,505.4595644000001,505.4595644000001,506.5717905999991,,,,,,,,PN_en,001,2025-03-14_19h52.23.295,MainFlow,2024.2.4,144.67341424580547,2025-03-14 19h52.30.249882 +0700,
2,54,1,word/worden0541.png,image/True/img54.png,162,162,0,z,0.24601429999893298,None,0,162,162,162,506.89846399999806,,,,,,,508.38609429999633,507.8859599999996,507.89242090000334,507.89242090000334,508.3794052000012,509.50523509999766,509.50523509999766,z,0.24601429999893298,None,508.38609429999633,508.38609429999633,509.50523509999766,,,,,,,,PN_en,001,2025-03-14_19h52.23.295,MainFlow,2024.2.4,144.67341424580547,2025-03-14 19h52.30.249882 +0700,
2,11,0,word/worden0111.png,image/False/imgf11.png,163,163,0,x,0.39012150000053225,None,0,163,163,163,509.76233109999885,,,,,,,511.25007370000094,510.75018799999816,510.7563796999966,510.7563796999966,511.2433741999994,512.3691506999967,512.3691506999967,x,0.39012150000053225,None,511.25007370000094,511.25007370000094,512.3691506999967,,,,,,,,PN_en,001,2025-03-14_19h52.23.295,MainFlow,2024.2.4,144.67341424580547,2025-03-14 19h52.30.249882 +0700,
2,16,1,word/worden0161.png,image/True/img16.png,164,164,0,z,0.31499800000165123,None,0,164,164,164,512.7724137999976,,,,,,,514.259876199998,513.7599001999988,513.7664587000036,513.7664587000036,514.2533517999982,515.3722493000023,515.3722493000023,z,0.31499800000165123,None,514.259876199998,514.259876199998,515.3722493000023,,,,,,,,PN_en,001,2025-03-14_19h52.23.295,MainFlow,2024.2.4,144.67341424580547,2025-03-14 19h52.30.249882 +0700,
2,1,1,word/worden0011.png,image/True/img01.png,165,165,0,z,0.28662569999869447,None,0,165,165,165,515.6989440000034,,,,,,,517.186540499999,516.6865977999987,516.6928813999984,516.6928813999984,517.1798495999974,518.3056394000014,518.3056394000014,z,0.28662569999869447,None,517.186540499999,517.186540499999,518.3056394000014,,,,,,,,PN_en,001,2025-03-14_19h52.23.295,MainFlow,2024.2.4,144.67341424580547,2025-03-14 19h52.30.249882 +0700,
2,22,0,word/worden0221.png,image/False/imgf22.png,166,166,0,x,0.3867697000023327,None,0,166,166,166,518.6046178000033,,,,,,,520.0921982,519.5920562999963,519.5986589000022,519.5986589000022,520.0855146000031,521.197494,521.197494,x,0.3867697000023327,None,520.0921982,520.0921982,521.197494,,,,,,,,PN_en,001,2025-03-14_19h52.23.295,MainFlow,2024.2.4,144.67341424580547,2025-03-14 19h52.30.249882 +0700,
2,63,1,word/worden0631.png,image/True/img63.png,167,167,0,z,0.509637199997087,None,0,167,167,167,521.5937109000006,,,,,,,523.0813077999992,522.5811037000021,522.5877620999963,522.5877620999963,523.0746131999986,524.179621000003,524.179621000003,z,0.509637199997087,None,523.0813077999992,523.0813077999992,524.179621000003,,,,,,,,PN_en,001,2025-03-14_19h52.23.295,MainFlow,2024.2.4,144.67341424580547,2025-03-14 19h52.30.249882 +0700,
2,87,1,word/worden0871.png,image/True/img87.png,168,168,0,z,0.3574663000035798,None,0,168,168,168,524.700946099998,,,,,,,526.1885340000008,525.6883985000022,525.6949980999998,525.6949980999998,526.1818366000007,527.307779499999,527.307779499999,z,0.3574663000035798,None,526.1885340000008,526.1885340000008,527.307779499999,,,,,,,,PN_en,001,2025-03-14_19h52.23.295,MainFlow,2024.2.4,144.67341424580547,2025-03-14 19h52.30.249882 +0700,
2,57,0,word/worden0571.png,image/False/imgf57.png,169,169,0,x,0.6213072999962606,None,0,169,169,169,527.6761390999964,,,,,,,529.1637571000028,528.6637803999984,528.6700770000025,528.6700770000025,529.1570346000008,530.2759396999973,530.2759396999973,x,0.6213072999962606,None,529.1637571000028,529.1637571000028,530.2759396999973,,,,,,,,PN_en,001,2025-03-14_19h52.23.295,MainFlow,2024.2.4,144.67341424580547,2025-03-14 19h52.30.249882 +0700,
2,94,0,word/worden0941.png,image/False/imgf94.png,170,170,0,x,0.47089159999450203,None,0,170,170,170,530.9084182000006,,,,,,,532.3960131999993,531.8964454000015,531.9024921000018,531.9024921000018,532.3894624000022,533.5153542999979,533.5153542999979,x,0.47089159999450203,None,532.3960131999993,532.3960131999993,533.5153542999979,,,,,,,,PN_en,001,2025-03-14_19h52.23.295,MainFlow,2024.2.4,144.67341424580547,2025-03-14 19h52.30.249882 +0700,
2,93,0,word/worden0931.png,image/False/imgf93.png,171,171,0,x,0.3963201000005938,None,0,171,171,171,533.9949532000028,,,,,,,535.4825562999977,534.9827337000024,534.9888767000011,534.9888767000011,535.4758791999993,536.5739424999992,536.5739424999992,x,0.3963201000005938,None,535.4825562999977,535.4825562999977,536.5739424999992,,,,,,,,PN_en,001,2025-03-14_19h52.23.295,MainFlow,2024.2.4,144.67341424580547,2025-03-14 19h52.30.249882 +0700,
2,61,1,word/worden0611.png,image/True/img61.png,172,172,0,z,0.2892522000038298,None,0,172,172,172,536.9770795000004,,,,,,,538.4647078999988,537.9646947000001,537.9710096999988,537.9710096999988,538.4579794000019,539.5699925000008,539.5699925000008,z,0.2892522000038298,None,538.4647078999988,538.4647078999988,539.5699925000008,,,,,,,,PN_en,001,2025-03-14_19h52.23.295,MainFlow,2024.2.4,144.67341424580547,2025-03-14 19h52.30.249882 +0700,
2,28,1,word/worden0281.png,image/True/img28.png,173,173,0,z,0.8225523000000976,None,0,173,173,173,539.8689053999988,,,,,,,541.3564759000001,540.8565299999973,540.8627856000021,540.8627856000021,541.3497869999992,542.4687138000008,542.4687138000008,z,0.8225523000000976,None,541.3564759000001,541.3564759000001,542.4687138000008,,,,,,,,PN_en,001,2025-03-14_19h52.23.295,MainFlow,2024.2.4,144.67341424580547,2025-03-14 19h52.30.249882 +0700,
2,46,1,word/worden0461.png,image/True/img46.png,174,174,0,z,0.8467302999997628,None,0,174,174,174,543.3028488999989,,,,,,,544.790419500001,544.2902826999998,544.296746699998,544.296746699998,544.7838017000031,545.9095096000019,545.9095096000019,z,0.8467302999997628,None,544.790419500001,544.790419500001,545.9095096000019,,,,,,,,PN_en,001,2025-03-14_19h52.23.295,MainFlow,2024.2.4,144.67341424580547,2025-03-14 19h52.30.249882 +0700,
2,22,1,word/worden0221.png,image/True/img22.png,175,175,0,z,0.8258859000052325,None,0,175,175,175,546.7646106999964,,,,,,,548.2522051999986,547.7520263999977,547.7586433000033,547.7586433000033,548.2455019999979,549.3783756999983,549.3783756999983,z,0.8258859000052325,None,548.2522051999986,548.2522051999986,549.3783756999983,,,,,,,,PN_en,001,2025-03-14_19h52.23.295,MainFlow,2024.2.4,144.67341424580547,2025-03-14 19h52.30.249882 +0700,
2,93,1,word/worden0931.png,image/True/img93.png,176,176,0,z,0.35675500000070315,None,0,176,176,176,550.2124945999967,,,,,,,551.7001481999978,551.1999566000013,551.2065212000016,551.2065212000016,551.6934448000029,552.7914960999988,552.7914960999988,z,0.35675500000070315,None,551.7001481999978,551.7001481999978,552.7914960999988,,,,,,,,PN_en,001,2025-03-14_19h52.23.295,MainFlow,2024.2.4,144.67341424580547,2025-03-14 19h52.30.249882 +0700,
2,95,1,word/worden0951.png,image/True/img95.png,177,177,0,z,0.3516003000040655,None,0,177,177,177,553.1599159000034,,,,,,,554.6475070000015,554.147292499998,554.1539518999998,554.1539518999998,554.6408074999999,555.7736470000018,555.7736470000018,z,0.3516003000040655,None,554.6475070000015,554.6475070000015,555.7736470000018,,,,,,,,PN_en,001,2025-03-14_19h52.23.295,MainFlow,2024.2.4,144.67341424580547,2025-03-14 19h52.30.249882 +0700,
2,17,0,word/worden0171.png,image/False/imgf17.png,178,178,0,x,0.5012712999960058,None,0,178,178,178,556.1351168999972,,,,,,,557.6226842000033,557.1227627999979,557.1290133000002,557.1290133000002,557.6159950000001,558.7279807000014,558.7279807000014,x,0.5012712999960058,None,557.6226842000033,557.6226842000033,558.7279807000014,,,,,,,,PN_en,001,2025-03-14_19h52.23.295,MainFlow,2024.2.4,144.67341424580547,2025-03-14 19h52.30.249882 +0700,
2,26,1,word/worden0261.png,image/True/img26.png,179,179,0,z,0.5480351000005612,None,0,179,179,179,559.2423769000015,,,,,,,560.7299582999985,560.2299588000024,560.2364355000027,560.2364355000027,560.7232824000021,561.8422188999975,561.8422188999975,z,0.5480351000005612,None,560.7299582999985,560.7299582999985,561.8422188999975,,,,,,,,PN_en,001,2025-03-14_19h52.23.295,MainFlow,2024.2.4,144.67341424580547,2025-03-14 19h52.30.249882 +0700,
2,27,1,word/worden0271.png,image/True/img27.png,180,180,0,z,3.0279445000051055,None,0,180,180,180,562.3983634999968,,,,,,,563.8858790000013,563.3856750999985,563.3923548000021,563.3923548000021,563.8792010999969,564.9703262999974,564.9703262999974,z,3.0279445000051055,None,563.8858790000013,563.8858790000013,564.9703262999974,,,,,,,,PN_en,001,2025-03-14_19h52.23.295,MainFlow,2024.2.4,144.67341424580547,2025-03-14 19h52.30.249882 +0700,
2,31,1,word/worden0311.png,image/True/img31.png,181,181,0,z,0.32422049999877345,None,0,181,181,181,568.0080506000013,,,,,,,569.4956521999993,568.9955900999994,569.0021042000008,569.0021042000008,569.4889693000005,570.5870301999967,570.5870301999967,z,0.32422049999877345,None,569.4956521999993,569.4956521999993,570.5870301999967,,,,,,,,PN_en,001,2025-03-14_19h52.23.295,MainFlow,2024.2.4,144.67341424580547,2025-03-14 19h52.30.249882 +0700,
2,33,0,word/worden0331.png,image/False/imgf33.png,182,182,0,x,0.45368389999930514,None,0,182,182,182,570.9206982000032,,,,,,,572.4082844000004,571.9084035999986,571.914595299997,571.914595299997,572.4015594000011,573.5135630000004,573.5135630000004,x,0.45368389999930514,None,572.4082844000004,572.4082844000004,573.5135630000004,,,,,,,,PN_en,001,2025-03-14_19h52.23.295,MainFlow,2024.2.4,144.67341424580547,2025-03-14 19h52.30.249882 +0700,
2,59,1,word/worden0591.png,image/True/img59.png,183,183,0,z,0.40693520000058925,None,0,183,183,183,573.9792960999985,,,,,,,575.4668797999984,574.9666732999976,574.9733459999989,574.9733459999989,575.4601978999999,576.5443702999983,576.5443702999983,z,0.40693520000058925,None,575.4668797999984,575.4668797999984,576.5443702999983,,,,,,,,PN_en,001,2025-03-14_19h52.23.295,MainFlow,2024.2.4,144.67341424580547,2025-03-14 19h52.30.249882 +0700,
2,8,1,word/worden0081.png,image/True/img08.png,184,184,0,z,0.39458469999954104,None,0,184,184,184,576.9614426999979,,,,,,,578.4490217999992,577.9489688000031,577.9553581,577.9553581,578.4423310999991,579.525659699997,579.525659699997,z,0.39458469999954104,None,578.4490217999992,578.4490217999992,579.525659699997,,,,,,,,PN_en,001,2025-03-14_19h52.23.295,MainFlow,2024.2.4,144.67341424580547,2025-03-14 19h52.30.249882 +0700,
2,63,0,word/worden0631.png,image/False/imgf63.png,185,185,0,x,0.47875289999501547,None,0,185,185,185,579.9296841000032,,,,,,,581.4172763000024,580.9169846000004,580.9237242000017,580.9237242000017,581.4105802999984,582.5294988000023,582.5294988000023,x,0.47875289999501547,None,581.4172763000024,581.4172763000024,582.5294988000023,,,,,,,,PN_en,001,2025-03-14_19h52.23.295,MainFlow,2024.2.4,144.67341424580547,2025-03-14 19h52.30.249882 +0700,
2,30,0,word/worden0301.png,image/False/imgf30.png,186,186,0,x,0.4302010999963386,None,0,186,186,186,583.0160611000028,,,,,,,584.5036468000035,584.0037472999975,584.0101264999976,584.0101264999976,584.4969958000001,585.5950589999993,585.5950589999993,x,0.4302010999963386,None,584.5036468000035,584.5036468000035,585.5950589999993,,,,,,,,PN_en,001,2025-03-14_19h52.23.295,MainFlow,2024.2.4,144.67341424580547,2025-03-14 19h52.30.249882 +0700,
2,15,0,word/worden0151.png,image/False/imgf15.png,187,187,0,x,0.533294200002274,None,0,187,187,187,586.0329788000017,,,,,,,587.520583700003,587.0204100999981,587.0270078999965,587.0270078999965,587.5138682999968,588.6119622999977,588.6119622999977,x,0.533294200002274,None,587.520583700003,587.520583700003,588.6119622999977,,,,,,,,PN_en,001,2025-03-14_19h52.23.295,MainFlow,2024.2.4,144.67341424580547,2025-03-14 19h52.30.249882 +0700,
2,71,0,word/worden0711.png,image/False/imgf71.png,188,188,0,z,0.3843462000004365,None,0,188,188,188,589.1533112000034,,,,,,,590.6417527000012,590.1415741000019,590.1481925999979,590.1481925999979,590.6350623000035,591.7609284999999,591.7609284999999,z,0.3843462000004365,None,590.6417527000012,590.6417527000012,591.7609284999999,,,,,,,,PN_en,001,2025-03-14_19h52.23.295,MainFlow,2024.2.4,144.67341424580547,2025-03-14 19h52.30.249882 +0700,
2,10,0,word/worden0101.png,image/False/imgf10.png,189,189,0,x,0.5082544999968377,None,0,189,189,189,592.1570227999982,,,,,,,593.6447504000025,593.1447944999964,593.1511983000019,593.1511983000019,593.6380377000023,594.7500246999989,594.7500246999989,x,0.5082544999968377,None,593.6447504000025,593.6447504000025,594.7500246999989,,,,,,,,PN_en,001,2025-03-14_19h52.23.295,MainFlow,2024.2.4,144.67341424580547,2025-03-14 19h52.30.249882 +0700,
2,54,0,word/worden0541.png,image/False/imgf54.png,190,190,0,x,0.40095429999928456,None,0,190,190,190,595.2713344000003,,,,,,,596.758937300001,596.2587822999994,596.2653854000018,596.2653854000018,596.7522405999989,597.8572940000013,597.8572940000013,x,0.40095429999928456,None,596.758937300001,596.758937300001,597.8572940000013,,,,,,,,PN_en,001,2025-03-14_19h52.23.295,MainFlow,2024.2.4,144.67341424580547,2025-03-14 19h52.30.249882 +0700,
2,60,0,word/worden0601.png,image/False/imgf60.png,191,191,0,x,0.4778678999937256,None,0,191,191,191,598.2674228000033,,,,,,,599.7549885999979,599.2550527999992,599.2613179999971,599.2613179999971,599.7483202000003,600.8533809,600.8533809,x,0.4778678999937256,None,599.7549885999979,599.7549885999979,600.8533809,,,,,,,,PN_en,001,2025-03-14_19h52.23.295,MainFlow,2024.2.4,144.67341424580547,2025-03-14 19h52.30.249882 +0700,
2,16,0,word/worden0161.png,image/False/imgf16.png,192,192,0,x,0.5035059000001638,None,0,192,192,192,601.3399349000028,,,,,,,602.8274944000004,602.3274021000034,602.3339772000036,602.3339772000036,602.8208324000007,603.9397456000006,603.9397456000006,x,0.5035059000001638,None,602.8274944000004,602.8274944000004,603.9397456000006,,,,,,,,PN_en,001,2025-03-14_19h52.23.295,MainFlow,2024.2.4,144.67341424580547,2025-03-14 19h52.30.249882 +0700,
2,50,1,word/worden0501.png,image/True/img50.png,193,193,0,z,0.4041720999957761,None,0,193,193,193,604.4541389000005,,,,,,,605.9417050999982,605.4417944000015,605.4480894000008,605.4480894000008,605.9350349000015,607.0400911000033,607.0400911000033,z,0.4041720999957761,None,605.9417050999982,605.9417050999982,607.0400911000033,,,,,,,,PN_en,001,2025-03-14_19h52.23.295,MainFlow,2024.2.4,144.67341424580547,2025-03-14 19h52.30.249882 +0700,
2,63,1,word/worden0631.png,image/True/img63.png,194,194,0,z,0.41034140000556363,None,0,194,194,194,607.4571189999988,,,,,,,608.9447331999982,608.4444787999964,608.4511859999984,608.4511859999984,608.9380423999974,610.0500186999998,610.0500186999998,z,0.41034140000556363,None,608.9447331999982,608.9447331999982,610.0500186999998,,,,,,,,PN_en,001,2025-03-14_19h52.23.295,MainFlow,2024.2.4,144.67341424580547,2025-03-14 19h52.30.249882 +0700,
2,24,0,word/worden0241.png,image/False/imgf24.png,195,195,0,x,0.31232760000420967,None,0,195,195,195,610.4739239999981,,,,,,,611.9615852999996,611.4616449000023,611.4680739000032,611.4680739000032,611.9549524999966,613.0599411000003,613.0599411000003,x,0.31232760000420967,None,611.9615852999996,611.9615852999996,613.0599411000003,,,,,,,,PN_en,001,2025-03-14_19h52.23.295,MainFlow,2024.2.4,144.67341424580547,2025-03-14 19h52.30.249882 +0700,
2,89,0,word/worden0891.png,image/False/imgf89.png,196,196,0,x,0.5345753000001423,None,0,196,196,196,613.3796838999988,,,,,,,614.8672966000013,614.3672662000026,614.3737690999988,614.3737690999988,614.8606126000013,615.9586781000035,615.9586781000035,x,0.5345753000001423,None,614.8672966000013,614.8672966000013,615.9586781000035,,,,,,,,PN_en,001,2025-03-14_19h52.23.295,MainFlow,2024.2.4,144.67341424580547,2025-03-14 19h52.30.249882 +0700,
2,6,0,word/worden0061.png,image/False/imgf06.png,197,197,0,x,0.5003189999988535,None,0,197,197,197,616.5008717000019,,,,,,,617.9884483999995,617.4883566999997,617.4949257999979,617.4949257999979,617.9817739999999,619.0729292000033,619.0729292000033,x,0.5003189999988535,None,617.9884483999995,617.9884483999995,619.0729292000033,,,,,,,,PN_en,001,2025-03-14_19h52.23.295,MainFlow,2024.2.4,144.67341424580547,2025-03-14 19h52.30.249882 +0700,
2,41,0,word/worden0411.png,image/False/imgf41.png,198,198,0,x,0.4517931000009412,None,0,198,198,198,619.5803481999974,,,,,,,621.0679259000026,620.5678348000001,620.5743855999972,620.5743855999972,621.0613942999989,622.1384573000032,622.1384573000032,x,0.4517931000009412,None,621.0679259000026,621.0679259000026,622.1384573000032,,,,,,,,PN_en,001,2025-03-14_19h52.23.295,MainFlow,2024.2.4,144.67341424580547,2025-03-14 19h52.30.249882 +0700,
2,79,0,word/worden0791.png,image/False/imgf79.png,199,199,0,x,0.43215349999809405,None,0,199,199,199,622.5972511,,,,,,,624.0848113999964,623.5849766999963,623.5913233999963,623.5913233999963,624.0781142999986,625.1901358999967,625.1901358999967,x,0.43215349999809405,None,624.0848113999964,624.0848113999964,625.1901358999967,,,,,,,,PN_en,001,2025-03-14_19h52.23.295,MainFlow,2024.2.4,144.67341424580547,2025-03-14 19h52.30.249882 +0700,
2,70,1,word/worden0701.png,image/True/img70.png,200,200,0,z,0.4053602999993018,None,0,200,200,200,625.635003000003,,,,,,,627.1225686999969,626.6225698999988,626.6290437999996,626.6290437999996,627.1158635000029,628.2209090000033,628.2209090000033,z,0.4053602999993018,None,627.1225686999969,627.1225686999969,628.2209090000033,,,,,,,,PN_en,001,2025-03-14_19h52.23.295,MainFlow,2024.2.4,144.67341424580547,2025-03-14 19h52.30.249882 +0700,
2,31,1,word/worden0311.png,image/True/img31.png,201,201,0,z,0.5782985999976518,None,0,201,201,201,628.6378932000007,,,,,,,630.1255432000034,629.6255708000026,629.6320363999985,629.6320363999985,630.118859299997,631.2169559999966,631.2169559999966,z,0.5782985999976518,None,630.1255432000034,630.1255432000034,631.2169559999966,,,,,,,,PN_en,001,2025-03-14_19h52.23.295,MainFlow,2024.2.4,144.67341424580547,2025-03-14 19h52.30.249882 +0700,
2,9,1,word/worden0091.png,image/True/img09.png,202,202,0,z,0.4686629999996512,None,0,202,202,202,631.8077946999983,,,,,,,633.2954056000017,632.7953495999973,632.8018987000032,632.8018987000032,633.2886841,634.3585890999966,634.3585890999966,z,0.4686629999996512,None,633.2954056000017,633.2954056000017,634.3585890999966,,,,,,,,PN_en,001,2025-03-14_19h52.23.295,MainFlow,2024.2.4,144.67341424580547,2025-03-14 19h52.30.249882 +0700,
2,27,1,word/worden0271.png,image/True/img27.png,203,203,0,z,0.5486354000022402,None,0,203,203,203,634.838617399997,,,,,,,636.3262041999988,635.8261055999974,635.8326703999992,635.8326703999992,636.3193841000029,637.4106720999989,637.4106720999989,z,0.5486354000022402,None,636.3262041999988,636.3262041999988,637.4106720999989,,,,,,,,PN_en,001,2025-03-14_19h52.23.295,MainFlow,2024.2.4,144.67341424580547,2025-03-14 19h52.30.249882 +0700,
2,75,0,word/worden0751.png,image/False/imgf75.png,204,204,0,x,0.3756223999953363,None,0,204,204,204,637.9728482999999,,,,,,,639.4612771999964,638.9613371000014,638.9677003999968,638.9677003999968,639.4545603000006,640.5526374999972,640.5526374999972,x,0.3756223999953363,None,639.4612771999964,639.4612771999964,640.5526374999972,,,,,,,,PN_en,001,2025-03-14_19h52.23.295,MainFlow,2024.2.4,144.67341424580547,2025-03-14 19h52.30.249882 +0700,
2,87,0,word/worden0871.png,image/False/imgf87.png,205,205,0,x,0.5392535000064527,None,0,205,205,205,640.9419166000007,,,,,,,642.4295123999982,641.929407399999,641.9358379999976,641.9358379999976,642.4228068000011,643.5210007999995,643.5210007999995,x,0.5392535000064527,None,642.4295123999982,642.4295123999982,643.5210007999995,,,,,,,,PN_en,001,2025-03-14_19h52.23.295,MainFlow,2024.2.4,144.67341424580547,2025-03-14 19h52.30.249882 +0700,
2,8,0,word/worden0081.png,image/False/imgf08.png,206,206,0,x,0.49917570000252454,None,0,206,206,206,644.0700560999976,,,,,,,645.5576128999965,645.0575972000006,645.064132200001,645.064132200001,645.5509556000034,646.6420736,646.6420736,x,0.49917570000252454,None,645.5576128999965,645.5576128999965,646.6420736,,,,,,,,PN_en,001,2025-03-14_19h52.23.295,MainFlow,2024.2.4,144.67341424580547,2025-03-14 19h52.30.249882 +0700,
2,24,1,word/worden0241.png,image/True/img24.png,207,207,0,z,1.073628699996334,None,0,207,207,207,647.1494696000009,,,,,,,648.6370779999997,648.1371085999999,648.1435691000006,648.1435691000006,648.630387600002,649.7076192000022,649.7076192000022,z,1.073628699996334,None,648.6370779999997,648.6370779999997,649.7076192000022,,,,,,,,PN_en,001,2025-03-14_19h52.23.295,MainFlow,2024.2.4,144.67341424580547,2025-03-14 19h52.30.249882 +0700,
2,14,1,word/worden0141.png,image/True/img14.png,208,208,0,z,0.31644670000241604,None,0,208,208,208,650.7920272999982,,,,,,,652.2796241999968,651.7797367000021,651.7860042000029,651.7860042000029,652.2729273000004,653.3778019000019,653.3778019000019,z,0.31644670000241604,None,652.2796241999968,652.2796241999968,653.3778019000019,,,,,,,,PN_en,001,2025-03-14_19h52.23.295,MainFlow,2024.2.4,144.67341424580547,2025-03-14 19h52.30.249882 +0700,
2,87,1,word/worden0871.png,image/True/img87.png,209,209,0,z,0.27083590000256663,None,0,209,209,209,653.7046590000027,,,,,,,655.1922414000001,654.6920994999964,654.6987033999976,654.6987033999976,655.1855493999974,656.3114216000031,656.3114216000031,z,0.27083590000256663,None,655.1922414000001,655.1922414000001,656.3114216000031,,,,,,,,PN_en,001,2025-03-14_19h52.23.295,MainFlow,2024.2.4,144.67341424580547,2025-03-14 19h52.30.249882 +0700,
2,42,0,word/worden0421.png,image/False/imgf42.png,210,210,0,x,0.36979799999971874,None,0,210,210,210,656.5894889999981,,,,,,,658.0770762999964,657.5771040999971,657.5835175000029,657.5835175000029,658.0703721000027,659.1884532999975,659.1884532999975,x,0.36979799999971874,None,658.0770762999964,658.0770762999964,659.1884532999975,,,,,,,,PN_en,001,2025-03-14_19h52.23.295,MainFlow,2024.2.4,144.67341424580547,2025-03-14 19h52.30.249882 +0700,
2,48,0,word/worden0481.png,image/False/imgf48.png,211,211,0,x,0.4449336999969091,None,0,211,211,211,659.5714790999991,,,,,,,661.0590711999976,660.5591142999983,660.5656598999994,660.5656598999994,661.0524995000014,662.1783549999964,662.1783549999964,x,0.4449336999969091,None,661.0590711999976,661.0590711999976,662.1783549999964,,,,,,,,PN_en,001,2025-03-14_19h52.23.295,MainFlow,2024.2.4,144.67341424580547,2025-03-14 19h52.30.249882 +0700,
2,56,0,word/worden0561.png,image/False/imgf56.png,212,212,0,x,0.5233115000010002,None,0,212,212,212,662.6301986000035,,,,,,,664.124725200003,663.6226689000032,663.6312143000032,663.6312143000032,664.1180749999985,665.2439484999995,665.2439484999995,x,0.5233115000010002,None,664.124725200003,664.124725200003,665.2439484999995,,,,,,,,PN_en,001,2025-03-14_19h52.23.295,MainFlow,2024.2.4,144.67341424580547,2025-03-14 19h52.30.249882 +0700,
2,18,0,word/worden0181.png,image/False/imgf18.png,213,213,0,x,0.3311408000008669,None,0,213,213,213,665.7791701000024,,,,,,,667.2667913999976,666.7667752999987,666.7732355999979,666.7732355999979,667.2601093999983,668.3651062999998,668.3651062999998,x,0.3311408000008669,None,667.2667913999976,667.2667913999976,668.3651062999998,,,,,,,,PN_en,001,2025-03-14_19h52.23.295,MainFlow,2024.2.4,144.67341424580547,2025-03-14 19h52.30.249882 +0700,
2,18,0,word/worden0181.png,image/False/imgf18.png,214,214,0,x,0.34040409999579424,None,0,214,214,214,668.7057220999995,,,,,,,670.1932895999998,669.6932757000031,669.6998253999991,669.6998253999991,670.1866135000018,671.2838438000035,671.2838438000035,x,0.34040409999579424,None,670.1932895999998,670.1932895999998,671.2838438000035,,,,,,,,PN_en,001,2025-03-14_19h52.23.295,MainFlow,2024.2.4,144.67341424580547,2025-03-14 19h52.30.249882 +0700,
2,9,0,word/worden0091.png,image/False/imgf09.png,215,215,0,x,0.5879867999974522,None,0,215,215,215,671.6322567000025,,,,,,,673.119844300003,672.6197302,672.626314699999,672.626314699999,673.113150600002,674.2042744999999,674.2042744999999,x,0.5879867999974522,None,673.119844300003,673.119844300003,674.2042744999999,,,,,,,,PN_en,001,2025-03-14_19h52.23.295,MainFlow,2024.2.4,144.67341424580547,2025-03-14 19h52.30.249882 +0700,
2,55,0,word/worden0551.png,image/False/imgf55.png,216,216,0,x,0.8540888999996241,None,0,216,216,216,674.8020797999998,,,,,,,676.2897306000013,675.7896344999972,675.7961384000009,675.7961384000009,676.2829875000025,677.3871606999965,677.3871606999965,x,0.8540888999996241,None,676.2897306000013,676.2897306000013,677.3871606999965,,,,,,,,PN_en,001,2025-03-14_19h52.23.295,MainFlow,2024.2.4,144.67341424580547,2025-03-14 19h52.30.249882 +0700,
2,17,0,word/worden0171.png,image/False/imgf17.png,217,217,0,x,1.9605314000000362,None,0,217,217,217,678.2491346000024,,,,,,,679.7375546999974,679.2376341999989,679.2439066000006,679.2439066000006,679.7308445000017,680.8497960000022,680.8497960000022,x,1.9605314000000362,None,679.7375546999974,679.7375546999974,680.8497960000022,,,,,,,,PN_en,001,2025-03-14_19h52.23.295,MainFlow,2024.2.4,144.67341424580547,2025-03-14 19h52.30.249882 +0700,
2,50,1,word/worden0501.png,image/True/img50.png,218,218,0,z,0.4012203000020236,None,0,218,218,218,682.8239806999991,,,,,,,684.3115684000004,683.8116500999968,683.8178952000017,683.8178952000017,684.3048802999983,685.4090493999975,685.4090493999975,z,0.4012203000020236,None,684.3115684000004,684.3115684000004,685.4090493999975,,,,,,,,PN_en,001,2025-03-14_19h52.23.295,MainFlow,2024.2.4,144.67341424580547,2025-03-14 19h52.30.249882 +0700,
2,20,0,word/worden0201.png,image/False/imgf20.png,219,219,0,x,0.3755462000044645,None,0,219,219,219,685.8200023000027,,,,,,,687.3076156000025,686.8077899999989,686.8139236999996,686.8139236999996,687.3009097999966,688.4267086999971,688.4267086999971,x,0.3755462000044645,None,687.3076156000025,687.3076156000025,688.4267086999971,,,,,,,,PN_en,001,2025-03-14_19h52.23.295,MainFlow,2024.2.4,144.67341424580547,2025-03-14 19h52.30.249882 +0700,
2,36,0,word/worden0361.png,image/False/imgf36.png,220,220,0,x,0.5650609999938752,None,0,220,220,220,688.8091299000007,,,,,,,690.2966753000001,689.7967285999985,689.8030136000016,689.8030136000016,690.2899849000023,691.394188899998,691.394188899998,x,0.5650609999938752,None,690.2966753000001,690.2966753000001,691.394188899998,,,,,,,,PN_en,001,2025-03-14_19h52.23.295,MainFlow,2024.2.4,144.67341424580547,2025-03-14 19h52.30.249882 +0700,
2,7,0,word/worden0071.png,image/False/imgf07.png,221,221,0,x,0.6624186000044574,None,0,221,221,221,691.9719666000019,,,,,,,693.4596011999965,692.9597458999997,692.965876000002,692.965876000002,693.4528801999986,694.5648430000001,694.5648430000001,x,0.6624186000044574,None,693.4596011999965,693.4596011999965,694.5648430000001,,,,,,,,PN_en,001,2025-03-14_19h52.23.295,MainFlow,2024.2.4,144.67341424580547,2025-03-14 19h52.30.249882 +0700,
2,7,1,word/worden0071.png,image/True/img07.png,222,222,0,z,0.40219569999317173,None,0,222,222,222,695.2391229999994,,,,,,,696.7265995999987,696.2267753999986,696.2331567000001,696.2331567000001,696.7200059000024,697.825079299997,697.825079299997,z,0.40219569999317173,None,696.7265995999987,696.7265995999987,697.825079299997,,,,,,,,PN_en,001,2025-03-14_19h52.23.295,MainFlow,2024.2.4,144.67341424580547,2025-03-14 19h52.30.249882 +0700,
2,70,0,word/worden0701.png,image/False/imgf70.png,223,223,0,x,0.4538825000054203,None,0,223,223,223,698.2351301000017,,,,,,,699.7227340000027,699.2226707000009,699.2292154000024,699.2292154000024,699.7160310000036,700.806365299999,700.806365299999,x,0.4538825000054203,None,699.7227340000027,699.7227340000027,700.806365299999,,,,,,,,PN_en,001,2025-03-14_19h52.23.295,MainFlow,2024.2.4,144.67341424580547,2025-03-14 19h52.30.249882 +0700,
