lang,wordid,truestate,worddir,imgdir,thisN,thisTrialN,thisRepN,key_resp.keys,key_resp.rt,key_resp.duration,trials.thisRepN,trials.thisTrialN,trials.thisN,trials.thisIndex,thisRow.t,notes,tutorial.started,tutorial.stopped,key_instruct.keys,key_instruct.rt,key_instruct.duration,plusblank.started,wordshow.started,image.started,plsuer.started,image.stopped,plsuer.stopped,wordshow.stopped,plusblank.stopped,imageword.started,key_resp.started,trials.key_resp.keys,trials.key_resp.rt,trials.key_resp.duration,ending.started,text_3.started,ending_key.started,ending.stopped,ending_key.keys,ending_key.rt,ending_key.duration,participant,session,date,expName,psychopyVersion,frameRate,expStart,
,,,,,,,,,,,,,,,,,0.003177200000209268,9.510199499998635,space,9.482962800000678,None,,,,,,,,,,,,,,,,,,,,,PT_en,001,2025-03-12_17h02.51.715,MainFlow,2024.2.4,129.9106214919303,2025-03-12 17h03.01.445251 +0700,
2,87,0,word/worden0871.png,image/False/imgf87.png,0,0,0,x,1.4664824999999837,None,0,0,0,0,9.550835899999583,,,,,,,11.006289599999945,10.509822500000155,10.51454399999966,10.51454399999966,11.006289599999945,11.006289599999945,11.000195699998585,12.136406699999498,12.136406699999498,12.136406699999498,x,1.4664824999999837,None,,,,,,,,PT_en,001,2025-03-12_17h02.51.715,MainFlow,2024.2.4,129.9106214919303,2025-03-12 17h03.01.445251 +0700,
2,93,0,word/worden0931.png,image/False/imgf93.png,1,1,0,x,0.5684720999997808,None,0,1,1,1,13.616114099999322,,,,,,,15.102077800000188,14.603631899999527,14.607487199999014,14.607487199999014,15.102077800000188,15.102077800000188,15.095503699998517,16.22358229999918,16.22358229999918,16.22358229999918,x,0.5684720999997808,None,,,,,,,,PT_en,001,2025-03-12_17h02.51.715,MainFlow,2024.2.4,129.9106214919303,2025-03-12 17h03.01.445251 +0700,
2,23,0,word/worden0231.png,image/False/imgf23.png,2,2,0,x,0.38139440000122704,None,0,2,2,2,16.799239699999816,,,,,,,18.285226899999543,17.786462299998675,17.790551299998697,17.790551299998697,18.285226899999543,18.285226899999543,18.278536099998746,19.409248399999342,19.409248399999342,19.409248399999342,x,0.38139440000122704,None,,,,,,,,PT_en,001,2025-03-12_17h02.51.715,MainFlow,2024.2.4,129.9106214919303,2025-03-12 17h03.01.445251 +0700,
2,10,1,word/worden0101.png,image/True/img10.png,3,3,0,z,0.3925044000006892,None,0,3,3,3,19.804021599999032,,,,,,,21.289913499998875,20.7914540999991,20.79542880000008,20.79542880000008,21.289913499998875,21.289913499998875,21.283286199999566,22.387957499999175,22.387957499999175,22.387957499999175,z,0.3925044000006892,None,,,,,,,,PT_en,001,2025-03-12_17h02.51.715,MainFlow,2024.2.4,129.9106214919303,2025-03-12 17h03.01.445251 +0700,
2,50,0,word/worden0501.png,image/False/imgf50.png,4,4,0,x,0.6544522000003781,None,0,4,4,4,22.790390999998635,,,,,,,24.277389299999413,23.7792429000001,23.78353109999989,23.78353109999989,24.277389299999413,24.277389299999413,24.270663299999796,25.37476769999921,25.37476769999921,25.37476769999921,x,0.6544522000003781,None,,,,,,,,PT_en,001,2025-03-12_17h02.51.715,MainFlow,2024.2.4,129.9106214919303,2025-03-12 17h03.01.445251 +0700,
2,33,1,word/worden0331.png,image/True/img33.png,5,5,0,z,0.3487670000013168,None,0,5,5,5,26.040875999999116,,,,,,,27.52681929999926,27.02847549999933,27.032380499998908,27.032380499998908,27.52681929999926,27.52681929999926,27.520161200000075,28.629349299999376,28.629349299999376,28.629349299999376,z,0.3487670000013168,None,,,,,,,,PT_en,001,2025-03-12_17h02.51.715,MainFlow,2024.2.4,129.9106214919303,2025-03-12 17h03.01.445251 +0700,
2,95,0,word/worden0951.png,image/False/imgf95.png,6,6,0,x,0.5192421000010654,None,0,6,6,6,28.989561700000195,,,,,,,30.475501400000212,29.97742069999913,29.981873999999152,29.981873999999152,30.475501400000212,30.475501400000212,30.46887819999938,31.587740299999496,31.587740299999496,31.587740299999496,x,0.5192421000010654,None,,,,,,,,PT_en,001,2025-03-12_17h02.51.715,MainFlow,2024.2.4,129.9106214919303,2025-03-12 17h03.01.445251 +0700,
2,7,0,word/worden0071.png,image/False/imgf07.png,7,7,0,x,1.3877636999986862,None,0,7,7,7,32.11494909999965,,,,,,,33.60213449999901,33.10403309999856,33.108252099998936,33.108252099998936,33.60213449999901,33.60213449999901,33.5954630999986,34.707781899998736,34.707781899998736,34.707781899998736,x,1.3877636999986862,None,,,,,,,,PT_en,001,2025-03-12_17h02.51.715,MainFlow,2024.2.4,129.9106214919303,2025-03-12 17h03.01.445251 +0700,
2,28,1,word/worden0281.png,image/True/img28.png,8,8,0,z,0.54409300000043,None,0,8,8,8,36.10515899999882,,,,,,,37.59271709999848,37.094562099999166,37.09882309999921,37.09882309999921,37.59271709999848,37.59271709999848,37.58596690000013,38.70608919999904,38.70608919999904,38.70608919999904,z,0.54409300000043,None,,,,,,,,PT_en,001,2025-03-12_17h02.51.715,MainFlow,2024.2.4,129.9106214919303,2025-03-12 17h03.01.445251 +0700,
2,38,1,word/worden0381.png,image/True/img38.png,9,9,0,z,1.093853999998828,None,0,9,9,9,39.26016290000007,,,,,,,40.74612249999882,40.2480975999988,40.25233829999888,40.25233829999888,40.74612249999882,40.74612249999882,40.739956399998846,41.859862299999804,41.859862299999804,41.859862299999804,z,1.093853999998828,None,,,,,,,,PT_en,001,2025-03-12_17h02.51.715,MainFlow,2024.2.4,129.9106214919303,2025-03-12 17h03.01.445251 +0700,
2,33,0,word/worden0331.png,image/False/imgf33.png,10,10,0,x,1.1887950000000274,None,0,10,10,10,42.962959799999226,,,,,,,44.449012899998706,43.95007209999858,43.95416809999915,43.95416809999915,44.449012899998706,44.449012899998706,44.44221010000001,45.55837599999904,45.55837599999904,45.55837599999904,x,1.1887950000000274,None,,,,,,,,PT_en,001,2025-03-12_17h02.51.715,MainFlow,2024.2.4,129.9106214919303,2025-03-12 17h03.01.445251 +0700,
2,76,1,word/worden0761.png,image/True/img76.png,11,11,0,z,0.45634229999996023,None,0,11,11,11,46.759252099998776,,,,,,,48.24515699999938,47.74636789999931,47.75043209999967,47.75043209999967,48.24515699999938,48.24515699999938,48.238469500000065,49.34543709999889,49.34543709999889,49.34543709999889,z,0.45634229999996023,None,,,,,,,,PT_en,001,2025-03-12_17h02.51.715,MainFlow,2024.2.4,129.9106214919303,2025-03-12 17h03.01.445251 +0700,
2,75,0,word/worden0751.png,image/False/imgf75.png,12,12,0,x,0.544324600001346,None,0,12,12,12,49.81035919999886,,,,,,,51.296222099999795,50.79743520000011,50.8015022999989,50.8015022999989,51.296222099999795,51.296222099999795,51.28953869999896,52.401403500000015,52.401403500000015,52.401403500000015,x,0.544324600001346,None,,,,,,,,PT_en,001,2025-03-12_17h02.51.715,MainFlow,2024.2.4,129.9106214919303,2025-03-12 17h03.01.445251 +0700,
2,7,1,word/worden0071.png,image/True/img07.png,13,13,0,z,0.2702162000005046,None,0,13,13,13,52.953953099999126,,,,,,,54.43992889999936,53.94061469999906,53.944612600000255,53.944612600000255,54.43992889999936,54.43992889999936,54.43322579999949,55.53916329999993,55.53916329999993,55.53916329999993,z,0.2702162000005046,None,,,,,,,,PT_en,001,2025-03-12_17h02.51.715,MainFlow,2024.2.4,129.9106214919303,2025-03-12 17h03.01.445251 +0700,
2,51,1,word/worden0511.png,image/True/img51.png,14,14,0,z,0.7480343999995966,None,0,14,14,14,55.81652199999917,,,,,,,57.30257100000017,56.80355109999982,56.80771149999964,56.80771149999964,57.30257100000017,57.30257100000017,57.29592159999993,58.40114480000011,58.40114480000011,58.40114480000011,z,0.7480343999995966,None,,,,,,,,PT_en,001,2025-03-12_17h02.51.715,MainFlow,2024.2.4,129.9106214919303,2025-03-12 17h03.01.445251 +0700,
2,59,0,word/worden0591.png,image/False/imgf59.png,15,15,0,x,0.538381100001061,None,0,15,15,15,59.15718519999973,,,,,,,60.643666299998586,60.14426639999874,60.14833389999876,60.14833389999876,60.643666299998586,60.643666299998586,60.637080599999535,61.72417639999912,61.72417639999912,61.72417639999912,x,0.538381100001061,None,,,,,,,,PT_en,001,2025-03-12_17h02.51.715,MainFlow,2024.2.4,129.9106214919303,2025-03-12 17h03.01.445251 +0700,
2,54,0,word/worden0541.png,image/False/imgf54.png,16,16,0,x,0.8213367000007565,None,0,16,16,16,62.270733699999255,,,,,,,63.75698879999982,63.25924159999886,63.26349579999987,63.26349579999987,63.75698879999982,63.75698879999982,63.75092829999994,64.8507198999996,64.8507198999996,64.8507198999996,x,0.8213367000007565,None,,,,,,,,PT_en,001,2025-03-12_17h02.51.715,MainFlow,2024.2.4,129.9106214919303,2025-03-12 17h03.01.445251 +0700,
2,6,1,word/worden0061.png,image/True/img06.png,17,17,0,z,0.6248486999993474,None,0,17,17,17,65.68037029999869,,,,,,,67.16652359999898,66.66866049999953,66.67309159999968,66.67309159999968,67.16652359999898,67.16652359999898,67.16050299999915,68.25091999999859,68.25091999999859,68.25091999999859,z,0.6248486999993474,None,,,,,,,,PT_en,001,2025-03-12_17h02.51.715,MainFlow,2024.2.4,129.9106214919303,2025-03-12 17h03.01.445251 +0700,
2,41,1,word/worden0411.png,image/True/img41.png,18,18,0,z,0.4111682999991899,None,0,18,18,18,68.88465279999946,,,,,,,70.37066419999974,69.87263989999883,69.87695749999875,69.87695749999875,70.37066419999974,70.37066419999974,70.3638933000002,71.47396239999944,71.47396239999944,71.47396239999944,z,0.4111682999991899,None,,,,,,,,PT_en,001,2025-03-12_17h02.51.715,MainFlow,2024.2.4,129.9106214919303,2025-03-12 17h03.01.445251 +0700,
2,42,0,word/worden0421.png,image/False/imgf42.png,19,19,0,x,0.6298134999997274,None,0,19,19,19,71.89549639999859,,,,,,,73.3822070999995,72.88324199999988,72.887428,72.887428,73.3822070999995,73.3822070999995,73.37547499999891,74.48874149999938,74.48874149999938,74.48874149999938,x,0.6298134999997274,None,,,,,,,,PT_en,001,2025-03-12_17h02.51.715,MainFlow,2024.2.4,129.9106214919303,2025-03-12 17h03.01.445251 +0700,
2,64,0,word/worden0641.png,image/False/imgf64.png,20,20,0,x,0.651257199999236,None,0,20,20,20,75.12853259999974,,,,,,,76.61447499999849,76.11609099999987,76.12044149999929,76.12044149999929,76.61447499999849,76.61447499999849,76.60782329999893,77.68668439999965,77.68668439999965,77.68668439999965,x,0.651257199999236,None,,,,,,,,PT_en,001,2025-03-12_17h02.51.715,MainFlow,2024.2.4,129.9106214919303,2025-03-12 17h03.01.445251 +0700,
2,96,1,word/worden0961.png,image/True/img96.png,21,21,0,z,0.5224118000005546,None,0,21,21,21,78.34954049999942,,,,,,,79.83552509999936,79.33714249999866,79.34149780000007,79.34149780000007,79.83552509999936,79.83552509999936,79.82877869999902,80.93996119999974,80.93996119999974,80.93996119999974,z,0.5224118000005546,None,,,,,,,,PT_en,001,2025-03-12_17h02.51.715,MainFlow,2024.2.4,129.9106214919303,2025-03-12 17h03.01.445251 +0700,
2,76,0,word/worden0761.png,image/False/imgf76.png,22,22,0,x,0.6014052999998967,None,0,22,22,22,81.47179949999918,,,,,,,82.95772249999936,82.45910849999927,82.4630447999989,82.4630447999989,82.95772249999936,82.95772249999936,82.95158339999944,84.06874629999948,84.06874629999948,84.06874629999948,x,0.6014052999998967,None,,,,,,,,PT_en,001,2025-03-12_17h02.51.715,MainFlow,2024.2.4,129.9106214919303,2025-03-12 17h03.01.445251 +0700,
2,17,1,word/worden0171.png,image/True/img17.png,23,23,0,z,0.5459844000015437,None,0,23,23,23,84.67897809999886,,,,,,,86.16548669999975,85.66712489999918,85.67139320000024,85.67139320000024,86.16548669999975,86.16548669999975,86.15880779999861,87.25897579999946,87.25897579999946,87.25897579999946,z,0.5459844000015437,None,,,,,,,,PT_en,001,2025-03-12_17h02.51.715,MainFlow,2024.2.4,129.9106214919303,2025-03-12 17h03.01.445251 +0700,
2,6,1,word/worden0061.png,image/True/img06.png,24,24,0,z,0.38975850000133505,None,0,24,24,24,87.81755259999954,,,,,,,89.30353809999906,88.8045551999985,88.80835639999896,88.80835639999896,89.30353809999906,89.30353809999906,89.29686199999924,90.38891059999878,90.38891059999878,90.38891059999878,z,0.38975850000133505,None,,,,,,,,PT_en,001,2025-03-12_17h02.51.715,MainFlow,2024.2.4,129.9106214919303,2025-03-12 17h03.01.445251 +0700,
2,88,1,word/worden0881.png,image/True/img88.png,25,25,0,z,0.38202869999986433,None,0,25,25,25,90.7924566999991,,,,,,,92.2783174999986,91.77961679999862,91.78372649999983,91.78372649999983,92.2783174999986,92.2783174999986,92.27162630000021,93.38565759999983,93.38565759999983,93.38565759999983,z,0.38202869999986433,None,,,,,,,,PT_en,001,2025-03-12_17h02.51.715,MainFlow,2024.2.4,129.9106214919303,2025-03-12 17h03.01.445251 +0700,
2,44,1,word/worden0441.png,image/True/img44.png,26,26,0,z,0.45642360000056215,None,0,26,26,26,93.77509809999901,,,,,,,95.26281459999882,94.76458730000013,94.76888379999946,94.76888379999946,95.26281459999882,95.26281459999882,95.25613509999857,96.35121809999873,96.35121809999873,96.35121809999873,z,0.45642360000056215,None,,,,,,,,PT_en,001,2025-03-12_17h02.51.715,MainFlow,2024.2.4,129.9106214919303,2025-03-12 17h03.01.445251 +0700,
2,27,0,word/worden0271.png,image/False/imgf27.png,27,27,0,x,0.5167710999994597,None,0,27,27,27,96.81613579999976,,,,,,,98.30202169999939,97.8036205999997,97.80755619999945,97.80755619999945,98.30202169999939,98.30202169999939,98.29588150000018,99.39410989999851,99.39410989999851,99.39410989999851,x,0.5167710999994597,None,,,,,,,,PT_en,001,2025-03-12_17h02.51.715,MainFlow,2024.2.4,129.9106214919303,2025-03-12 17h03.01.445251 +0700,
2,14,0,word/worden0141.png,image/False/imgf14.png,28,28,0,x,0.6276570000009087,None,0,28,28,28,99.92098599999917,,,,,,,101.40695249999953,100.9085525999999,100.9125753999997,100.9125753999997,101.40695249999953,101.40695249999953,101.400329099999,102.50227559999985,102.50227559999985,102.50227559999985,x,0.6276570000009087,None,,,,,,,,PT_en,001,2025-03-12_17h02.51.715,MainFlow,2024.2.4,129.9106214919303,2025-03-12 17h03.01.445251 +0700,
2,40,0,word/worden0401.png,image/False/imgf40.png,29,29,0,x,0.5804050999995525,None,0,29,29,29,103.14285419999942,,,,,,,104.62879319999956,104.13022369999999,104.1349195999992,104.1349195999992,104.62879319999956,104.62879319999956,104.62211409999873,105.71826279999914,105.71826279999914,105.71826279999914,x,0.5804050999995525,None,,,,,,,,PT_en,001,2025-03-12_17h02.51.715,MainFlow,2024.2.4,129.9106214919303,2025-03-12 17h03.01.445251 +0700,
2,1,0,word/worden0011.png,image/False/imgf01.png,30,30,0,x,2.1276245000008203,None,0,30,30,30,106.30828560000009,,,,,,,107.79504599999927,107.2971450999994,107.30136870000024,107.30136870000024,107.79504599999927,107.79504599999927,107.78838389999873,108.87551979999989,108.87551979999989,108.87551979999989,x,2.1276245000008203,None,,,,,,,,PT_en,001,2025-03-12_17h02.51.715,MainFlow,2024.2.4,129.9106214919303,2025-03-12 17h03.01.445251 +0700,
2,3,0,word/worden0031.png,image/False/imgf03.png,31,31,0,x,0.5461959999993269,None,0,31,31,31,111.012224099999,,,,,,,112.49887859999944,112.00092409999888,112.00490229999923,112.00490229999923,112.49887859999944,112.49887859999944,112.49217549999958,113.58534079999845,113.58534079999845,113.58534079999845,x,0.5461959999993269,None,,,,,,,,PT_en,001,2025-03-12_17h02.51.715,MainFlow,2024.2.4,129.9106214919303,2025-03-12 17h03.01.445251 +0700,
2,57,1,word/worden0571.png,image/True/img57.png,32,32,0,z,0.872289400000227,None,0,32,32,32,114.14024759999847,,,,,,,115.62667460000011,115.12777610000012,115.1316100999993,115.1316100999993,115.62667460000011,115.62667460000011,115.62008760000026,116.71829429999889,116.71829429999889,116.71829429999889,z,0.872289400000227,None,,,,,,,,PT_en,001,2025-03-12_17h02.51.715,MainFlow,2024.2.4,129.9106214919303,2025-03-12 17h03.01.445251 +0700,
2,88,0,word/worden0881.png,image/False/imgf88.png,33,33,0,x,0.4925610999998753,None,0,33,33,33,117.59953959999984,,,,,,,119.08547629999885,118.58668389999912,118.59084230000008,118.59084230000008,119.08547629999885,119.08547629999885,119.07873130000007,120.17750159999923,120.17750159999923,120.17750159999923,x,0.4925610999998753,None,,,,,,,,PT_en,001,2025-03-12_17h02.51.715,MainFlow,2024.2.4,129.9106214919303,2025-03-12 17h03.01.445251 +0700,
2,52,0,word/worden0521.png,image/False/imgf52.png,34,34,0,x,0.8170537999994849,None,0,34,34,34,120.68345880000015,,,,,,,122.17021620000014,121.67208599999867,121.67618409999886,121.67618409999886,122.17021620000014,122.17021620000014,122.1635740999991,123.25146159999895,123.25146159999895,123.25146159999895,x,0.8170537999994849,None,,,,,,,,PT_en,001,2025-03-12_17h02.51.715,MainFlow,2024.2.4,129.9106214919303,2025-03-12 17h03.01.445251 +0700,
2,50,0,word/worden0501.png,image/False/imgf50.png,35,35,0,x,0.4730643000002601,None,0,35,35,35,124.08199439999953,,,,,,,125.56802079999943,125.06883879999987,125.07281189999958,125.07281189999958,125.56802079999943,125.56802079999943,125.56128549999994,126.65520189999916,126.65520189999916,126.65520189999916,x,0.4730643000002601,None,,,,,,,,PT_en,001,2025-03-12_17h02.51.715,MainFlow,2024.2.4,129.9106214919303,2025-03-12 17h03.01.445251 +0700,
2,78,1,word/worden0781.png,image/True/img78.png,36,36,0,z,0.6250712999990355,None,0,36,36,36,127.14088540000012,,,,,,,128.62681639999937,128.1278244999994,128.13190459999896,128.13190459999896,128.62681639999937,128.62681639999937,128.62016159999985,129.71196739999868,129.71196739999868,129.71196739999868,z,0.6250712999990355,None,,,,,,,,PT_en,001,2025-03-12_17h02.51.715,MainFlow,2024.2.4,129.9106214919303,2025-03-12 17h03.01.445251 +0700,
2,61,0,word/worden0611.png,image/False/imgf61.png,37,37,0,x,0.4876319000013609,None,0,37,37,37,130.34501349999846,,,,,,,131.83196469999893,131.33327439999994,131.3381491,131.3381491,131.83196469999893,131.83196469999893,131.82533749999857,132.9337332999985,132.9337332999985,132.9337332999985,x,0.4876319000013609,None,,,,,,,,PT_en,001,2025-03-12_17h02.51.715,MainFlow,2024.2.4,129.9106214919303,2025-03-12 17h03.01.445251 +0700,
2,36,0,word/worden0361.png,image/False/imgf36.png,38,38,0,x,0.5814936000006128,None,0,38,38,38,133.4336758999998,,,,,,,134.91964059999918,134.4208165,134.4249519999994,134.4249519999994,134.91964059999918,134.91964059999918,134.91298519999873,136.00916340000003,136.00916340000003,136.00916340000003,x,0.5814936000006128,None,,,,,,,,PT_en,001,2025-03-12_17h02.51.715,MainFlow,2024.2.4,129.9106214919303,2025-03-12 17h03.01.445251 +0700,
2,10,1,word/worden0101.png,image/True/img10.png,39,39,0,z,0.6752194999990024,None,0,39,39,39,136.59908639999958,,,,,,,138.0855023999993,137.58635820000018,137.59030239999993,137.59030239999993,138.0855023999993,138.0855023999993,138.07886739999958,139.17400540000017,139.17400540000017,139.17400540000017,z,0.6752194999990024,None,,,,,,,,PT_en,001,2025-03-12_17h02.51.715,MainFlow,2024.2.4,129.9106214919303,2025-03-12 17h03.01.445251 +0700,
2,75,1,word/worden0751.png,image/True/img75.png,40,40,0,z,0.49130700000023353,None,0,40,40,40,139.86124219999874,,,,,,,141.34733909999886,140.84829439999885,140.85242429999926,140.85242429999926,141.34733909999886,141.34733909999886,141.34043070000007,142.4370930999994,142.4370930999994,142.4370930999994,z,0.49130700000023353,None,,,,,,,,PT_en,001,2025-03-12_17h02.51.715,MainFlow,2024.2.4,129.9106214919303,2025-03-12 17h03.01.445251 +0700,
2,1,1,word/worden0011.png,image/True/img01.png,41,41,0,z,0.6694452000010642,None,0,41,41,41,142.93711019999864,,,,,,,144.42298669999946,143.92374519999976,143.92757279999933,143.92757279999933,144.42298669999946,144.42298669999946,144.4163153999998,145.52312999999958,145.52312999999958,145.52312999999958,z,0.6694452000010642,None,,,,,,,,PT_en,001,2025-03-12_17h02.51.715,MainFlow,2024.2.4,129.9106214919303,2025-03-12 17h03.01.445251 +0700,
2,37,1,word/worden0371.png,image/True/img37.png,42,42,0,x,1.1252209000012954,None,0,42,42,42,146.2032163999993,,,,,,,147.68922799999928,147.1904872999985,147.1944470999988,147.1944470999988,147.68922799999928,147.68922799999928,147.6825398000001,148.80055859999993,148.80055859999993,148.80055859999993,x,1.1252209000012954,None,,,,,,,,PT_en,001,2025-03-12_17h02.51.715,MainFlow,2024.2.4,129.9106214919303,2025-03-12 17h03.01.445251 +0700,
2,66,0,word/worden0661.png,image/False/imgf66.png,43,43,0,x,0.40665070000068226,None,0,43,43,43,149.93860870000026,,,,,,,151.42508139999882,150.92586299999857,150.92979620000006,150.92979620000006,151.42508139999882,151.42508139999882,151.4183899999989,152.53898870000012,152.53898870000012,152.53898870000012,x,0.40665070000068226,None,,,,,,,,PT_en,001,2025-03-12_17h02.51.715,MainFlow,2024.2.4,129.9106214919303,2025-03-12 17h03.01.445251 +0700,
2,55,1,word/worden0551.png,image/True/img55.png,44,44,0,z,0.6106065999993007,None,0,44,44,44,152.95402699999977,,,,,,,154.43999429999894,153.94069109999873,153.9446111999987,153.9446111999987,154.43999429999894,154.43999429999894,154.4333031999995,155.5537465999987,155.5537465999987,155.5537465999987,z,0.6106065999993007,None,,,,,,,,PT_en,001,2025-03-12_17h02.51.715,MainFlow,2024.2.4,129.9106214919303,2025-03-12 17h03.01.445251 +0700,
2,70,0,word/worden0701.png,image/False/imgf70.png,45,45,0,x,0.49986099999841827,None,0,45,45,45,156.17730779999874,,,,,,,157.6633198999989,157.16553589999967,157.16961619999893,157.16961619999893,157.6633198999989,157.6633198999989,157.6565241999997,158.7634922999987,158.7634922999987,158.7634922999987,x,0.49986099999841827,None,,,,,,,,PT_en,001,2025-03-12_17h02.51.715,MainFlow,2024.2.4,129.9106214919303,2025-03-12 17h03.01.445251 +0700,
2,68,0,word/worden0681.png,image/False/imgf68.png,46,46,0,x,0.5258176999996067,None,0,46,46,46,159.2771808999987,,,,,,,160.76303059999918,160.2643664999996,160.26835690000007,160.26835690000007,160.76303059999918,160.76303059999918,160.75631059999978,161.8512671999997,161.8512671999997,161.8512671999997,x,0.5258176999996067,None,,,,,,,,PT_en,001,2025-03-12_17h02.51.715,MainFlow,2024.2.4,129.9106214919303,2025-03-12 17h03.01.445251 +0700,
2,75,1,word/worden0751.png,image/True/img75.png,47,47,0,z,0.5142061000005924,None,0,47,47,47,162.38592199999948,,,,,,,163.87204930000007,163.3732392999991,163.37772269999914,163.37772269999914,163.87204930000007,163.87204930000007,163.86239889999888,164.9975603999992,164.9975603999992,164.9975603999992,z,0.5142061000005924,None,,,,,,,,PT_en,001,2025-03-12_17h02.51.715,MainFlow,2024.2.4,129.9106214919303,2025-03-12 17h03.01.445251 +0700,
2,38,1,word/worden0381.png,image/True/img38.png,48,48,0,z,0.589617100000396,None,0,48,48,48,165.522963899999,,,,,,,167.00893179999912,166.51002809999954,166.5150722999988,166.5150722999988,167.00893179999912,167.00893179999912,167.00222839999878,168.09597289999874,168.09597289999874,168.09597289999874,z,0.589617100000396,None,,,,,,,,PT_en,001,2025-03-12_17h02.51.715,MainFlow,2024.2.4,129.9106214919303,2025-03-12 17h03.01.445251 +0700,
2,42,1,word/worden0421.png,image/True/img42.png,49,49,0,z,1.2858854999994946,None,0,49,49,49,168.69929069999853,,,,,,,170.18520519999947,169.68570569999974,169.6896603999994,169.6896603999994,170.18520519999947,170.18520519999947,170.1785877000002,171.2739378999995,171.2739378999995,171.2739378999995,z,1.2858854999994946,None,,,,,,,,PT_en,001,2025-03-12_17h02.51.715,MainFlow,2024.2.4,129.9106214919303,2025-03-12 17h03.01.445251 +0700,
2,11,0,word/worden0111.png,image/False/imgf11.png,50,50,0,x,1.4809528999994654,None,0,50,50,50,172.5724365999995,,,,,,,174.05842829999892,173.5595022999987,173.56359949999933,173.56359949999933,174.05842829999892,174.05842829999892,174.05165179999858,175.1617258999995,175.1617258999995,175.1617258999995,x,1.4809528999994654,None,,,,,,,,PT_en,001,2025-03-12_17h02.51.715,MainFlow,2024.2.4,129.9106214919303,2025-03-12 17h03.01.445251 +0700,
2,41,0,word/worden0411.png,image/False/imgf41.png,51,51,0,x,0.7488364000000729,None,0,51,51,51,176.65315389999887,,,,,,,178.13914549999936,177.6399590000001,177.64389999999912,177.64389999999912,178.13914549999936,178.13914549999936,178.13243089999924,179.20827629999985,179.20827629999985,179.20827629999985,x,0.7488364000000729,None,,,,,,,,PT_en,001,2025-03-12_17h02.51.715,MainFlow,2024.2.4,129.9106214919303,2025-03-12 17h03.01.445251 +0700,
2,82,1,word/worden0821.png,image/True/img82.png,52,52,0,z,1.1739360000010493,None,0,52,52,52,179.96368540000003,,,,,,,181.44971629999964,180.9517909999995,180.956049299999,180.956049299999,181.44971629999964,181.44971629999964,181.4430470999996,182.5168397999987,182.5168397999987,182.5168397999987,z,1.1739360000010493,None,,,,,,,,PT_en,001,2025-03-12_17h02.51.715,MainFlow,2024.2.4,129.9106214919303,2025-03-12 17h03.01.445251 +0700,
2,88,0,word/worden0881.png,image/False/imgf88.png,53,53,0,x,0.5034906999990199,None,0,53,53,53,183.69790339999963,,,,,,,185.18375659999947,184.68417809999846,184.68808129999888,184.68808129999888,185.18375659999947,185.18375659999947,185.1770282999987,186.27587259999927,186.27587259999927,186.27587259999927,x,0.5034906999990199,None,,,,,,,,PT_en,001,2025-03-12_17h02.51.715,MainFlow,2024.2.4,129.9106214919303,2025-03-12 17h03.01.445251 +0700,
2,8,1,word/worden0081.png,image/True/img08.png,54,54,0,z,0.4135091999996803,None,0,54,54,54,186.78870859999915,,,,,,,188.27470549999998,187.77691369999957,187.78121250000004,187.78121250000004,188.27470549999998,188.27470549999998,188.2681431000001,189.3496927999986,189.3496927999986,189.3496927999986,z,0.4135091999996803,None,,,,,,,,PT_en,001,2025-03-12_17h02.51.715,MainFlow,2024.2.4,129.9106214919303,2025-03-12 17h03.01.445251 +0700,
2,16,0,word/worden0161.png,image/False/imgf16.png,55,55,0,x,0.43728120000014314,None,0,55,55,55,189.77376109999932,,,,,,,191.26016419999905,190.76085129999956,190.76480959999935,190.76480959999935,191.26016419999905,191.26016419999905,191.25347669999974,192.3555256999989,192.3555256999989,192.3555256999989,x,0.43728120000014314,None,,,,,,,,PT_en,001,2025-03-12_17h02.51.715,MainFlow,2024.2.4,129.9106214919303,2025-03-12 17h03.01.445251 +0700,
2,10,0,word/worden0101.png,image/False/imgf10.png,56,56,0,x,0.5648513000014646,None,0,56,56,56,192.8012388999996,,,,,,,194.28722879999987,193.7879438,193.79188280000017,193.79188280000017,194.28722879999987,194.28722879999987,194.28059159999975,195.38140349999958,195.38140349999958,195.38140349999958,x,0.5648513000014646,None,,,,,,,,PT_en,001,2025-03-12_17h02.51.715,MainFlow,2024.2.4,129.9106214919303,2025-03-12 17h03.01.445251 +0700,
2,76,0,word/worden0761.png,image/False/imgf76.png,57,57,0,x,0.5002775000011752,None,0,57,57,57,195.95331420000002,,,,,,,197.4391997999992,196.93959480000012,196.94350769999983,196.94350769999983,197.4391997999992,197.4391997999992,197.43265429999883,198.54538559999855,198.54538559999855,198.54538559999855,x,0.5002775000011752,None,,,,,,,,PT_en,001,2025-03-12_17h02.51.715,MainFlow,2024.2.4,129.9106214919303,2025-03-12 17h03.01.445251 +0700,
2,42,1,word/worden0421.png,image/True/img42.png,58,58,0,z,0.581752800000686,None,0,58,58,58,199.05407809999997,,,,,,,200.54005629999847,200.04046799999924,200.04441049999878,200.04441049999878,200.54005629999847,200.54005629999847,200.53331309999885,201.6323154999991,201.6323154999991,201.6323154999991,z,0.581752800000686,None,,,,,,,,PT_en,001,2025-03-12_17h02.51.715,MainFlow,2024.2.4,129.9106214919303,2025-03-12 17h03.01.445251 +0700,
2,26,0,word/worden0261.png,image/False/imgf26.png,59,59,0,x,1.4747569999999541,None,0,59,59,59,202.2212105999988,,,,,,,203.7078733999988,203.20966559999943,203.21397289999913,203.21397289999913,203.7078733999988,203.7078733999988,203.70121709999876,204.81346289999965,204.81346289999965,204.81346289999965,x,1.4747569999999541,None,,,,,,,,PT_en,001,2025-03-12_17h02.51.715,MainFlow,2024.2.4,129.9106214919303,2025-03-12 17h03.01.445251 +0700,
2,26,1,word/worden0261.png,image/True/img26.png,60,60,0,z,0.3735728999999992,None,0,60,60,60,206.3008469999986,,,,,,,207.7876379999998,207.28808939999908,207.2921280999999,207.2921280999999,207.7876379999998,207.7876379999998,207.78098379999938,208.89352979999967,208.89352979999967,208.89352979999967,z,0.3735728999999992,None,,,,,,,,PT_en,001,2025-03-12_17h02.51.715,MainFlow,2024.2.4,129.9106214919303,2025-03-12 17h03.01.445251 +0700,
2,48,1,word/worden0481.png,image/True/img48.png,61,61,0,z,0.4484464000015578,None,0,61,61,61,209.27677459999904,,,,,,,210.7626892999997,210.2636464999996,210.26775649999945,210.26775649999945,210.7626892999997,210.7626892999997,210.75604889999886,211.8626654999989,211.8626654999989,211.8626654999989,z,0.4484464000015578,None,,,,,,,,PT_en,001,2025-03-12_17h02.51.715,MainFlow,2024.2.4,129.9106214919303,2025-03-12 17h03.01.445251 +0700,
2,71,0,word/worden0711.png,image/False/imgf71.png,62,62,0,x,0.4966610000010405,None,0,62,62,62,212.32055059999948,,,,,,,213.80648969999856,213.30850250000003,213.31280229999902,213.31280229999902,213.80648969999856,213.80648969999856,213.79981339999904,214.9130041999997,214.9130041999997,214.9130041999997,x,0.4966610000010405,None,,,,,,,,PT_en,001,2025-03-12_17h02.51.715,MainFlow,2024.2.4,129.9106214919303,2025-03-12 17h03.01.445251 +0700,
2,93,1,word/worden0931.png,image/True/img93.png,63,63,0,z,0.4757976000000781,None,0,63,63,63,215.42134439999973,,,,,,,216.90724669999872,216.40795869999965,216.41178819999914,216.41178819999914,216.90724669999872,216.90724669999872,216.90052809999906,217.98940159999984,217.98940159999984,217.98940159999984,z,0.4757976000000781,None,,,,,,,,PT_en,001,2025-03-12_17h02.51.715,MainFlow,2024.2.4,129.9106214919303,2025-03-12 17h03.01.445251 +0700,
2,51,1,word/worden0511.png,image/True/img51.png,64,64,0,z,0.4819451000003028,None,0,64,64,64,218.4723157999997,,,,,,,219.95824259999972,219.45851249999942,219.46254619999854,219.46254619999854,219.95824259999972,219.95824259999972,219.9516969999986,221.05563679999977,221.05563679999977,221.05563679999977,z,0.4819451000003028,None,,,,,,,,PT_en,001,2025-03-12_17h02.51.715,MainFlow,2024.2.4,129.9106214919303,2025-03-12 17h03.01.445251 +0700,
2,78,0,word/worden0781.png,image/False/imgf78.png,65,65,0,x,1.1813182000005327,None,0,65,65,65,221.5483038000002,,,,,,,223.03471179999906,222.53536899999926,222.53959669999858,222.53959669999858,223.03471179999906,223.03471179999906,223.02804019999894,224.11464239999987,224.11464239999987,224.11464239999987,x,1.1813182000005327,None,,,,,,,,PT_en,001,2025-03-12_17h02.51.715,MainFlow,2024.2.4,129.9106214919303,2025-03-12 17h03.01.445251 +0700,
2,64,0,word/worden0641.png,image/False/imgf64.png,66,66,0,x,0.674370300001101,None,0,66,66,66,225.30737559999943,,,,,,,226.79334310000013,226.2938407999991,226.29773709999972,226.29773709999972,226.79334310000013,226.79334310000013,226.78669099999934,227.8607978,227.8607978,227.8607978,x,0.674370300001101,None,,,,,,,,PT_en,001,2025-03-12_17h02.51.715,MainFlow,2024.2.4,129.9106214919303,2025-03-12 17h03.01.445251 +0700,
2,68,1,word/worden0681.png,image/True/img68.png,67,67,0,z,0.5141392000004998,None,0,67,67,67,228.5485747999992,,,,,,,230.0345039999993,229.53516249999848,229.53915139999845,229.53915139999845,230.0345039999993,230.0345039999993,230.02780659999917,231.10465079999994,231.10465079999994,231.10465079999994,z,0.5141392000004998,None,,,,,,,,PT_en,001,2025-03-12_17h02.51.715,MainFlow,2024.2.4,129.9106214919303,2025-03-12 17h03.01.445251 +0700,
2,57,0,word/worden0571.png,image/False/imgf57.png,68,68,0,x,0.5511454999996204,None,0,68,68,68,231.63029579999966,,,,,,,233.11624759999904,232.61687009999878,232.62085979999938,232.62085979999938,233.11624759999904,233.11624759999904,233.10961919999863,234.2124377,234.2124377,234.2124377,x,0.5511454999996204,None,,,,,,,,PT_en,001,2025-03-12_17h02.51.715,MainFlow,2024.2.4,129.9106214919303,2025-03-12 17h03.01.445251 +0700,
2,31,0,word/worden0311.png,image/False/imgf31.png,69,69,0,x,0.6784124999994674,None,0,69,69,69,234.77552899999864,,,,,,,236.26138170000013,235.76234569999906,235.7665066999998,235.7665066999998,236.26138170000013,236.26138170000013,236.25475839999854,237.32936960000006,237.32936960000006,237.32936960000006,x,0.6784124999994674,None,,,,,,,,PT_en,001,2025-03-12_17h02.51.715,MainFlow,2024.2.4,129.9106214919303,2025-03-12 17h03.01.445251 +0700,
2,31,0,word/worden0311.png,image/False/imgf31.png,70,70,0,x,0.40818509999917296,None,0,70,70,70,238.0155132,,,,,,,239.5014328999987,239.00195579999854,239.00619509999888,239.00619509999888,239.5014328999987,239.5014328999987,239.4947018999992,240.56766869999956,240.56766869999956,240.56766869999956,x,0.40818509999917296,None,,,,,,,,PT_en,001,2025-03-12_17h02.51.715,MainFlow,2024.2.4,129.9106214919303,2025-03-12 17h03.01.445251 +0700,
2,55,1,word/worden0551.png,image/True/img55.png,71,71,0,z,0.504486599998927,None,0,71,71,71,240.98442329999853,,,,,,,242.47093909999967,241.9713858999985,241.97539979999965,241.97539979999965,242.47093909999967,242.47093909999967,242.4642503999985,243.5703923000001,243.5703923000001,243.5703923000001,z,0.504486599998927,None,,,,,,,,PT_en,001,2025-03-12_17h02.51.715,MainFlow,2024.2.4,129.9106214919303,2025-03-12 17h03.01.445251 +0700,
2,36,1,word/worden0361.png,image/True/img36.png,72,72,0,x,2.1468167999992147,None,0,72,72,72,244.08401400000002,,,,,,,245.5699721000001,245.07065989999865,245.074805799999,245.074805799999,245.5699721000001,245.5699721000001,245.56327259999853,246.6522578999993,246.6522578999993,246.6522578999993,x,2.1468167999992147,None,,,,,,,,PT_en,001,2025-03-12_17h02.51.715,MainFlow,2024.2.4,129.9106214919303,2025-03-12 17h03.01.445251 +0700,
2,8,0,word/worden0081.png,image/False/imgf08.png,73,73,0,x,0.6660014000008232,None,0,73,73,73,248.80826460000026,,,,,,,250.29415460000018,249.79465029999847,249.7987009999997,249.7987009999997,250.29415460000018,250.29415460000018,250.28757359999872,251.37653820000014,251.37653820000014,251.37653820000014,x,0.6660014000008232,None,,,,,,,,PT_en,001,2025-03-12_17h02.51.715,MainFlow,2024.2.4,129.9106214919303,2025-03-12 17h03.01.445251 +0700,
2,82,0,word/worden0821.png,image/False/imgf82.png,74,74,0,x,1.0013882999992347,None,0,74,74,74,252.05358579999847,,,,,,,253.5394467999995,253.0410140999993,253.0450062,253.0450062,253.5394467999995,253.5394467999995,253.53330209999876,254.6354467000001,254.6354467000001,254.6354467000001,x,1.0013882999992347,None,,,,,,,,PT_en,001,2025-03-12_17h02.51.715,MainFlow,2024.2.4,129.9106214919303,2025-03-12 17h03.01.445251 +0700,
2,14,0,word/worden0141.png,image/False/imgf14.png,75,75,0,x,0.6315785999995569,None,0,75,75,75,255.65039429999888,,,,,,,257.13628919999974,256.63708059999954,256.64092699999856,256.64092699999856,257.13628919999974,257.13628919999974,257.12956179999856,258.22912480000014,258.22912480000014,258.22912480000014,x,0.6315785999995569,None,,,,,,,,PT_en,001,2025-03-12_17h02.51.715,MainFlow,2024.2.4,129.9106214919303,2025-03-12 17h03.01.445251 +0700,
2,71,1,word/worden0711.png,image/True/img71.png,76,76,0,z,0.31152230000043346,None,0,76,76,76,258.86918139999943,,,,,,,260.3551110999997,259.85692989999916,259.86110109999936,259.86110109999936,260.3551110999997,260.3551110999997,260.3484231000002,261.48868439999933,261.48868439999933,261.48868439999933,z,0.31152230000043346,None,,,,,,,,PT_en,001,2025-03-12_17h02.51.715,MainFlow,2024.2.4,129.9106214919303,2025-03-12 17h03.01.445251 +0700,
2,22,0,word/worden0221.png,image/False/imgf22.png,77,77,0,x,0.4475350000011531,None,0,77,77,77,261.80724629999895,,,,,,,263.2939943000001,262.79621529999895,262.8004458999985,262.8004458999985,263.2939943000001,263.2939943000001,263.2873693999991,264.40130659999886,264.40130659999886,264.40130659999886,x,0.4475350000011531,None,,,,,,,,PT_en,001,2025-03-12_17h02.51.715,MainFlow,2024.2.4,129.9106214919303,2025-03-12 17h03.01.445251 +0700,
2,78,1,word/worden0781.png,image/True/img78.png,78,78,0,z,0.43174139999973704,None,0,78,78,78,264.8599760999987,,,,,,,266.34653459999936,265.8472340999997,265.85121160000017,265.85121160000017,266.34653459999936,266.34653459999936,266.33987530000013,267.4361878999989,267.4361878999989,267.4361878999989,z,0.43174139999973704,None,,,,,,,,PT_en,001,2025-03-12_17h02.51.715,MainFlow,2024.2.4,129.9106214919303,2025-03-12 17h03.01.445251 +0700,
2,51,0,word/worden0511.png,image/False/imgf51.png,79,79,0,x,0.6021479999999428,None,0,79,79,79,267.88049489999867,,,,,,,269.3664908999999,268.867125499999,268.87100979999923,268.87100979999923,269.3664908999999,269.3664908999999,269.3597725999989,270.444795899999,270.444795899999,270.444795899999,x,0.6021479999999428,None,,,,,,,,PT_en,001,2025-03-12_17h02.51.715,MainFlow,2024.2.4,129.9106214919303,2025-03-12 17h03.01.445251 +0700,
2,56,1,word/worden0561.png,image/True/img56.png,80,80,0,z,0.5246977000006154,None,0,80,80,80,271.05590329999904,,,,,,,272.54171270000006,272.04276239999854,272.04686330000004,272.04686330000004,272.54171270000006,272.54171270000006,272.5355571,273.62654569999904,273.62654569999904,273.62654569999904,z,0.5246977000006154,None,,,,,,,,PT_en,001,2025-03-12_17h02.51.715,MainFlow,2024.2.4,129.9106214919303,2025-03-12 17h03.01.445251 +0700,
2,60,1,word/worden0601.png,image/True/img60.png,81,81,0,z,0.4424715000004653,None,0,81,81,81,274.1626712999987,,,,,,,275.64859049999905,275.14964150000014,275.1537927999998,275.1537927999998,275.64859049999905,275.64859049999905,275.64194679999855,276.7324813999985,276.7324813999985,276.7324813999985,z,0.4424715000004653,None,,,,,,,,PT_en,001,2025-03-12_17h02.51.715,MainFlow,2024.2.4,129.9106214919303,2025-03-12 17h03.01.445251 +0700,
2,96,0,word/worden0961.png,image/False/imgf96.png,82,82,0,x,0.5531750000009197,None,0,82,82,82,277.18617409999933,,,,,,,278.6721132999992,278.1729446999998,278.17694329999904,278.17694329999904,278.6721132999992,278.6721132999992,278.66544409999915,279.7665694999996,279.7665694999996,279.7665694999996,x,0.5531750000009197,None,,,,,,,,PT_en,001,2025-03-12_17h02.51.715,MainFlow,2024.2.4,129.9106214919303,2025-03-12 17h03.01.445251 +0700,
2,3,0,word/worden0031.png,image/False/imgf03.png,83,83,0,x,0.4490163999998913,None,0,83,83,83,280.3313015999993,,,,,,,281.8172433,281.3179014999987,281.3217800000002,281.3217800000002,281.8172433,281.8172433,281.8106644999989,282.9038260999987,282.9038260999987,282.9038260999987,x,0.4490163999998913,None,,,,,,,,PT_en,001,2025-03-12_17h02.51.715,MainFlow,2024.2.4,129.9106214919303,2025-03-12 17h03.01.445251 +0700,
2,55,0,word/worden0551.png,image/False/imgf55.png,84,84,0,x,0.4450405999996292,None,0,84,84,84,283.36199469999883,,,,,,,284.8479779999998,284.34839889999967,284.3526774000002,284.3526774000002,284.8479779999998,284.8479779999998,284.8412910999996,285.9371145999994,285.9371145999994,285.9371145999994,x,0.4450405999996292,None,,,,,,,,PT_en,001,2025-03-12_17h02.51.715,MainFlow,2024.2.4,129.9106214919303,2025-03-12 17h03.01.445251 +0700,
2,71,1,word/worden0711.png,image/True/img71.png,85,85,0,z,0.42555929999980435,None,0,85,85,85,286.3951505999994,,,,,,,287.88160139999854,287.3820767999987,287.38612099999955,287.38612099999955,287.88160139999854,287.88160139999854,287.8749487999994,288.9865052999994,288.9865052999994,288.9865052999994,z,0.42555929999980435,None,,,,,,,,PT_en,001,2025-03-12_17h02.51.715,MainFlow,2024.2.4,129.9106214919303,2025-03-12 17h03.01.445251 +0700,
2,3,1,word/worden0031.png,image/True/img03.png,86,86,0,z,0.581590600000709,None,0,86,86,86,289.4207471999998,,,,,,,290.9066754999985,290.407378599999,290.4113407999994,290.4113407999994,290.9066754999985,290.9066754999985,290.8999705999995,292.0034206,292.0034206,292.0034206,z,0.581590600000709,None,,,,,,,,PT_en,001,2025-03-12_17h02.51.715,MainFlow,2024.2.4,129.9106214919303,2025-03-12 17h03.01.445251 +0700,
2,52,1,word/worden0521.png,image/True/img52.png,87,87,0,z,0.6569487000015215,None,0,87,87,87,292.59387549999883,,,,,,,294.07978430000003,293.5806364,293.58446379999987,293.58446379999987,294.07978430000003,294.07978430000003,294.07308699999885,295.18220159999873,295.18220159999873,295.18220159999873,z,0.6569487000015215,None,,,,,,,,PT_en,001,2025-03-12_17h02.51.715,MainFlow,2024.2.4,129.9106214919303,2025-03-12 17h03.01.445251 +0700,
2,95,0,word/worden0951.png,image/False/imgf95.png,88,88,0,x,0.4177046999993763,None,0,88,88,88,295.84806749999916,,,,,,,297.333971,296.834477299999,296.83852829999887,296.83852829999887,297.333971,297.333971,297.32738789999894,298.43520119999994,298.43520119999994,298.43520119999994,x,0.4177046999993763,None,,,,,,,,PT_en,001,2025-03-12_17h02.51.715,MainFlow,2024.2.4,129.9106214919303,2025-03-12 17h03.01.445251 +0700,
2,6,0,word/worden0061.png,image/False/imgf06.png,89,89,0,z,0.594665000000532,None,0,89,89,89,298.8656745999997,,,,,,,300.35156669999924,299.85241549999955,299.8564022999999,299.8564022999999,300.35156669999924,300.35156669999924,300.34488489999967,301.4278341999998,301.4278341999998,301.4278341999998,z,0.594665000000532,None,,,,,,,,PT_en,001,2025-03-12_17h02.51.715,MainFlow,2024.2.4,129.9106214919303,2025-03-12 17h03.01.445251 +0700,
2,79,1,word/worden0791.png,image/True/img79.png,90,90,0,z,0.6897619999999733,None,0,90,90,90,302.031906799999,,,,,,,303.51780770000005,303.01924249999865,303.02328839999973,303.02328839999973,303.51780770000005,303.51780770000005,303.5110876999988,304.6119724,304.6119724,304.6119724,z,0.6897619999999733,None,,,,,,,,PT_en,001,2025-03-12_17h02.51.715,MainFlow,2024.2.4,129.9106214919303,2025-03-12 17h03.01.445251 +0700,
2,61,0,word/worden0611.png,image/False/imgf61.png,91,91,0,x,0.496987700000318,None,0,91,91,91,305.3091021,,,,,,,306.7950142999998,306.29550969999946,306.2994545999991,306.2994545999991,306.7950142999998,306.7950142999998,306.78835379999873,307.8950597999992,307.8950597999992,307.8950597999992,x,0.496987700000318,None,,,,,,,,PT_en,001,2025-03-12_17h02.51.715,MainFlow,2024.2.4,129.9106214919303,2025-03-12 17h03.01.445251 +0700,
2,46,0,word/worden0461.png,image/False/imgf46.png,92,92,0,x,0.6672730999998748,None,0,92,92,92,308.4018096,,,,,,,309.8877733999998,309.3884100999985,309.39242919999924,309.39242919999924,309.8877733999998,309.8877733999998,309.88103859999865,310.99173899999914,310.99173899999914,310.99173899999914,x,0.6672730999998748,None,,,,,,,,PT_en,001,2025-03-12_17h02.51.715,MainFlow,2024.2.4,129.9106214919303,2025-03-12 17h03.01.445251 +0700,
2,89,1,word/worden0891.png,image/True/img89.png,93,93,0,z,0.6525272999988374,None,0,93,93,93,311.6700858999993,,,,,,,313.15602169999875,312.6569385999992,312.66084669999873,312.66084669999873,313.15602169999875,313.15602169999875,313.14932599999884,314.2403617,314.2403617,314.2403617,z,0.6525272999988374,None,,,,,,,,PT_en,001,2025-03-12_17h02.51.715,MainFlow,2024.2.4,129.9106214919303,2025-03-12 17h03.01.445251 +0700,
2,26,0,word/worden0261.png,image/False/imgf26.png,94,94,0,x,1.0574483000000328,None,0,94,94,94,314.90164339999865,,,,,,,316.38742249999996,315.8891429999985,315.89306939999915,315.89306939999915,316.38742249999996,316.38742249999996,316.3812431999995,317.50447929999973,317.50447929999973,317.50447929999973,x,1.0574483000000328,None,,,,,,,,PT_en,001,2025-03-12_17h02.51.715,MainFlow,2024.2.4,129.9106214919303,2025-03-12 17h03.01.445251 +0700,
2,44,0,word/worden0441.png,image/False/imgf44.png,95,95,0,x,0.41568910000023607,None,0,95,95,95,318.56958359999953,,,,,,,320.05599280000024,319.55654349999895,319.5608186999998,319.5608186999998,320.05599280000024,320.05599280000024,320.0493637999989,321.1602836999991,321.1602836999991,321.1602836999991,x,0.41568910000023607,None,,,,,,,,PT_en,001,2025-03-12_17h02.51.715,MainFlow,2024.2.4,129.9106214919303,2025-03-12 17h03.01.445251 +0700,
2,82,1,word/worden0821.png,image/True/img82.png,96,96,0,z,0.9876945999985765,None,0,96,96,96,321.5881301999998,,,,,,,323.07409649999863,322.5746703999994,322.57854849999967,322.57854849999967,323.07409649999863,323.07409649999863,323.067477999999,324.17714199999864,324.17714199999864,324.17714199999864,z,0.9876945999985765,None,,,,,,,,PT_en,001,2025-03-12_17h02.51.715,MainFlow,2024.2.4,129.9106214919303,2025-03-12 17h03.01.445251 +0700,
2,16,1,word/worden0161.png,image/True/img16.png,97,97,0,z,0.8290558999997302,None,0,97,97,97,325.17587339999955,,,,,,,326.6618578999987,326.1627776999994,326.1670121999996,326.1670121999996,326.6618578999987,326.6618578999987,326.6551510999998,327.78007949999846,327.78007949999846,327.78007949999846,z,0.8290558999997302,None,,,,,,,,PT_en,001,2025-03-12_17h02.51.715,MainFlow,2024.2.4,129.9106214919303,2025-03-12 17h03.01.445251 +0700,
2,20,1,word/worden0201.png,image/True/img20.png,98,98,0,z,0.5681129000004148,None,0,98,98,98,328.62059099999897,,,,,,,330.10744410000007,329.6090260000001,329.6137631999991,329.6137631999991,330.10744410000007,330.10744410000007,330.1011992999993,331.21960859999854,331.21960859999854,331.21960859999854,z,0.5681129000004148,None,,,,,,,,PT_en,001,2025-03-12_17h02.51.715,MainFlow,2024.2.4,129.9106214919303,2025-03-12 17h03.01.445251 +0700,
2,20,1,word/worden0201.png,image/True/img20.png,99,99,0,z,0.5351270000010118,None,0,99,99,99,331.79561060000015,,,,,,,333.2815015999986,332.78262670000004,332.7867798999996,332.7867798999996,333.2815015999986,333.2815015999986,333.27484209999966,334.39188300000023,334.39188300000023,334.39188300000023,z,0.5351270000010118,None,,,,,,,,PT_en,001,2025-03-12_17h02.51.715,MainFlow,2024.2.4,129.9106214919303,2025-03-12 17h03.01.445251 +0700,
2,96,1,word/worden0961.png,image/True/img96.png,100,100,0,z,0.6632001999987551,None,0,100,100,100,334.9397269000001,,,,,,,336.42577449999953,335.9274700999995,335.9315355999988,335.9315355999988,336.42577449999953,336.42577449999953,336.419699099999,337.52798619999885,337.52798619999885,337.52798619999885,z,0.6632001999987551,None,,,,,,,,PT_en,001,2025-03-12_17h02.51.715,MainFlow,2024.2.4,129.9106214919303,2025-03-12 17h03.01.445251 +0700,
2,64,1,word/worden0641.png,image/True/img64.png,101,101,0,x,2.1635679000009986,None,0,101,101,101,338.2009068999996,,,,,,,339.6868665000002,339.18763020000006,339.19164909999927,339.19164909999927,339.6868665000002,339.6868665000002,339.6801680999997,340.7708376999999,340.7708376999999,340.7708376999999,x,2.1635679000009986,None,,,,,,,,PT_en,001,2025-03-12_17h02.51.715,MainFlow,2024.2.4,129.9106214919303,2025-03-12 17h03.01.445251 +0700,
2,78,0,word/worden0781.png,image/False/imgf78.png,102,102,0,x,0.9073841999997967,None,0,102,102,102,342.9466683999999,,,,,,,344.43265599999904,343.9335941999998,343.9376362999992,343.9376362999992,344.43265599999904,344.43265599999904,344.4259213999994,345.5169249999999,345.5169249999999,345.5169249999999,x,0.9073841999997967,None,,,,,,,,PT_en,001,2025-03-12_17h02.51.715,MainFlow,2024.2.4,129.9106214919303,2025-03-12 17h03.01.445251 +0700,
2,20,0,word/worden0201.png,image/False/imgf20.png,103,103,0,x,1.474888300001112,None,0,103,103,103,346.43534829999953,,,,,,,347.92123600000014,347.42262649999975,347.4266444999994,347.4266444999994,347.92123600000014,347.92123600000014,347.91453529999853,349.0418575999993,349.0418575999993,349.0418575999993,x,1.474888300001112,None,,,,,,,,PT_en,001,2025-03-12_17h02.51.715,MainFlow,2024.2.4,129.9106214919303,2025-03-12 17h03.01.445251 +0700,
2,89,1,word/worden0891.png,image/True/img89.png,104,104,0,z,0.849468500000512,None,0,104,104,104,350.5273454999988,,,,,,,352.0132307999993,351.5146991999991,351.51859499999955,351.51859499999955,352.0132307999993,352.0132307999993,352.00654939999913,353.096889299999,353.096889299999,353.096889299999,z,0.849468500000512,None,,,,,,,,PT_en,001,2025-03-12_17h02.51.715,MainFlow,2024.2.4,129.9106214919303,2025-03-12 17h03.01.445251 +0700,
2,59,0,word/worden0591.png,image/False/imgf59.png,105,105,0,x,0.5202666000004683,None,0,105,105,105,353.96008319999964,,,,,,,355.44597950000025,354.94673559999865,354.9507331999994,354.9507331999994,355.44597950000025,355.44597950000025,355.43928269999924,356.5342252999999,356.5342252999999,356.5342252999999,x,0.5202666000004683,None,,,,,,,,PT_en,001,2025-03-12_17h02.51.715,MainFlow,2024.2.4,129.9106214919303,2025-03-12 17h03.01.445251 +0700,
2,24,0,word/worden0241.png,image/False/imgf24.png,106,106,0,x,0.55971800000043,None,0,106,106,106,357.0617351000001,,,,,,,358.54775639999934,358.0491203999991,358.0531155999997,358.0531155999997,358.54775639999934,358.54775639999934,358.541029,359.6390935999989,359.6390935999989,359.6390935999989,x,0.55971800000043,None,,,,,,,,PT_en,001,2025-03-12_17h02.51.715,MainFlow,2024.2.4,129.9106214919303,2025-03-12 17h03.01.445251 +0700,
2,28,0,word/worden0281.png,image/False/imgf28.png,107,107,0,x,0.6897523000006913,None,0,107,107,107,360.2078781,,,,,,,361.69384790000004,361.19529409999996,361.1993876999986,361.1993876999986,361.69384790000004,361.69384790000004,361.6871049000001,362.7882669999999,362.7882669999999,362.7882669999999,x,0.6897523000006913,None,,,,,,,,PT_en,001,2025-03-12_17h02.51.715,MainFlow,2024.2.4,129.9106214919303,2025-03-12 17h03.01.445251 +0700,
2,15,0,word/worden0151.png,image/False/imgf15.png,108,108,0,x,0.6574388999997609,None,0,108,108,108,363.4850762999995,,,,,,,364.97105809999994,364.47215979999964,364.4762160999999,364.4762160999999,364.97105809999994,364.97105809999994,364.96435459999884,366.06427259999873,366.06427259999873,366.06427259999873,x,0.6574388999997609,None,,,,,,,,PT_en,001,2025-03-12_17h02.51.715,MainFlow,2024.2.4,129.9106214919303,2025-03-12 17h03.01.445251 +0700,
2,30,1,word/worden0301.png,image/True/img30.png,109,109,0,z,0.7114258000001428,None,0,109,109,109,366.73433119999936,,,,,,,368.2202219999999,367.7214151999997,367.7255015999999,367.7255015999999,368.2202219999999,368.2202219999999,368.21351569999933,369.3094137999997,369.3094137999997,369.3094137999997,z,0.7114258000001428,None,,,,,,,,PT_en,001,2025-03-12_17h02.51.715,MainFlow,2024.2.4,129.9106214919303,2025-03-12 17h03.01.445251 +0700,
2,64,1,word/worden0641.png,image/True/img64.png,110,110,0,z,0.4273713000002317,None,0,110,110,110,370.03158599999915,,,,,,,371.51755559999947,371.0186625999995,371.02281779999976,371.02281779999976,371.51755559999947,371.51755559999947,371.5107991999994,372.6080426999997,372.6080426999997,372.6080426999997,z,0.4273713000002317,None,,,,,,,,PT_en,001,2025-03-12_17h02.51.715,MainFlow,2024.2.4,129.9106214919303,2025-03-12 17h03.01.445251 +0700,
2,52,0,word/worden0521.png,image/False/imgf52.png,111,111,0,x,0.9396644999997079,None,0,111,111,111,373.04559119999976,,,,,,,374.5313946999995,374.0324571000001,374.0365654999987,374.0365654999987,374.5313946999995,374.5313946999995,374.5248974999995,375.6343976999997,375.6343976999997,375.6343976999997,x,0.9396644999997079,None,,,,,,,,PT_en,001,2025-03-12_17h02.51.715,MainFlow,2024.2.4,129.9106214919303,2025-03-12 17h03.01.445251 +0700,
2,33,1,word/worden0331.png,image/True/img33.png,112,112,0,z,0.5256578000007721,None,0,112,112,112,376.58434469999884,,,,,,,378.07076079999933,377.57217630000014,377.5763060999998,377.5763060999998,378.07076079999933,378.07076079999933,378.0640906999997,379.1723514999994,379.1723514999994,379.1723514999994,z,0.5256578000007721,None,,,,,,,,PT_en,001,2025-03-12_17h02.51.715,MainFlow,2024.2.4,129.9106214919303,2025-03-12 17h03.01.445251 +0700,
2,23,1,word/worden0231.png,image/True/img23.png,113,113,0,z,3.61782950000088,None,0,113,113,113,379.7069384999995,,,,,,,381.1928834999999,380.6940133999997,380.6982838999993,380.6982838999993,381.1928834999999,381.1928834999999,381.1863279999998,382.298333499999,382.298333499999,382.298333499999,z,3.61782950000088,None,,,,,,,,PT_en,001,2025-03-12_17h02.51.715,MainFlow,2024.2.4,129.9106214919303,2025-03-12 17h03.01.445251 +0700,
2,11,1,word/worden0111.png,image/True/img11.png,114,114,0,z,1.1405224999998609,None,0,114,114,114,385.9251041999996,,,,,,,387.41104899999846,386.91218409999965,386.91629789999934,386.91629789999934,387.41104899999846,387.41104899999846,387.40436579999914,388.52524540000013,388.52524540000013,388.52524540000013,z,1.1405224999998609,None,,,,,,,,PT_en,001,2025-03-12_17h02.51.715,MainFlow,2024.2.4,129.9106214919303,2025-03-12 17h03.01.445251 +0700,
2,22,1,word/worden0221.png,image/True/img22.png,115,115,0,z,0.5882932000004075,None,0,115,115,115,389.6762146000001,,,,,,,391.1622869999992,390.6631204999994,390.6674994999994,390.6674994999994,391.1622869999992,391.1622869999992,391.1555351999996,392.27657949999957,392.27657949999957,392.27657949999957,z,0.5882932000004075,None,,,,,,,,PT_en,001,2025-03-12_17h02.51.715,MainFlow,2024.2.4,129.9106214919303,2025-03-12 17h03.01.445251 +0700,
2,37,0,word/worden0371.png,image/False/imgf37.png,116,116,0,x,0.6868440999987797,None,0,116,116,116,392.8720704999996,,,,,,,394.3580389999988,393.859295799999,393.86328089999915,393.86328089999915,394.3580389999988,394.3580389999988,394.3513406000002,395.4816114999994,395.4816114999994,395.4816114999994,x,0.6868440999987797,None,,,,,,,,PT_en,001,2025-03-12_17h02.51.715,MainFlow,2024.2.4,129.9106214919303,2025-03-12 17h03.01.445251 +0700,
2,79,0,word/worden0791.png,image/False/imgf79.png,117,117,0,x,0.6186072000000422,None,0,117,117,117,396.1754930999996,,,,,,,397.6614866,397.16253439999855,397.16666259999874,397.16666259999874,397.6614866,397.6614866,397.6547680999993,398.77466099999947,398.77466099999947,398.77466099999947,x,0.6186072000000422,None,,,,,,,,PT_en,001,2025-03-12_17h02.51.715,MainFlow,2024.2.4,129.9106214919303,2025-03-12 17h03.01.445251 +0700,
2,56,1,word/worden0561.png,image/True/img56.png,118,118,0,z,0.4839917000008427,None,0,118,118,118,399.4056697999986,,,,,,,400.89158829999906,400.3927477999987,400.3967735999995,400.3967735999995,400.89158829999906,400.89158829999906,400.8849023999992,402.0078905999999,402.0078905999999,402.0078905999999,z,0.4839917000008427,None,,,,,,,,PT_en,001,2025-03-12_17h02.51.715,MainFlow,2024.2.4,129.9106214919303,2025-03-12 17h03.01.445251 +0700,
2,68,1,word/worden0681.png,image/True/img68.png,119,119,0,z,1.288609400000496,None,0,119,119,119,402.50386479999906,,,,,,,403.9903915999985,403.4912429999986,403.4952513999997,403.4952513999997,403.9903915999985,403.9903915999985,403.9837095999992,405.07296320000023,405.07296320000023,405.07296320000023,z,1.288609400000496,None,,,,,,,,PT_en,001,2025-03-12_17h02.51.715,MainFlow,2024.2.4,129.9106214919303,2025-03-12 17h03.01.445251 +0700,
2,27,0,word/worden0271.png,image/False/imgf27.png,120,120,0,x,0.5805529999997816,None,0,120,120,120,406.3748722,,,,,,,407.8607445999987,407.3614269999998,407.3655614999989,407.3655614999989,407.8607445999987,407.8607445999987,407.8540691999988,408.9440094999991,408.9440094999991,408.9440094999991,x,0.5805529999997816,None,,,,,,,,PT_en,001,2025-03-12_17h02.51.715,MainFlow,2024.2.4,129.9106214919303,2025-03-12 17h03.01.445251 +0700,
2,3,1,word/worden0031.png,image/True/img03.png,121,121,0,z,1.868130500000916,None,0,121,121,121,409.5369082999987,,,,,,,411.0228557999999,410.52341669999987,410.52731909999966,410.52731909999966,411.0228557999999,411.0228557999999,411.01614169999993,412.11603619999914,412.11603619999914,412.11603619999914,z,1.868130500000916,None,,,,,,,,PT_en,001,2025-03-12_17h02.51.715,MainFlow,2024.2.4,129.9106214919303,2025-03-12 17h03.01.445251 +0700,
2,38,0,word/worden0381.png,image/False/imgf38.png,122,122,0,x,2.1599132000010286,None,0,122,122,122,413.9944808,,,,,,,415.48039659999995,414.98116279999886,414.98514109999996,414.98514109999996,415.48039659999995,415.48039659999995,415.4737331999986,416.5928275999995,416.5928275999995,416.5928275999995,x,2.1599132000010286,None,,,,,,,,PT_en,001,2025-03-12_17h02.51.715,MainFlow,2024.2.4,129.9106214919303,2025-03-12 17h03.01.445251 +0700,
2,59,1,word/worden0591.png,image/True/img59.png,123,123,0,z,0.4672857000005024,None,0,123,123,123,418.7658062999999,,,,,,,420.251729399999,419.75201819999893,419.75592609999876,419.75592609999876,420.2447336999994,420.2447336999994,420.2385942000001,421.3237881999994,421.3237881999994,421.3237881999994,z,0.4672857000005024,None,,,,,,,,PT_en,001,2025-03-12_17h02.51.715,MainFlow,2024.2.4,129.9106214919303,2025-03-12 17h03.01.445251 +0700,
2,18,1,word/worden0181.png,image/True/img18.png,124,124,0,z,0.6547299000012572,None,0,124,124,124,421.7994282999989,,,,,,,423.28527609999946,422.78729479999856,422.79124429999865,422.79124429999865,423.28527609999946,423.28527609999946,423.2786256999989,424.36543879999954,424.36543879999954,424.36543879999954,z,0.6547299000012572,None,,,,,,,,PT_en,001,2025-03-12_17h02.51.715,MainFlow,2024.2.4,129.9106214919303,2025-03-12 17h03.01.445251 +0700,
2,60,1,word/worden0601.png,image/True/img60.png,125,125,0,z,0.44831540000086534,None,0,125,125,125,425.0305092999988,,,,,,,426.5164477999988,426.01723909999964,426.02115349999985,426.02115349999985,426.5164477999988,426.5164477999988,426.5102920999998,427.60073790000024,427.60073790000024,427.60073790000024,z,0.44831540000086534,None,,,,,,,,PT_en,001,2025-03-12_17h02.51.715,MainFlow,2024.2.4,129.9106214919303,2025-03-12 17h03.01.445251 +0700,
2,9,1,word/worden0091.png,image/True/img09.png,126,126,0,z,0.5458394000015687,None,0,126,126,126,428.06055509999896,,,,,,,429.54649470000004,429.04786369999965,429.0520084999989,429.0520084999989,429.54649470000004,429.54649470000004,429.54038109999965,430.61268579999887,430.61268579999887,430.61268579999887,z,0.5458394000015687,None,,,,,,,,PT_en,001,2025-03-12_17h02.51.715,MainFlow,2024.2.4,129.9106214919303,2025-03-12 17h03.01.445251 +0700,
2,9,0,word/worden0091.png,image/False/imgf09.png,127,127,0,x,0.5333233999990625,None,0,127,127,127,431.1684205999991,,,,,,,432.6550195999989,432.1567242000001,432.16110969999863,432.16110969999863,432.6550195999989,432.6550195999989,432.64843459999975,433.7433184999991,433.7433184999991,433.7433184999991,x,0.5333233999990625,None,,,,,,,,PT_en,001,2025-03-12_17h02.51.715,MainFlow,2024.2.4,129.9106214919303,2025-03-12 17h03.01.445251 +0700,
2,94,0,word/worden0941.png,image/False/imgf94.png,128,128,0,x,0.5787675999999919,None,0,128,128,128,434.28456689999985,,,,,,,435.77389799999946,435.27552560000004,435.28006279999863,435.28006279999863,435.77389799999946,435.77389799999946,435.76723870000023,436.90160409999953,436.90160409999953,436.90160409999953,x,0.5787675999999919,None,,,,,,,,PT_en,001,2025-03-12_17h02.51.715,MainFlow,2024.2.4,129.9106214919303,2025-03-12 17h03.01.445251 +0700,
2,66,1,word/worden0661.png,image/True/img66.png,129,129,0,z,0.3732349999991129,None,0,129,129,129,437.4873719999996,,,,,,,438.9733089000001,438.4749617999987,438.478835599999,438.478835599999,438.9733089000001,438.9733089000001,438.9667181999994,440.081827,440.081827,440.081827,z,0.3732349999991129,None,,,,,,,,PT_en,001,2025-03-12_17h02.51.715,MainFlow,2024.2.4,129.9106214919303,2025-03-12 17h03.01.445251 +0700,
2,1,0,word/worden0011.png,image/False/imgf01.png,130,130,0,x,0.4895297999992181,None,0,130,130,130,440.4631840999991,,,,,,,441.9491367999999,441.4506500999996,441.454901699999,441.454901699999,441.9491367999999,441.9491367999999,441.94251149999945,443.04374909999933,443.04374909999933,443.04374909999933,x,0.4895297999992181,None,,,,,,,,PT_en,001,2025-03-12_17h02.51.715,MainFlow,2024.2.4,129.9106214919303,2025-03-12 17h03.01.445251 +0700,
2,89,0,word/worden0891.png,image/False/imgf89.png,131,131,0,x,1.5607948999986547,None,0,131,131,131,443.5459326,,,,,,,445.03306509999857,444.53494429999955,444.5397835999993,444.5397835999993,445.03306509999857,445.03306509999857,445.0264155999994,446.120947899999,446.120947899999,446.120947899999,x,1.5607948999986547,None,,,,,,,,PT_en,001,2025-03-12_17h02.51.715,MainFlow,2024.2.4,129.9106214919303,2025-03-12 17h03.01.445251 +0700,
2,48,1,word/worden0481.png,image/True/img48.png,132,132,0,z,0.37735690000044997,None,0,132,132,132,447.6899436999993,,,,,,,449.1758926000002,448.6764205999989,448.68038349999915,448.68038349999915,449.1758926000002,449.1758926000002,449.1691609999998,450.2741618,450.2741618,450.2741618,z,0.37735690000044997,None,,,,,,,,PT_en,001,2025-03-12_17h02.51.715,MainFlow,2024.2.4,129.9106214919303,2025-03-12 17h03.01.445251 +0700,
2,63,0,word/worden0631.png,image/False/imgf63.png,133,133,0,x,1.3944456999997783,None,0,133,133,133,450.66259309999987,,,,,,,452.1484770999996,451.6497005000001,451.6536978999993,451.6536978999993,452.1484770999996,452.1484770999996,452.14179709999917,453.24560719999863,453.24560719999863,453.24560719999863,x,1.3944456999997783,None,,,,,,,,PT_en,001,2025-03-12_17h02.51.715,MainFlow,2024.2.4,129.9106214919303,2025-03-12 17h03.01.445251 +0700,
2,23,1,word/worden0231.png,image/True/img23.png,134,134,0,z,0.7252122999998392,None,0,134,134,134,454.6482180999992,,,,,,,456.1342621999993,455.63499729999967,455.6389210999987,455.6389210999987,456.1342621999993,456.1342621999993,456.1275174000002,457.2232788000001,457.2232788000001,457.2232788000001,z,0.7252122999998392,None,,,,,,,,PT_en,001,2025-03-12_17h02.51.715,MainFlow,2024.2.4,129.9106214919303,2025-03-12 17h03.01.445251 +0700,
2,40,0,word/worden0401.png,image/False/imgf40.png,135,135,0,x,0.6175216999999975,None,0,135,135,135,457.95937629999935,,,,,,,459.44540210000014,458.94595599999957,458.94995089999975,458.94995089999975,459.44540210000014,459.44540210000014,459.4386837999991,460.53498279999985,460.53498279999985,460.53498279999985,x,0.6175216999999975,None,,,,,,,,PT_en,001,2025-03-12_17h02.51.715,MainFlow,2024.2.4,129.9106214919303,2025-03-12 17h03.01.445251 +0700,
2,52,1,word/worden0521.png,image/True/img52.png,136,136,0,z,0.5009826000004978,None,0,136,136,136,461.1597203000001,,,,,,,462.64632379999966,462.14809409999907,462.1523234999986,462.1523234999986,462.64632379999966,462.64632379999966,462.6396890999986,463.74267399999917,463.74267399999917,463.74267399999917,z,0.5009826000004978,None,,,,,,,,PT_en,001,2025-03-12_17h02.51.715,MainFlow,2024.2.4,129.9106214919303,2025-03-12 17h03.01.445251 +0700,
2,30,1,word/worden0301.png,image/True/img30.png,137,137,0,z,0.5378646999997727,None,0,137,137,137,464.2566393999987,,,,,,,465.7425633999992,465.24389279999923,465.24803470000006,465.24803470000006,465.7425633999992,465.7425633999992,465.73648129999856,466.82277629999953,466.82277629999953,466.82277629999953,z,0.5378646999997727,None,,,,,,,,PT_en,001,2025-03-12_17h02.51.715,MainFlow,2024.2.4,129.9106214919303,2025-03-12 17h03.01.445251 +0700,
2,15,1,word/worden0151.png,image/True/img15.png,138,138,0,z,0.6778797999995732,None,0,138,138,138,467.371465799999,,,,,,,468.8574367000001,468.3580291999988,468.36210049999863,468.36210049999863,468.8574367000001,468.8574367000001,468.85076819999995,469.9617163999992,469.9617163999992,469.9617163999992,z,0.6778797999995732,None,,,,,,,,PT_en,001,2025-03-12_17h02.51.715,MainFlow,2024.2.4,129.9106214919303,2025-03-12 17h03.01.445251 +0700,
2,46,1,word/worden0461.png,image/True/img46.png,139,139,0,z,1.112554100000125,None,0,139,139,139,470.64675569999963,,,,,,,472.13275129999965,471.6333677999992,471.6375092999988,471.6375092999988,472.13275129999965,472.13275129999965,472.12613339999916,473.2360985999985,473.2360985999985,473.2360985999985,z,1.112554100000125,None,,,,,,,,PT_en,001,2025-03-12_17h02.51.715,MainFlow,2024.2.4,129.9106214919303,2025-03-12 17h03.01.445251 +0700,
2,14,1,word/worden0141.png,image/True/img14.png,140,140,0,z,0.7833245000001625,None,0,140,140,140,474.3591232999988,,,,,,,475.84559329999865,475.34672879999925,475.35081459999856,475.35081459999856,475.84559329999865,475.84559329999865,475.83894390000023,476.93384799999876,476.93384799999876,476.93384799999876,z,0.7833245000001625,None,,,,,,,,PT_en,001,2025-03-12_17h02.51.715,MainFlow,2024.2.4,129.9106214919303,2025-03-12 17h03.01.445251 +0700,
2,66,0,word/worden0661.png,image/False/imgf66.png,141,141,0,x,1.3604711000007228,None,0,141,141,141,477.7253062,,,,,,,479.2112531999992,478.7119286999987,478.71581439999864,478.71581439999864,479.2112531999992,479.2112531999992,479.2046591999988,480.29963229999885,480.29963229999885,480.29963229999885,x,1.3604711000007228,None,,,,,,,,PT_en,001,2025-03-12_17h02.51.715,MainFlow,2024.2.4,129.9106214919303,2025-03-12 17h03.01.445251 +0700,
2,46,0,word/worden0461.png,image/False/imgf46.png,142,142,0,x,0.5291068999995332,None,0,142,142,142,481.66706689999955,,,,,,,483.15353779999896,482.65414789999886,482.65813139999955,482.65813139999955,483.15353779999896,483.15353779999896,483.1468499999992,484.2551180999999,484.2551180999999,484.2551180999999,x,0.5291068999995332,None,,,,,,,,PT_en,001,2025-03-12_17h02.51.715,MainFlow,2024.2.4,129.9106214919303,2025-03-12 17h03.01.445251 +0700,
2,18,1,word/worden0181.png,image/True/img18.png,143,143,0,z,0.9791236000000936,None,0,143,143,143,484.79660259999946,,,,,,,486.2825334999998,485.78334689999974,485.7873342999992,485.7873342999992,486.2825334999998,486.2825334999998,486.2758367999995,487.35893739999847,487.35893739999847,487.35893739999847,z,0.9791236000000936,None,,,,,,,,PT_en,001,2025-03-12_17h02.51.715,MainFlow,2024.2.4,129.9106214919303,2025-03-12 17h03.01.445251 +0700,
2,51,0,word/worden0511.png,image/False/imgf51.png,144,144,0,x,0.5736352000003535,None,0,144,144,144,488.3517843999998,,,,,,,489.8376447999999,489.33814840000014,489.34214040000006,489.34214040000006,489.8376447999999,489.8376447999999,489.83149349999985,490.91781249999985,490.91781249999985,490.91781249999985,x,0.5736352000003535,None,,,,,,,,PT_en,001,2025-03-12_17h02.51.715,MainFlow,2024.2.4,129.9106214919303,2025-03-12 17h03.01.445251 +0700,
2,76,1,word/worden0761.png,image/True/img76.png,145,145,0,z,0.5395867999995971,None,0,145,145,145,491.5015334999989,,,,,,,492.98807099999976,492.4881227999995,492.49212519999855,492.49212519999855,492.98807099999976,492.98807099999976,492.98167379999904,494.0760558000002,494.0760558000002,494.0760558000002,z,0.5395867999995971,None,,,,,,,,PT_en,001,2025-03-12_17h02.51.715,MainFlow,2024.2.4,129.9106214919303,2025-03-12 17h03.01.445251 +0700,
2,57,1,word/worden0571.png,image/True/img57.png,146,146,0,z,0.3942769000004773,None,0,146,146,146,494.62436499999967,,,,,,,496.11036889999923,495.6110205999994,495.61492889999863,495.61492889999863,496.11036889999923,496.11036889999923,496.1036934999993,497.1997812999998,497.1997812999998,497.1997812999998,z,0.3942769000004773,None,,,,,,,,PT_en,001,2025-03-12_17h02.51.715,MainFlow,2024.2.4,129.9106214919303,2025-03-12 17h03.01.445251 +0700,
2,48,0,word/worden0481.png,image/False/imgf48.png,147,147,0,x,0.573166999998648,None,0,147,147,147,497.6023454999995,,,,,,,499.08828319999884,498.5885411999989,498.5924739000002,498.5924739000002,499.08129050000025,499.08129050000025,499.075148599999,500.1893005999991,500.1893005999991,500.1893005999991,x,0.573166999998648,None,,,,,,,,PT_en,001,2025-03-12_17h02.51.715,MainFlow,2024.2.4,129.9106214919303,2025-03-12 17h03.01.445251 +0700,
2,37,0,word/worden0371.png,image/False/imgf37.png,148,148,0,x,1.7056001999990258,None,0,148,148,148,500.772291199999,,,,,,,502.2582824000001,501.7585655999992,501.7625329000002,501.7625329000002,502.2582824000001,502.2582824000001,502.25157039999976,503.36561299999994,503.36561299999994,503.36561299999994,x,1.7056001999990258,None,,,,,,,,PT_en,001,2025-03-12_17h02.51.715,MainFlow,2024.2.4,129.9106214919303,2025-03-12 17h03.01.445251 +0700,
2,60,0,word/worden0601.png,image/False/imgf60.png,149,149,0,x,1.5749613999996654,None,0,149,149,149,505.08138099999996,,,,,,,506.56724959999883,506.06806700000016,506.07205389999945,506.07205389999945,506.56724959999883,506.56724959999883,506.5608136999999,507.65490449999925,507.65490449999925,507.65490449999925,x,1.5749613999996654,None,,,,,,,,PT_en,001,2025-03-12_17h02.51.715,MainFlow,2024.2.4,129.9106214919303,2025-03-12 17h03.01.445251 +0700,
2,24,1,word/worden0241.png,image/True/img24.png,150,150,0,z,0.5613560000001598,None,0,150,150,150,509.23761419999937,,,,,,,510.72413229999984,510.2249217999997,510.2288849999986,510.2288849999986,510.72413229999984,510.72413229999984,510.71762709999894,511.7883898,511.7883898,511.7883898,z,0.5613560000001598,None,,,,,,,,PT_en,001,2025-03-12_17h02.51.715,MainFlow,2024.2.4,129.9106214919303,2025-03-12 17h03.01.445251 +0700,
2,40,1,word/worden0401.png,image/True/img40.png,151,151,0,z,0.5068159999991622,None,0,151,151,151,512.3583320999987,,,,,,,513.844232899999,513.3447896999987,513.3487596999985,513.3487596999985,513.844232899999,513.844232899999,513.8375684999992,514.9554883000001,514.9554883000001,514.9554883000001,z,0.5068159999991622,None,,,,,,,,PT_en,001,2025-03-12_17h02.51.715,MainFlow,2024.2.4,129.9106214919303,2025-03-12 17h03.01.445251 +0700,
2,54,1,word/worden0541.png,image/True/img54.png,152,152,0,z,0.7904689999995753,None,0,152,152,152,515.4753261999995,,,,,,,516.9613702999995,516.4617217999985,516.4656608999994,516.4656608999994,516.9613702999995,516.9613702999995,516.9547087999999,518.0606631999999,518.0606631999999,518.0606631999999,z,0.7904689999995753,None,,,,,,,,PT_en,001,2025-03-12_17h02.51.715,MainFlow,2024.2.4,129.9106214919303,2025-03-12 17h03.01.445251 +0700,
2,44,0,word/worden0441.png,image/False/imgf44.png,153,153,0,x,4.1006075000004785,None,0,153,153,153,518.8587904999986,,,,,,,520.3447102999999,519.8457660999993,519.8498385999992,519.8498385999992,520.3447102999999,520.3447102999999,520.3380068999995,521.4480337999994,521.4480337999994,521.4480337999994,x,4.1006075000004785,None,,,,,,,,PT_en,001,2025-03-12_17h02.51.715,MainFlow,2024.2.4,129.9106214919303,2025-03-12 17h03.01.445251 +0700,
2,79,1,word/worden0791.png,image/True/img79.png,154,154,0,z,0.6827599999996892,None,0,154,154,154,525.5574832999991,,,,,,,527.043431,526.5440577999998,526.5480122999998,526.5480122999998,527.043431,527.043431,527.036784599999,528.1347206999999,528.1347206999999,528.1347206999999,z,0.6827599999996892,None,,,,,,,,PT_en,001,2025-03-12_17h02.51.715,MainFlow,2024.2.4,129.9106214919303,2025-03-12 17h03.01.445251 +0700,
2,95,1,word/worden0951.png,image/True/img95.png,155,155,0,z,0.49757640000098036,None,0,155,155,155,528.8286900999992,,,,,,,530.3147284999995,529.8152897999989,529.8193160999999,529.8193160999999,530.3147284999995,530.3147284999995,530.308004999999,531.418571799999,531.418571799999,531.418571799999,z,0.49757640000098036,None,,,,,,,,PT_en,001,2025-03-12_17h02.51.715,MainFlow,2024.2.4,129.9106214919303,2025-03-12 17h03.01.445251 +0700,
2,37,1,word/worden0371.png,image/True/img37.png,156,156,0,x,0.5278283999996347,None,0,156,156,156,531.9235888999992,,,,,,,533.4095450999994,532.9100727999994,532.9139620999995,532.9139620999995,533.4095450999994,533.4095450999994,533.4029711999992,534.5168360999996,534.5168360999996,534.5168360999996,x,0.5278283999996347,None,,,,,,,,PT_en,001,2025-03-12_17h02.51.715,MainFlow,2024.2.4,129.9106214919303,2025-03-12 17h03.01.445251 +0700,
2,70,1,word/worden0701.png,image/True/img70.png,157,157,0,z,0.6063476999988779,None,0,157,157,157,535.0518407,,,,,,,536.537749699999,536.0382958999999,536.0421478999997,536.0421478999997,536.537749699999,536.537749699999,536.5311019000001,537.6270754999987,537.6270754999987,537.6270754999987,z,0.6063476999988779,None,,,,,,,,PT_en,001,2025-03-12_17h02.51.715,MainFlow,2024.2.4,129.9106214919303,2025-03-12 17h03.01.445251 +0700,
2,40,1,word/worden0401.png,image/True/img40.png,158,158,0,z,0.35498829999960435,None,0,158,158,158,538.2448633999993,,,,,,,539.7308159999993,539.2316320999998,539.2354971999994,539.2354971999994,539.7308159999993,539.7308159999993,539.7241916999992,540.8481429999993,540.8481429999993,540.8481429999993,z,0.35498829999960435,None,,,,,,,,PT_en,001,2025-03-12_17h02.51.715,MainFlow,2024.2.4,129.9106214919303,2025-03-12 17h03.01.445251 +0700,
2,30,0,word/worden0301.png,image/False/imgf30.png,159,159,0,x,0.9374308999995264,None,0,159,159,159,541.2115998999998,,,,,,,542.6975783999987,542.1982294999998,542.2021408,542.2021408,542.6975783999987,542.6975783999987,542.6909515999996,543.7785871999986,543.7785871999986,543.7785871999986,x,0.9374308999995264,None,,,,,,,,PT_en,001,2025-03-12_17h02.51.715,MainFlow,2024.2.4,129.9106214919303,2025-03-12 17h03.01.445251 +0700,
2,88,1,word/worden0881.png,image/True/img88.png,160,160,0,z,0.4525271000002249,None,0,160,160,160,544.727343999999,,,,,,,546.2138983999994,545.7145823999999,545.7185780999989,545.7185780999989,546.2138983999994,546.2138983999994,546.2071921999996,547.3123142999993,547.3123142999993,547.3123142999993,z,0.4525271000002249,None,,,,,,,,PT_en,001,2025-03-12_17h02.51.715,MainFlow,2024.2.4,129.9106214919303,2025-03-12 17h03.01.445251 +0700,
2,15,1,word/worden0151.png,image/True/img15.png,161,161,0,z,0.37950679999994463,None,0,161,161,161,547.7769828,,,,,,,549.2629628999985,548.7634982,548.7675679999993,548.7675679999993,549.2629628999985,549.2629628999985,549.2562495999991,550.3645811999995,550.3645811999995,550.3645811999995,z,0.37950679999994463,None,,,,,,,,PT_en,001,2025-03-12_17h02.51.715,MainFlow,2024.2.4,129.9106214919303,2025-03-12 17h03.01.445251 +0700,
2,54,1,word/worden0541.png,image/True/img54.png,162,162,0,z,0.44953870000063034,None,0,162,162,162,550.7528413,,,,,,,552.2387600000002,551.7391345999986,551.7430659999991,551.7430659999991,552.2387600000002,552.2387600000002,552.2320507999993,553.3431646999998,553.3431646999998,553.3431646999998,z,0.44953870000063034,None,,,,,,,,PT_en,001,2025-03-12_17h02.51.715,MainFlow,2024.2.4,129.9106214919303,2025-03-12 17h03.01.445251 +0700,
2,11,0,word/worden0111.png,image/False/imgf11.png,163,163,0,x,1.5719005999999354,None,0,163,163,163,553.8056572999994,,,,,,,555.2922203999988,554.7930320999985,554.7971003000002,554.7971003000002,555.2922203999988,555.2922203999988,555.2855118999996,556.3948342999993,556.3948342999993,556.3948342999993,x,1.5719005999999354,None,,,,,,,,PT_en,001,2025-03-12_17h02.51.715,MainFlow,2024.2.4,129.9106214919303,2025-03-12 17h03.01.445251 +0700,
2,16,1,word/worden0161.png,image/True/img16.png,164,164,0,z,0.5129475999983697,None,0,164,164,164,557.9767081999998,,,,,,,559.4631933000001,558.9636742999992,558.9676325,558.9676325,559.4631933000001,559.4631933000001,559.4564520999993,560.5677923999992,560.5677923999992,560.5677923999992,z,0.5129475999983697,None,,,,,,,,PT_en,001,2025-03-12_17h02.51.715,MainFlow,2024.2.4,129.9106214919303,2025-03-12 17h03.01.445251 +0700,
2,1,1,word/worden0011.png,image/True/img01.png,165,165,0,z,0.5730421999996906,None,0,165,165,165,561.0925792999988,,,,,,,562.5784719999992,562.0800029000002,562.0838382000002,562.0838382000002,562.5784719999992,562.5784719999992,562.5717432999991,563.6757497999988,563.6757497999988,563.6757497999988,z,0.5730421999996906,None,,,,,,,,PT_en,001,2025-03-12_17h02.51.715,MainFlow,2024.2.4,129.9106214919303,2025-03-12 17h03.01.445251 +0700,
2,22,0,word/worden0221.png,image/False/imgf22.png,166,166,0,x,0.5801222000009147,None,0,166,166,166,564.2586799000001,,,,,,,565.745153599999,565.2456917999989,565.2497324999986,565.2497324999986,565.745153599999,565.745153599999,565.7384550999996,566.8426331999999,566.8426331999999,566.8426331999999,x,0.5801222000009147,None,,,,,,,,PT_en,001,2025-03-12_17h02.51.715,MainFlow,2024.2.4,129.9106214919303,2025-03-12 17h03.01.445251 +0700,
2,63,1,word/worden0631.png,image/True/img63.png,167,167,0,z,0.47970189999978174,None,0,167,167,167,567.4324546999997,,,,,,,568.9184182999998,568.4188816999995,568.4228071999987,568.4228071999987,568.9184182999998,568.9184182999998,568.9117375999995,570.0067483000003,570.0067483000003,570.0067483000003,z,0.47970189999978174,None,,,,,,,,PT_en,001,2025-03-12_17h02.51.715,MainFlow,2024.2.4,129.9106214919303,2025-03-12 17h03.01.445251 +0700,
2,87,1,word/worden0871.png,image/True/img87.png,168,168,0,z,0.4719004999988101,None,0,168,168,168,570.499475999999,,,,,,,571.9855018999988,571.4857358999998,571.4897208000002,571.4897208000002,571.9855018999988,571.9855018999988,571.9787199000002,573.0836657,573.0836657,573.0836657,z,0.4719004999988101,None,,,,,,,,PT_en,001,2025-03-12_17h02.51.715,MainFlow,2024.2.4,129.9106214919303,2025-03-12 17h03.01.445251 +0700,
2,57,0,word/worden0571.png,image/False/imgf57.png,169,169,0,x,0.5479899999991176,None,0,169,169,169,573.5692377999985,,,,,,,575.0551754999997,574.5559517000002,574.5599839999995,574.5599839999995,575.0551754999997,575.0551754999997,575.0484879999985,576.1469996999986,576.1469996999986,576.1469996999986,x,0.5479899999991176,None,,,,,,,,PT_en,001,2025-03-12_17h02.51.715,MainFlow,2024.2.4,129.9106214919303,2025-03-12 17h03.01.445251 +0700,
2,94,0,word/worden0941.png,image/False/imgf94.png,170,170,0,x,0.5016684000001987,None,0,170,170,170,576.7084613999996,,,,,,,578.1949564999995,577.6958634999992,577.6998937999997,577.6998937999997,578.1949564999995,578.1949564999995,578.1882709000001,579.3022756999999,579.3022756999999,579.3022756999999,x,0.5016684000001987,None,,,,,,,,PT_en,001,2025-03-12_17h02.51.715,MainFlow,2024.2.4,129.9106214919303,2025-03-12 17h03.01.445251 +0700,
2,93,0,word/worden0931.png,image/False/imgf93.png,171,171,0,x,0.5812277999993967,None,0,171,171,171,579.8162495999986,,,,,,,581.3022015999995,580.8029783999991,580.8068679999997,580.8068679999997,581.3022015999995,581.3022015999995,581.2954945000001,582.3762780999987,582.3762780999987,582.3762780999987,x,0.5812277999993967,None,,,,,,,,PT_en,001,2025-03-12_17h02.51.715,MainFlow,2024.2.4,129.9106214919303,2025-03-12 17h03.01.445251 +0700,
2,61,1,word/worden0611.png,image/True/img61.png,172,172,0,z,0.4209888999994291,None,0,172,172,172,582.9680804,,,,,,,584.4540104999996,583.9547322999988,583.9587935999989,583.9587935999989,584.4540104999996,584.4540104999996,584.4473096000002,585.5455508999985,585.5455508999985,585.5455508999985,z,0.4209888999994291,None,,,,,,,,PT_en,001,2025-03-12_17h02.51.715,MainFlow,2024.2.4,129.9106214919303,2025-03-12 17h03.01.445251 +0700,
2,28,1,word/worden0281.png,image/True/img28.png,173,173,0,z,0.4345418000011705,None,0,173,173,173,585.9751767999987,,,,,,,587.4616103999997,586.9625050999985,586.9665374999986,586.9665374999986,587.4616103999997,587.4616103999997,587.4548703,588.5621461999999,588.5621461999999,588.5621461999999,z,0.4345418000011705,None,,,,,,,,PT_en,001,2025-03-12_17h02.51.715,MainFlow,2024.2.4,129.9106214919303,2025-03-12 17h03.01.445251 +0700,
2,46,1,word/worden0461.png,image/True/img46.png,174,174,0,z,0.5275282999991759,None,0,174,174,174,589.0066245999988,,,,,,,590.4925426999998,589.9931445000002,589.9976384000001,589.9976384000001,590.4925426999998,590.4925426999998,590.485885,591.5969162999991,591.5969162999991,591.5969162999991,z,0.5275282999991759,None,,,,,,,,PT_en,001,2025-03-12_17h02.51.715,MainFlow,2024.2.4,129.9106214919303,2025-03-12 17h03.01.445251 +0700,
2,22,1,word/worden0221.png,image/True/img22.png,175,175,0,z,0.8186438999982784,None,0,175,175,175,592.1358099999998,,,,,,,593.6217080999995,593.1221093999993,593.1262365999992,593.1262365999992,593.6217080999995,593.6217080999995,593.6150349999989,594.7296959999985,594.7296959999985,594.7296959999985,z,0.8186438999982784,None,,,,,,,,PT_en,001,2025-03-12_17h02.51.715,MainFlow,2024.2.4,129.9106214919303,2025-03-12 17h03.01.445251 +0700,
2,93,1,word/worden0931.png,image/True/img93.png,176,176,0,z,0.3905069000011281,None,0,176,176,176,595.5561559999987,,,,,,,597.0421037999986,596.5426965999995,596.5466058000002,596.5466058000002,597.0421037999986,597.0421037999986,597.0353305999997,598.1213032999985,598.1213032999985,598.1213032999985,z,0.3905069000011281,None,,,,,,,,PT_en,001,2025-03-12_17h02.51.715,MainFlow,2024.2.4,129.9106214919303,2025-03-12 17h03.01.445251 +0700,
2,95,1,word/worden0951.png,image/True/img95.png,177,177,0,z,0.4697897000005469,None,0,177,177,177,598.5242185999996,,,,,,,600.0106145999998,599.5110138999989,599.5150393999993,599.5150393999993,600.0106145999998,600.0106145999998,600.0038724999995,601.1153865999986,601.1153865999986,601.1153865999986,z,0.4697897000005469,None,,,,,,,,PT_en,001,2025-03-12_17h02.51.715,MainFlow,2024.2.4,129.9106214919303,2025-03-12 17h03.01.445251 +0700,
2,17,0,word/worden0171.png,image/False/imgf17.png,178,178,0,x,0.5542573000002449,None,0,178,178,178,601.598097,,,,,,,603.0845267999994,602.5850830999989,602.5890720999996,602.5890720999996,603.0845267999994,603.0845267999994,603.0778403999993,604.1796350999994,604.1796350999994,604.1796350999994,x,0.5542573000002449,None,,,,,,,,PT_en,001,2025-03-12_17h02.51.715,MainFlow,2024.2.4,129.9106214919303,2025-03-12 17h03.01.445251 +0700,
2,26,1,word/worden0261.png,image/True/img26.png,179,179,0,z,1.11114550000093,None,0,179,179,179,604.7436440000001,,,,,,,606.2296447999997,605.7303698999985,605.7342560999987,605.7342560999987,606.2296447999997,606.2296447999997,606.2229676999996,607.3311396999998,607.3311396999998,607.3311396999998,z,1.11114550000093,None,,,,,,,,PT_en,001,2025-03-12_17h02.51.715,MainFlow,2024.2.4,129.9106214919303,2025-03-12 17h03.01.445251 +0700,
2,27,1,word/worden0271.png,image/True/img27.png,180,180,0,z,0.37619359999916924,None,0,180,180,180,608.4558508999999,,,,,,,609.9418507999999,609.4422534999994,609.4462239999993,609.4462239999993,609.9418507999999,609.9418507999999,609.9352075999996,611.0212044999989,611.0212044999989,611.0212044999989,z,0.37619359999916924,None,,,,,,,,PT_en,001,2025-03-12_17h02.51.715,MainFlow,2024.2.4,129.9106214919303,2025-03-12 17h03.01.445251 +0700,
2,31,1,word/worden0311.png,image/True/img31.png,181,181,0,z,0.4323942999999417,None,0,181,181,181,611.4104121,,,,,,,612.8964135999995,612.3972732000002,612.4011966999988,612.4011966999988,612.8964135999995,612.8964135999995,612.8896704999988,613.977512899999,613.977512899999,613.977512899999,z,0.4323942999999417,None,,,,,,,,PT_en,001,2025-03-12_17h02.51.715,MainFlow,2024.2.4,129.9106214919303,2025-03-12 17h03.01.445251 +0700,
2,33,0,word/worden0331.png,image/False/imgf33.png,182,182,0,x,0.49607839999953285,None,0,182,182,182,614.4193982999986,,,,,,,615.9052861,615.4059409000001,615.4099733999992,615.4099733999992,615.9052861,615.9052861,615.8986131999991,616.9985950999999,616.9985950999999,616.9985950999999,x,0.49607839999953285,None,,,,,,,,PT_en,001,2025-03-12_17h02.51.715,MainFlow,2024.2.4,129.9106214919303,2025-03-12 17h03.01.445251 +0700,
2,59,1,word/worden0591.png,image/True/img59.png,183,183,0,z,0.5246846999998525,None,0,183,183,183,617.5020838,,,,,,,618.9880809999995,618.4884702999989,618.4924496999993,618.4924496999993,618.9880809999995,618.9880809999995,618.9813687999995,620.0582333000002,620.0582333000002,620.0582333000002,z,0.5246846999998525,None,,,,,,,,PT_en,001,2025-03-12_17h02.51.715,MainFlow,2024.2.4,129.9106214919303,2025-03-12 17h03.01.445251 +0700,
2,8,1,word/worden0081.png,image/True/img08.png,184,184,0,z,0.6408826999995654,None,0,184,184,184,620.5908693999991,,,,,,,622.0767909999995,621.5771095,621.5811766999996,621.5811766999996,622.0767909999995,622.0767909999995,622.0701176000002,623.150560099999,623.150560099999,623.150560099999,z,0.6408826999995654,None,,,,,,,,PT_en,001,2025-03-12_17h02.51.715,MainFlow,2024.2.4,129.9106214919303,2025-03-12 17h03.01.445251 +0700,
2,63,0,word/worden0631.png,image/False/imgf63.png,185,185,0,x,0.6981956999989052,None,0,185,185,185,623.8044181999994,,,,,,,625.2909253999987,624.7913023000001,624.7952865999996,624.7952865999996,625.2909253999987,625.2909253999987,625.2842059999984,626.3873156999998,626.3873156999998,626.3873156999998,x,0.6981956999989052,None,,,,,,,,PT_en,001,2025-03-12_17h02.51.715,MainFlow,2024.2.4,129.9106214919303,2025-03-12 17h03.01.445251 +0700,
2,30,0,word/worden0301.png,image/False/imgf30.png,186,186,0,x,0.7363786999994772,None,0,186,186,186,627.0957500999993,,,,,,,628.5821985000002,628.0831624000002,628.087163799999,628.087163799999,628.5821985000002,628.5821985000002,628.5754715999992,629.6625886999991,629.6625886999991,629.6625886999991,x,0.7363786999994772,None,,,,,,,,PT_en,001,2025-03-12_17h02.51.715,MainFlow,2024.2.4,129.9106214919303,2025-03-12 17h03.01.445251 +0700,
2,15,0,word/worden0151.png,image/False/imgf15.png,187,187,0,x,1.1540896999995311,None,0,187,187,187,630.4106788999998,,,,,,,631.896711899999,631.3973005999997,631.4014348000001,631.4014348000001,631.896711899999,631.896711899999,631.8900014999999,632.9837238,632.9837238,632.9837238,x,1.1540896999995311,None,,,,,,,,PT_en,001,2025-03-12_17h02.51.715,MainFlow,2024.2.4,129.9106214919303,2025-03-12 17h03.01.445251 +0700,
2,71,0,word/worden0711.png,image/False/imgf71.png,188,188,0,x,0.6187955000004877,None,0,188,188,188,634.1500054999997,,,,,,,635.6359554999999,635.1368538999996,635.1406295999986,635.1406295999986,635.6359554999999,635.6359554999999,635.6292216999991,636.7389372999987,636.7389372999987,636.7389372999987,x,0.6187955000004877,None,,,,,,,,PT_en,001,2025-03-12_17h02.51.715,MainFlow,2024.2.4,129.9106214919303,2025-03-12 17h03.01.445251 +0700,
2,10,0,word/worden0101.png,image/False/imgf10.png,189,189,0,x,2.142438000000766,None,0,189,189,189,637.3693518,,,,,,,638.8558312999994,638.3565818999996,638.3604997999992,638.3604997999992,638.8558312999994,638.8558312999994,638.8498443999997,639.9423468999994,639.9423468999994,639.9423468999994,x,2.142438000000766,None,,,,,,,,PT_en,001,2025-03-12_17h02.51.715,MainFlow,2024.2.4,129.9106214919303,2025-03-12 17h03.01.445251 +0700,
2,54,0,word/worden0541.png,image/False/imgf54.png,190,190,0,x,1.1614895000002434,None,0,190,190,190,642.0943981,,,,,,,643.5808074999986,643.0814412,643.0853643999999,643.0853643999999,643.5808074999986,643.5808074999986,643.5742064999995,644.6676537999992,644.6676537999992,644.6676537999992,x,1.1614895000002434,None,,,,,,,,PT_en,001,2025-03-12_17h02.51.715,MainFlow,2024.2.4,129.9106214919303,2025-03-12 17h03.01.445251 +0700,
2,60,0,word/worden0601.png,image/False/imgf60.png,191,191,0,x,0.5427383999995072,None,0,191,191,191,645.8403870000002,,,,,,,647.326296199999,646.8270398999994,646.8309592999994,646.8309592999994,647.326296199999,647.326296199999,647.3196188000002,648.4153176,648.4153176,648.4153176,x,0.5427383999995072,None,,,,,,,,PT_en,001,2025-03-12_17h02.51.715,MainFlow,2024.2.4,129.9106214919303,2025-03-12 17h03.01.445251 +0700,
2,16,0,word/worden0161.png,image/False/imgf16.png,192,192,0,x,1.5135250000002998,None,0,192,192,192,648.9704380999992,,,,,,,650.4569336999994,649.9574619999985,649.9614261999996,649.9614261999996,650.4569336999994,650.4569336999994,650.450260399999,651.5522012999991,651.5522012999991,651.5522012999991,x,1.5135250000002998,None,,,,,,,,PT_en,001,2025-03-12_17h02.51.715,MainFlow,2024.2.4,129.9106214919303,2025-03-12 17h03.01.445251 +0700,
2,50,1,word/worden0501.png,image/True/img50.png,193,193,0,z,0.8502735000001849,None,0,193,193,193,653.0742218999985,,,,,,,654.5601033999992,654.0608579,654.0648167999989,654.0648167999989,654.5601033999992,654.5601033999992,654.5535271999997,655.6494174,655.6494174,655.6494174,z,0.8502735000001849,None,,,,,,,,PT_en,001,2025-03-12_17h02.51.715,MainFlow,2024.2.4,129.9106214919303,2025-03-12 17h03.01.445251 +0700,
2,63,1,word/worden0631.png,image/True/img63.png,194,194,0,z,1.0672620000004827,None,0,194,194,194,656.5104741999985,,,,,,,657.9964330000003,657.4970739,657.5010044999999,657.5010044999999,657.9964330000003,657.9964330000003,657.9901080999989,659.0858848999997,659.0858848999997,659.0858848999997,z,1.0672620000004827,None,,,,,,,,PT_en,001,2025-03-12_17h02.51.715,MainFlow,2024.2.4,129.9106214919303,2025-03-12 17h03.01.445251 +0700,
2,24,0,word/worden0241.png,image/False/imgf24.png,195,195,0,x,1.159156300000177,None,0,195,195,195,660.1618137999994,,,,,,,661.6483300999989,661.1490746,661.1529835000001,661.1529835000001,661.6483300999989,661.6483300999989,661.6416411999999,662.7324886999995,662.7324886999995,662.7324886999995,x,1.159156300000177,None,,,,,,,,PT_en,001,2025-03-12_17h02.51.715,MainFlow,2024.2.4,129.9106214919303,2025-03-12 17h03.01.445251 +0700,
2,89,0,word/worden0891.png,image/False/imgf89.png,196,196,0,z,0.7785896000004868,None,0,196,196,196,663.9008192999991,,,,,,,665.3867286999994,664.8872703999987,664.8911720999986,664.8911720999986,665.3867286999994,665.3867286999994,665.3799937999993,666.4669273,666.4669273,666.4669273,z,0.7785896000004868,None,,,,,,,,PT_en,001,2025-03-12_17h02.51.715,MainFlow,2024.2.4,129.9106214919303,2025-03-12 17h03.01.445251 +0700,
2,6,0,word/worden0061.png,image/False/imgf06.png,197,197,0,z,1.0404769999986456,None,0,197,197,197,667.2570668999997,,,,,,,668.7430029999996,668.2434413999999,668.2475689000003,668.2475689000003,668.7430029999996,668.7430029999996,668.736259199999,669.8190654999999,669.8190654999999,669.8190654999999,z,1.0404769999986456,None,,,,,,,,PT_en,001,2025-03-12_17h02.51.715,MainFlow,2024.2.4,129.9106214919303,2025-03-12 17h03.01.445251 +0700,
2,41,0,word/worden0411.png,image/False/imgf41.png,198,198,0,x,0.4374545000009675,None,0,198,198,198,670.8673485999989,,,,,,,672.3537815999989,671.8545330999987,671.8584214000002,671.8584214000002,672.3537815999989,672.3537815999989,672.3470441999998,673.4210848000002,673.4210848000002,673.4210848000002,x,0.4374545000009675,None,,,,,,,,PT_en,001,2025-03-12_17h02.51.715,MainFlow,2024.2.4,129.9106214919303,2025-03-12 17h03.01.445251 +0700,
2,79,0,word/worden0791.png,image/False/imgf79.png,199,199,0,x,0.5285574999998062,None,0,199,199,199,673.8709198999986,,,,,,,675.3568134999987,674.8573434999998,674.8612515999994,674.8612515999994,675.3568134999987,675.3568134999987,675.3501560999994,676.4536821000002,676.4536821000002,676.4536821000002,x,0.5285574999998062,None,,,,,,,,PT_en,001,2025-03-12_17h02.51.715,MainFlow,2024.2.4,129.9106214919303,2025-03-12 17h03.01.445251 +0700,
2,70,1,word/worden0701.png,image/True/img70.png,200,200,0,z,0.5841801000005944,None,0,200,200,200,676.9957857999998,,,,,,,678.4816117999999,677.9823012999987,677.9871346999989,677.9871346999989,678.4816117999999,678.4816117999999,678.4749507999986,679.5718657999987,679.5718657999987,679.5718657999987,z,0.5841801000005944,None,,,,,,,,PT_en,001,2025-03-12_17h02.51.715,MainFlow,2024.2.4,129.9106214919303,2025-03-12 17h03.01.445251 +0700,
2,31,1,word/worden0311.png,image/True/img31.png,201,201,0,x,2.60771780000141,None,0,201,201,201,680.1688751999991,,,,,,,681.6548115999994,681.1553797999986,681.1592382999988,681.1592382999988,681.6548115999994,681.6548115999994,681.6481673999988,682.7369222999987,682.7369222999987,682.7369222999987,x,2.60771780000141,None,,,,,,,,PT_en,001,2025-03-12_17h02.51.715,MainFlow,2024.2.4,129.9106214919303,2025-03-12 17h03.01.445251 +0700,
2,9,1,word/worden0091.png,image/True/img09.png,202,202,0,z,0.5415333000000828,None,0,202,202,202,685.3517247,,,,,,,686.8377328999995,686.3380841999988,686.3420596999986,686.3420596999986,686.8377328999995,686.8377328999995,686.8309485999998,687.8959221999994,687.8959221999994,687.8959221999994,z,0.5415333000000828,None,,,,,,,,PT_en,001,2025-03-12_17h02.51.715,MainFlow,2024.2.4,129.9106214919303,2025-03-12 17h03.01.445251 +0700,
2,27,1,word/worden0271.png,image/True/img27.png,203,203,0,z,0.36575429999902553,None,0,203,203,203,688.4498562999997,,,,,,,689.936386899999,689.4367623999988,689.4407405000002,689.4407405000002,689.936386899999,689.936386899999,689.9296865999986,691.0158135999991,691.0158135999991,691.0158135999991,z,0.36575429999902553,None,,,,,,,,PT_en,001,2025-03-12_17h02.51.715,MainFlow,2024.2.4,129.9106214919303,2025-03-12 17h03.01.445251 +0700,
2,75,0,word/worden0751.png,image/False/imgf75.png,204,204,0,x,0.6350738000001002,None,0,204,204,204,691.3911849999986,,,,,,,692.8771605000002,692.3776753999991,692.3815524999991,692.3815524999991,692.8771605000002,692.8771605000002,692.8704787999995,693.9604546999999,693.9604546999999,693.9604546999999,x,0.6350738000001002,None,,,,,,,,PT_en,001,2025-03-12_17h02.51.715,MainFlow,2024.2.4,129.9106214919303,2025-03-12 17h03.01.445251 +0700,
2,87,0,word/worden0871.png,image/False/imgf87.png,205,205,0,x,1.0687090999999782,None,0,205,205,205,694.6086085999996,,,,,,,696.0950677000001,695.5955772999987,695.5995612999996,695.5995612999996,696.0950677000001,696.0950677000001,696.0884014999992,697.1754765999995,697.1754765999995,697.1754765999995,x,1.0687090999999782,None,,,,,,,,PT_en,001,2025-03-12_17h02.51.715,MainFlow,2024.2.4,129.9106214919303,2025-03-12 17h03.01.445251 +0700,
2,8,0,word/worden0081.png,image/False/imgf08.png,206,206,0,x,0.5232985999991797,None,0,206,206,206,698.2565773999995,,,,,,,699.7426449999984,699.2438033999988,699.2478597999998,699.2478597999998,699.7426449999984,699.7426449999984,699.737860199999,700.820816899999,700.820816899999,700.820816899999,x,0.5232985999991797,None,,,,,,,,PT_en,001,2025-03-12_17h02.51.715,MainFlow,2024.2.4,129.9106214919303,2025-03-12 17h03.01.445251 +0700,
2,24,1,word/worden0241.png,image/True/img24.png,207,207,0,z,1.075288799998816,None,0,207,207,207,701.3553424000002,,,,,,,702.8412628999995,702.3420004999989,702.3458584999989,702.3458584999989,702.8412628999995,702.8412628999995,702.8345596999989,703.9062207999996,703.9062207999996,703.9062207999996,z,1.075288799998816,None,,,,,,,,PT_en,001,2025-03-12_17h02.51.715,MainFlow,2024.2.4,129.9106214919303,2025-03-12 17h03.01.445251 +0700,
2,14,1,word/worden0141.png,image/True/img14.png,208,208,0,z,0.5886071999993874,None,0,208,208,208,704.9894587999988,,,,,,,706.4758708999998,705.9768383999999,705.980791,705.980791,706.4758708999998,706.4758708999998,706.4692075999992,707.566306499999,707.566306499999,707.566306499999,z,0.5886071999993874,None,,,,,,,,PT_en,001,2025-03-12_17h02.51.715,MainFlow,2024.2.4,129.9106214919303,2025-03-12 17h03.01.445251 +0700,
2,87,1,word/worden0871.png,image/True/img87.png,209,209,0,z,0.5745358999993186,None,0,209,209,209,708.1634242,,,,,,,709.6493613999992,709.1497702999986,709.1537306999999,709.1537306999999,709.6493613999992,709.6493613999992,709.6426919999994,710.7452808999988,710.7452808999988,710.7452808999988,z,0.5745358999993186,None,,,,,,,,PT_en,001,2025-03-12_17h02.51.715,MainFlow,2024.2.4,129.9106214919303,2025-03-12 17h03.01.445251 +0700,
2,42,0,word/worden0421.png,image/False/imgf42.png,210,210,0,x,0.3750113000005513,None,0,210,210,210,711.3294747,,,,,,,712.8159868999992,712.3166982000002,712.3208067999985,712.3208067999985,712.8159868999992,712.8159868999992,712.8093188999992,713.9135337999996,713.9135337999996,713.9135337999996,x,0.3750113000005513,None,,,,,,,,PT_en,001,2025-03-12_17h02.51.715,MainFlow,2024.2.4,129.9106214919303,2025-03-12 17h03.01.445251 +0700,
2,48,0,word/worden0481.png,image/False/imgf48.png,211,211,0,x,0.8025343999997858,None,0,211,211,211,714.3019466999995,,,,,,,715.7878686999993,715.2884410999995,715.2925778999997,715.2925778999997,715.7878686999993,715.7878686999993,715.7812341999997,716.8891048999994,716.8891048999994,716.8891048999994,x,0.8025343999997858,None,,,,,,,,PT_en,001,2025-03-12_17h02.51.715,MainFlow,2024.2.4,129.9106214919303,2025-03-12 17h03.01.445251 +0700,
2,56,0,word/worden0561.png,image/False/imgf56.png,212,212,0,x,0.5469725000002654,None,0,212,212,212,717.7014395999995,,,,,,,719.1873732999993,718.6881919999996,718.692142599999,718.692142599999,719.1873732999993,719.1873732999993,719.1806949999991,720.2934621999993,720.2934621999993,720.2934621999993,x,0.5469725000002654,None,,,,,,,,PT_en,001,2025-03-12_17h02.51.715,MainFlow,2024.2.4,129.9106214919303,2025-03-12 17h03.01.445251 +0700,
2,18,0,word/worden0181.png,image/False/imgf18.png,213,213,0,x,1.9942171000002418,None,0,213,213,213,720.8505026999992,,,,,,,722.3364239000002,721.8371066,721.8410023999986,721.8410023999986,722.3364239000002,722.3364239000002,722.3297883999985,723.4196455000001,723.4196455000001,723.4196455000001,x,1.9942171000002418,None,,,,,,,,PT_en,001,2025-03-12_17h02.51.715,MainFlow,2024.2.4,129.9106214919303,2025-03-12 17h03.01.445251 +0700,
2,18,0,word/worden0181.png,image/False/imgf18.png,214,214,0,x,0.6343850000012026,None,0,214,214,214,725.4222802999993,,,,,,,726.9082306,726.408821699999,726.4128027999996,726.4128027999996,726.9082306,726.9082306,726.9015203999988,727.9929391999995,727.9929391999995,727.9929391999995,x,0.6343850000012026,None,,,,,,,,PT_en,001,2025-03-12_17h02.51.715,MainFlow,2024.2.4,129.9106214919303,2025-03-12 17h03.01.445251 +0700,
2,9,0,word/worden0091.png,image/False/imgf09.png,215,215,0,x,0.5331200000000536,None,0,215,215,215,728.6403273999986,,,,,,,730.1262866999987,729.627019399999,729.6309716999986,729.6309716999986,730.1262866999987,730.1262866999987,730.119517699999,731.1933897999988,731.1933897999988,731.1933897999988,x,0.5331200000000536,None,,,,,,,,PT_en,001,2025-03-12_17h02.51.715,MainFlow,2024.2.4,129.9106214919303,2025-03-12 17h03.01.445251 +0700,
2,55,0,word/worden0551.png,image/False/imgf55.png,216,216,0,z,0.9295031000001472,None,0,216,216,216,731.7354606999997,,,,,,,733.2213698999985,732.7219906999999,732.7259347999989,732.7259347999989,733.2213698999985,733.2213698999985,733.2152021000002,734.3055415999988,734.3055415999988,734.3055415999988,z,0.9295031000001472,None,,,,,,,,PT_en,001,2025-03-12_17h02.51.715,MainFlow,2024.2.4,129.9106214919303,2025-03-12 17h03.01.445251 +0700,
2,17,0,word/worden0171.png,image/False/imgf17.png,217,217,0,x,0.47745880000002217,None,0,217,217,217,735.2450436999989,,,,,,,736.7311560999988,736.2318844000001,736.2362506999998,736.2362506999998,736.7311560999988,736.7311560999988,736.7242977999995,737.8270422999994,737.8270422999994,737.8270422999994,x,0.47745880000002217,None,,,,,,,,PT_en,001,2025-03-12_17h02.51.715,MainFlow,2024.2.4,129.9106214919303,2025-03-12 17h03.01.445251 +0700,
2,50,1,word/worden0501.png,image/True/img50.png,218,218,0,z,0.4880228000001807,None,0,218,218,218,738.3139965999999,,,,,,,739.7999153000001,739.3006102999989,739.3044702999996,739.3044702999996,739.7999153000001,739.7999153000001,739.7932423999991,740.8889022999992,740.8889022999992,740.8889022999992,z,0.4880228000001807,None,,,,,,,,PT_en,001,2025-03-12_17h02.51.715,MainFlow,2024.2.4,129.9106214919303,2025-03-12 17h03.01.445251 +0700,
2,20,0,word/worden0201.png,image/False/imgf20.png,219,219,0,x,0.47699090000060096,None,0,219,219,219,741.3886562999996,,,,,,,742.8746436000001,742.3754706,742.3793385999998,742.3793385999998,742.8746436000001,742.8746436000001,742.8679780999992,743.9837591999985,743.9837591999985,743.9837591999985,x,0.47699090000060096,None,,,,,,,,PT_en,001,2025-03-12_17h02.51.715,MainFlow,2024.2.4,129.9106214919303,2025-03-12 17h03.01.445251 +0700,
2,36,0,word/worden0361.png,image/False/imgf36.png,220,220,0,x,0.6153709999998682,None,0,220,220,220,744.4693466999997,,,,,,,745.9553625999997,745.4559328999985,745.4599043999988,745.4599043999988,745.9553625999997,745.9553625999997,745.9486559999987,747.0395752999993,747.0395752999993,747.0395752999993,x,0.6153709999998682,None,,,,,,,,PT_en,001,2025-03-12_17h02.51.715,MainFlow,2024.2.4,129.9106214919303,2025-03-12 17h03.01.445251 +0700,
2,7,0,word/worden0071.png,image/False/imgf07.png,221,221,0,x,0.4412157999995543,None,0,221,221,221,747.6659168999995,,,,,,,749.152419,748.6530075999999,748.6570009999996,748.6570009999996,749.152419,749.152419,749.1457279999995,750.2378479999988,750.2378479999988,750.2378479999988,x,0.4412157999995543,None,,,,,,,,PT_en,001,2025-03-12_17h02.51.715,MainFlow,2024.2.4,129.9106214919303,2025-03-12 17h03.01.445251 +0700,
2,7,1,word/worden0071.png,image/True/img07.png,222,222,0,z,0.3165017999999691,None,0,222,222,222,750.6896335000001,,,,,,,752.1761154999986,751.6772559000001,751.6812341999994,751.6812341999994,752.1761154999986,752.1761154999986,752.1695062999988,753.265754,753.265754,753.265754,z,0.3165017999999691,None,,,,,,,,PT_en,001,2025-03-12_17h02.51.715,MainFlow,2024.2.4,129.9106214919303,2025-03-12 17h03.01.445251 +0700,
2,70,0,word/worden0701.png,image/False/imgf70.png,223,223,0,x,0.707449200001065,None,0,223,223,223,753.5920343999987,,,,,,,755.0779392999993,754.5784435999994,754.5824522999992,754.5824522999992,755.0779392999993,755.0779392999993,755.0712265999991,756.1590529999994,756.1590529999994,756.1590529999994,x,0.707449200001065,None,,,,,,,,PT_en,001,2025-03-12_17h02.51.715,MainFlow,2024.2.4,129.9106214919303,2025-03-12 17h03.01.445251 +0700,
2,68,0,word/worden0681.png,image/False/imgf68.png,224,224,0,x,0.6459125000001222,None,0,224,224,224,756.8790381999988,,,,,,,758.3650371999993,757.8656986999995,757.8695829999997,757.8695829999997,758.3650371999993,758.3650371999993,758.358360799999,759.4342250999998,759.4342250999998,759.4342250999998,x,0.6459125000001222,None,,,,,,,,PT_en,001,2025-03-12_17h02.51.715,MainFlow,2024.2.4,129.9106214919303,2025-03-12 17h03.01.445251 +0700,
2,23,0,word/worden0231.png,image/False/imgf23.png,225,225,0,x,0.6136915999995836,None,0,225,225,225,760.0923821999986,,,,,,,761.5783256999985,761.0790006999996,761.0831853999989,761.0831853999989,761.5783256999985,761.5783256999985,761.5716627999991,762.6903728999987,762.6903728999987,762.6903728999987,x,0.6136915999995836,None,,,,,,,,PT_en,001,2025-03-12_17h02.51.715,MainFlow,2024.2.4,129.9106214919303,2025-03-12 17h03.01.445251 +0700,
