lang,wordid,truestate,worddir,imgdir,thisN,thisTrialN,thisRepN,key_resp.keys,key_resp.rt,key_resp.duration,trials.thisRepN,trials.thisTrialN,trials.thisN,trials.thisIndex,thisRow.t,notes,tutorial.started,tutorial.stopped,key_instruct.keys,key_instruct.rt,key_instruct.duration,plusblank.started,wordshow.started,image.started,plsuer.started,image.stopped,plsuer.stopped,wordshow.stopped,plusblank.stopped,imageword.started,key_resp.started,trials.key_resp.keys,trials.key_resp.rt,trials.key_resp.duration,ending.started,text_3.started,ending_key.started,ending.stopped,ending_key.keys,ending_key.rt,ending_key.duration,participant,session,date,expName,psychopyVersion,frameRate,expStart,
,,,,,,,,,,,,,,,,,0.002787100034765899,6.616100899991579,space,6.592562099918723,None,,,,,,,,,,,,,,,,,,,,,SC_en,001,2025-03-07_12h51.43.433,MainFlow,2024.2.4,129.97833256802647,2025-03-07 12h51.52.921981 +0700,
2,87,0,word/worden0871.png,image/False/imgf87.png,0,0,0,z,2.485401500016451,None,0,0,0,0,6.657270699972287,,,,,,,8.112127000000328,7.613489900017157,7.61817389994394,7.61817389994394,8.112127000000328,8.112127000000328,8.105448600021191,9.204520200029947,9.204520200029947,9.204520200029947,z,2.485401500016451,None,,,,,,,,SC_en,001,2025-03-07_12h51.43.433,MainFlow,2024.2.4,129.97833256802647,2025-03-07 12h51.52.921981 +0700,
2,93,0,word/worden0931.png,image/False/imgf93.png,1,1,0,x,0.963667800067924,None,0,1,1,1,11.703032099991105,,,,,,,13.18907089997083,12.690583699964918,12.694432199932635,12.694432199932635,13.18907089997083,13.18907089997083,13.182468399987556,14.269172300002538,14.269172300002538,14.269172300002538,x,0.963667800067924,None,,,,,,,,SC_en,001,2025-03-07_12h51.43.433,MainFlow,2024.2.4,129.97833256802647,2025-03-07 12h51.52.921981 +0700,
2,23,0,word/worden0231.png,image/False/imgf23.png,2,2,0,x,1.1572977000614628,None,0,2,2,2,15.240027599968016,,,,,,,16.725921800010838,16.226687700022012,16.230594699969515,16.230594699969515,16.725921800010838,16.725921800010838,16.71982889994979,17.842347500030883,17.842347500030883,17.842347500030883,x,1.1572977000614628,None,,,,,,,,SC_en,001,2025-03-07_12h51.43.433,MainFlow,2024.2.4,129.97833256802647,2025-03-07 12h51.52.921981 +0700,
2,10,1,word/worden0101.png,image/True/img10.png,3,3,0,z,0.8049405999481678,None,0,3,3,3,19.01227409997955,,,,,,,20.49881609994918,19.999010899919085,20.00372769997921,20.00372769997921,20.49881609994918,20.49881609994918,20.491505799931474,21.586901400005445,21.586901400005445,21.586901400005445,z,0.8049405999481678,None,,,,,,,,SC_en,001,2025-03-07_12h51.43.433,MainFlow,2024.2.4,129.97833256802647,2025-03-07 12h51.52.921981 +0700,
2,50,0,word/worden0501.png,image/False/imgf50.png,4,4,0,x,0.7287342000054196,None,0,4,4,4,22.39959219994489,,,,,,,23.885324699920602,23.386557099991478,23.39099540002644,23.39099540002644,23.885324699920602,23.885324699920602,23.878688200027682,24.975641099968925,24.975641099968925,24.975641099968925,x,0.7287342000054196,None,,,,,,,,SC_en,001,2025-03-07_12h51.43.433,MainFlow,2024.2.4,129.97833256802647,2025-03-07 12h51.52.921981 +0700,
2,33,1,word/worden0331.png,image/True/img33.png,5,5,0,z,1.1864661000436172,None,0,5,5,5,25.711779000004753,,,,,,,27.19777269999031,26.69930470001418,26.704368299921043,26.704368299921043,27.19777269999031,27.19777269999031,27.19109540001955,28.29515389993321,28.29515389993321,28.29515389993321,z,1.1864661000436172,None,,,,,,,,SC_en,001,2025-03-07_12h51.43.433,MainFlow,2024.2.4,129.97833256802647,2025-03-07 12h51.52.921981 +0700,
2,95,0,word/worden0951.png,image/False/imgf95.png,6,6,0,x,1.1032789000310004,None,0,6,6,6,29.489181499928236,,,,,,,30.975189700024202,30.475899799959734,30.480305399978533,30.480305399978533,30.975189700024202,30.975189700024202,30.96849270001985,32.07500029995572,32.07500029995572,32.07500029995572,x,1.1032789000310004,None,,,,,,,,SC_en,001,2025-03-07_12h51.43.433,MainFlow,2024.2.4,129.97833256802647,2025-03-07 12h51.52.921981 +0700,
2,7,0,word/worden0071.png,image/False/imgf07.png,7,7,0,x,0.6851569999707863,None,0,7,7,7,33.18539639993105,,,,,,,34.67188509996049,34.17215009999927,34.17644329997711,34.17644329997711,34.67188509996049,34.67188509996049,34.66519450000487,35.76061480003409,35.76061480003409,35.76061480003409,x,0.6851569999707863,None,,,,,,,,SC_en,001,2025-03-07_12h51.43.433,MainFlow,2024.2.4,129.97833256802647,2025-03-07 12h51.52.921981 +0700,
2,28,1,word/worden0281.png,image/True/img28.png,8,8,0,z,0.7667995999800041,None,0,8,8,8,36.454622499994,,,,,,,37.94114509993233,37.442440500017256,37.44664370000828,37.44664370000828,37.94114509993233,37.94114509993233,37.934399500023574,39.04577029997017,39.04577029997017,39.04577029997017,z,0.7667995999800041,None,,,,,,,,SC_en,001,2025-03-07_12h51.43.433,MainFlow,2024.2.4,129.97833256802647,2025-03-07 12h51.52.921981 +0700,
2,38,1,word/worden0381.png,image/True/img38.png,9,9,0,z,1.127009900053963,None,0,9,9,9,39.82019829994533,,,,,,,41.306590399937704,40.80760509998072,40.81154379993677,40.81154379993677,41.306590399937704,41.306590399937704,41.2999087999342,42.39866219996475,42.39866219996475,42.39866219996475,z,1.127009900053963,None,,,,,,,,SC_en,001,2025-03-07_12h51.43.433,MainFlow,2024.2.4,129.97833256802647,2025-03-07 12h51.52.921981 +0700,
2,33,0,word/worden0331.png,image/False/imgf33.png,10,10,0,x,1.411799699999392,None,0,10,10,10,43.536158700007945,,,,,,,45.02216219995171,44.52335089992266,44.52736940002069,44.52736940002069,45.02216219995171,45.02216219995171,45.01599460002035,46.12605830002576,46.12605830002576,46.12605830002576,x,1.411799699999392,None,,,,,,,,SC_en,001,2025-03-07_12h51.43.433,MainFlow,2024.2.4,129.97833256802647,2025-03-07 12h51.52.921981 +0700,
2,76,1,word/worden0761.png,image/True/img76.png,11,11,0,z,0.7659663000376895,None,0,11,11,11,47.54771579999942,,,,,,,49.0336920999689,48.53430319996551,48.53872169996612,48.53872169996612,49.0336920999689,49.0336920999689,49.02689909993205,50.12860219995491,50.12860219995491,50.12860219995491,z,0.7659663000376895,None,,,,,,,,SC_en,001,2025-03-07_12h51.43.433,MainFlow,2024.2.4,129.97833256802647,2025-03-07 12h51.52.921981 +0700,
2,75,0,word/worden0751.png,image/False/imgf75.png,12,12,0,z,2.8895719000138342,None,0,12,12,12,50.908169099944644,,,,,,,52.3941292000236,51.89515290001873,51.899382499977946,51.899382499977946,52.3941292000236,52.3941292000236,52.38738099997863,53.48563210002612,53.48563210002612,53.48563210002612,z,2.8895719000138342,None,,,,,,,,SC_en,001,2025-03-07_12h51.43.433,MainFlow,2024.2.4,129.97833256802647,2025-03-07 12h51.52.921981 +0700,
2,7,1,word/worden0071.png,image/True/img07.png,13,13,0,z,0.5617868000408635,None,0,13,13,13,56.38777599995956,,,,,,,57.873605699976906,57.37516639998648,57.379039700026624,57.379039700026624,57.873605699976906,57.873605699976906,57.8668901999481,58.971501899999566,58.971501899999566,58.971501899999566,z,0.5617868000408635,None,,,,,,,,SC_en,001,2025-03-07_12h51.43.433,MainFlow,2024.2.4,129.97833256802647,2025-03-07 12h51.52.921981 +0700,
2,51,1,word/worden0511.png,image/True/img51.png,14,14,0,z,0.4482181000057608,None,0,14,14,14,59.54055649996735,,,,,,,61.02647539996542,60.52762780000921,60.531743100029416,60.531743100029416,61.02647539996542,61.02647539996542,61.01982639997732,62.126603099983186,62.126603099983186,62.126603099983186,z,0.4482181000057608,None,,,,,,,,SC_en,001,2025-03-07_12h51.43.433,MainFlow,2024.2.4,129.97833256802647,2025-03-07 12h51.52.921981 +0700,
2,59,0,word/worden0591.png,image/False/imgf59.png,15,15,0,x,0.5465799000812694,None,0,15,15,15,62.584639800013974,,,,,,,64.07051140000112,63.571303299977444,63.575266400002874,63.575266400002874,64.07051140000112,64.07051140000112,64.06381319998764,65.14624829997774,65.14624829997774,65.14624829997774,x,0.5465799000812694,None,,,,,,,,SC_en,001,2025-03-07_12h51.43.433,MainFlow,2024.2.4,129.97833256802647,2025-03-07 12h51.52.921981 +0700,
2,54,0,word/worden0541.png,image/False/imgf54.png,16,16,0,x,0.7351593000348657,None,0,16,16,16,65.70159549999516,,,,,,,67.18751680001151,66.68893509998452,66.69296639994718,66.69296639994718,67.18751680001151,67.18751680001151,67.18093010003213,68.2802864999976,68.2802864999976,68.2802864999976,x,0.7351593000348657,None,,,,,,,,SC_en,001,2025-03-07_12h51.43.433,MainFlow,2024.2.4,129.97833256802647,2025-03-07 12h51.52.921981 +0700,
2,6,1,word/worden0061.png,image/True/img06.png,17,17,0,z,0.44453750003594905,None,0,17,17,17,69.02703759993892,,,,,,,70.5136138999369,70.01483669993468,70.0190997000318,70.0190997000318,70.5136138999369,70.5136138999369,70.50685449992307,71.59784499998204,71.59784499998204,71.59784499998204,z,0.44453750003594905,None,,,,,,,,SC_en,001,2025-03-07_12h51.43.433,MainFlow,2024.2.4,129.97833256802647,2025-03-07 12h51.52.921981 +0700,
2,41,1,word/worden0411.png,image/True/img41.png,18,18,0,z,0.38399349991232157,None,0,18,18,18,72.05065230000764,,,,,,,73.5365728000179,73.03766279993579,73.04165349993855,73.04165349993855,73.5365728000179,73.5365728000179,73.52985049993731,74.64158059994224,74.64158059994224,74.64158059994224,z,0.38399349991232157,None,,,,,,,,SC_en,001,2025-03-07_12h51.43.433,MainFlow,2024.2.4,129.97833256802647,2025-03-07 12h51.52.921981 +0700,
2,42,0,word/worden0421.png,image/False/imgf42.png,19,19,0,x,0.4512422999832779,None,0,19,19,19,75.03437899996061,,,,,,,76.52024320000783,76.02130179991946,76.02584609994665,76.02584609994665,76.52024320000783,76.52024320000783,76.5136556000216,77.62698870000895,77.62698870000895,77.62698870000895,x,0.4512422999832779,None,,,,,,,,SC_en,001,2025-03-07_12h51.43.433,MainFlow,2024.2.4,129.97833256802647,2025-03-07 12h51.52.921981 +0700,
2,64,0,word/worden0641.png,image/False/imgf64.png,20,20,0,x,0.6049756999127567,None,0,20,20,20,78.08629609993659,,,,,,,79.57213460002095,79.07350059994496,79.07763239997439,79.07763239997439,79.57213460002095,79.57213460002095,79.56543319998309,80.64506080001593,80.64506080001593,80.64506080001593,x,0.6049756999127567,None,,,,,,,,SC_en,001,2025-03-07_12h51.43.433,MainFlow,2024.2.4,129.97833256802647,2025-03-07 12h51.52.921981 +0700,
2,96,1,word/worden0961.png,image/True/img96.png,21,21,0,z,0.3773429000284523,None,0,21,21,21,81.25843960000202,,,,,,,82.74523200001568,82.24691380001605,82.25148779992014,82.25148779992014,82.74523200001568,82.74523200001568,82.73842730000615,83.86128479999024,83.86128479999024,83.86128479999024,z,0.3773429000284523,None,,,,,,,,SC_en,001,2025-03-07_12h51.43.433,MainFlow,2024.2.4,129.97833256802647,2025-03-07 12h51.52.921981 +0700,
2,76,0,word/worden0761.png,image/False/imgf76.png,22,22,0,x,0.8487382000312209,None,0,22,22,22,84.24678409995977,,,,,,,85.73272430000361,85.23415359994397,85.23841210000683,85.23841210000683,85.73272430000361,85.73272430000361,85.72600110003259,86.85622549999971,86.85622549999971,86.85622549999971,x,0.8487382000312209,None,,,,,,,,SC_en,001,2025-03-07_12h51.43.433,MainFlow,2024.2.4,129.97833256802647,2025-03-07 12h51.52.921981 +0700,
2,17,1,word/worden0171.png,image/True/img17.png,23,23,0,z,0.5081551999319345,None,0,23,23,23,87.71670109999832,,,,,,,89.20264859998133,88.70353830000386,88.70784319995437,88.70784319995437,89.20264859998133,89.20264859998133,89.19601970002986,90.30533779994585,90.30533779994585,90.30533779994585,z,0.5081551999319345,None,,,,,,,,SC_en,001,2025-03-07_12h51.43.433,MainFlow,2024.2.4,129.97833256802647,2025-03-07 12h51.52.921981 +0700,
2,6,1,word/worden0061.png,image/True/img06.png,24,24,0,z,0.5211577999871224,None,0,24,24,24,90.82542979996651,,,,,,,92.3113346999744,91.812568299938,91.81630089995451,91.81630089995451,92.3113346999744,92.3113346999744,92.30466140003409,93.404252099921,93.404252099921,93.404252099921,z,0.5211577999871224,None,,,,,,,,SC_en,001,2025-03-07_12h51.43.433,MainFlow,2024.2.4,129.97833256802647,2025-03-07 12h51.52.921981 +0700,
2,88,1,word/worden0881.png,image/True/img88.png,25,25,0,z,0.7646328000118956,None,0,25,25,25,93.93553379992954,,,,,,,95.42153169994708,94.92214009992313,94.92619060003199,94.92619060003199,95.42153169994708,95.42153169994708,95.41490159998648,96.53368979995139,96.53368979995139,96.53368979995139,z,0.7646328000118956,None,,,,,,,,SC_en,001,2025-03-07_12h51.43.433,MainFlow,2024.2.4,129.97833256802647,2025-03-07 12h51.52.921981 +0700,
2,44,1,word/worden0441.png,image/True/img44.png,26,26,0,z,0.46928509999997914,None,0,26,26,26,97.31021349993534,,,,,,,98.79673619999085,98.29768139997032,98.30182009993587,98.30182009993587,98.79673619999085,98.79673619999085,98.79006299993489,99.90082079998683,99.90082079998683,99.90082079998683,z,0.46928509999997914,None,,,,,,,,SC_en,001,2025-03-07_12h51.43.433,MainFlow,2024.2.4,129.97833256802647,2025-03-07 12h51.52.921981 +0700,
2,27,0,word/worden0271.png,image/False/imgf27.png,27,27,0,x,0.7601261999225244,None,0,27,27,27,100.37768099992536,,,,,,,101.86366639996413,101.36433829995804,101.36846269993111,101.36846269993111,101.86366639996413,101.86366639996413,101.85695059993304,102.97265339992009,102.97265339992009,102.97265339992009,x,0.7601261999225244,None,,,,,,,,SC_en,001,2025-03-07_12h51.43.433,MainFlow,2024.2.4,129.97833256802647,2025-03-07 12h51.52.921981 +0700,
2,14,0,word/worden0141.png,image/False/imgf14.png,28,28,0,x,0.7112814999418333,None,0,28,28,28,103.74250689998735,,,,,,,105.22898629994597,104.73039249994326,104.73452519997954,104.73452519997954,105.22898629994597,105.22898629994597,105.2222714999225,106.32928609999362,106.32928609999362,106.32928609999362,x,0.7112814999418333,None,,,,,,,,SC_en,001,2025-03-07_12h51.43.433,MainFlow,2024.2.4,129.97833256802647,2025-03-07 12h51.52.921981 +0700,
2,40,0,word/worden0401.png,image/False/imgf40.png,29,29,0,x,0.8617846000706777,None,0,29,29,29,107.05087009991985,,,,,,,108.5374099999899,108.03848949994426,108.04234899999574,108.04234899999574,108.5374099999899,108.5374099999899,108.53069219994359,109.64164679998066,109.64164679998066,109.64164679998066,x,0.8617846000706777,None,,,,,,,,SC_en,001,2025-03-07_12h51.43.433,MainFlow,2024.2.4,129.97833256802647,2025-03-07 12h51.52.921981 +0700,
2,1,0,word/worden0011.png,image/False/imgf01.png,30,30,0,x,1.650111100054346,None,0,30,30,30,110.51409810001496,,,,,,,111.99999089993071,111.50095339992549,111.50526809995063,111.50526809995063,111.99999089993071,111.99999089993071,111.99336720001884,113.09437199996319,113.09437199996319,113.09437199996319,x,1.650111100054346,None,,,,,,,,SC_en,001,2025-03-07_12h51.43.433,MainFlow,2024.2.4,129.97833256802647,2025-03-07 12h51.52.921981 +0700,
2,3,0,word/worden0031.png,image/False/imgf03.png,31,31,0,x,0.7180655999109149,None,0,31,31,31,114.75651919993106,,,,,,,116.24236359994393,115.74302439996973,115.746940299985,115.746940299985,116.24236359994393,116.24236359994393,116.23567239998374,117.33829769992735,117.33829769992735,117.33829769992735,x,0.7180655999109149,None,,,,,,,,SC_en,001,2025-03-07_12h51.43.433,MainFlow,2024.2.4,129.97833256802647,2025-03-07 12h51.52.921981 +0700,
2,57,1,word/worden0571.png,image/True/img57.png,32,32,0,z,0.4494422000134364,None,0,32,32,32,118.06861229997594,,,,,,,119.55456520000007,119.05590419995133,119.06001250003465,119.06001250003465,119.55456520000007,119.55456520000007,119.54788510000799,120.65447429998312,120.65447429998312,120.65447429998312,z,0.4494422000134364,None,,,,,,,,SC_en,001,2025-03-07_12h51.43.433,MainFlow,2024.2.4,129.97833256802647,2025-03-07 12h51.52.921981 +0700,
2,88,0,word/worden0881.png,image/False/imgf88.png,33,33,0,x,0.8472446999512613,None,0,33,33,33,121.11254939995706,,,,,,,122.5985543000279,122.09922139998525,122.10336329997517,122.10336329997517,122.5985543000279,122.5985543000279,122.59206950000953,123.69434099993668,123.69434099993668,123.69434099993668,x,0.8472446999512613,None,,,,,,,,SC_en,001,2025-03-07_12h51.43.433,MainFlow,2024.2.4,129.97833256802647,2025-03-07 12h51.52.921981 +0700,
2,52,0,word/worden0521.png,image/False/imgf52.png,34,34,0,x,1.279047099989839,None,0,34,34,34,124.5494029999245,,,,,,,126.03581099992152,125.53704750002362,125.54126770002767,125.54126770002767,126.03581099992152,126.03581099992152,126.02911759994458,127.12945240002591,127.12945240002591,127.12945240002591,x,1.279047099989839,None,,,,,,,,SC_en,001,2025-03-07_12h51.43.433,MainFlow,2024.2.4,129.97833256802647,2025-03-07 12h51.52.921981 +0700,
2,50,0,word/worden0501.png,image/False/imgf50.png,35,35,0,x,0.7602406000951305,None,0,35,35,35,128.41667439998128,,,,,,,129.90262299997266,129.40329239994753,129.40783659997396,129.40783659997396,129.90262299997266,129.90262299997266,129.8965528999688,130.9955138999503,130.9955138999503,130.9955138999503,x,0.7602406000951305,None,,,,,,,,SC_en,001,2025-03-07_12h51.43.433,MainFlow,2024.2.4,129.97833256802647,2025-03-07 12h51.52.921981 +0700,
2,78,1,word/worden0781.png,image/True/img78.png,36,36,0,z,0.7401536999968812,None,0,36,36,36,131.76305329997558,,,,,,,133.24900399998296,132.75074269995093,132.75558659993112,132.75558659993112,133.24900399998296,133.24900399998296,133.24287990003359,134.33775700000115,134.33775700000115,134.33775700000115,z,0.7401536999968812,None,,,,,,,,SC_en,001,2025-03-07_12h51.43.433,MainFlow,2024.2.4,129.97833256802647,2025-03-07 12h51.52.921981 +0700,
2,61,0,word/worden0611.png,image/False/imgf61.png,37,37,0,x,21.559371499926783,None,0,37,37,37,135.0873137000017,,,,,,,136.5733580000233,136.07425399997737,136.07859419996385,136.07859419996385,136.5733580000233,136.5733580000233,136.5666245999746,137.66899399994873,137.66899399994873,137.66899399994873,x,21.559371499926783,None,,,,,,,,SC_en,001,2025-03-07_12h51.43.433,MainFlow,2024.2.4,129.97833256802647,2025-03-07 12h51.52.921981 +0700,
2,36,0,word/worden0361.png,image/False/imgf36.png,38,38,0,x,1.2747226000064984,None,0,38,38,38,159.239308899967,,,,,,,160.72527179995086,160.22730359993875,160.23130739992484,160.23130739992484,160.72527179995086,160.72527179995086,160.7186355999438,161.80993129999842,161.80993129999842,161.80993129999842,x,1.2747226000064984,None,,,,,,,,SC_en,001,2025-03-07_12h51.43.433,MainFlow,2024.2.4,129.97833256802647,2025-03-07 12h51.52.921981 +0700,
2,10,1,word/worden0101.png,image/True/img10.png,39,39,0,z,1.6727446001023054,None,0,39,39,39,163.0959778999677,,,,,,,164.58184300002176,164.0828267999459,164.08665670000482,164.08665670000482,164.58184300002176,164.58184300002176,164.57534869993106,165.66860330000054,165.66860330000054,165.66860330000054,z,1.6727446001023054,None,,,,,,,,SC_en,001,2025-03-07_12h51.43.433,MainFlow,2024.2.4,129.97833256802647,2025-03-07 12h51.52.921981 +0700,
2,75,1,word/worden0751.png,image/True/img75.png,40,40,0,x,1.095633800025098,None,0,40,40,40,167.348877399927,,,,,,,168.83485250000376,168.33557290001772,168.33953480003402,168.33953480003402,168.83485250000376,168.83485250000376,168.82819789997302,169.92305310000665,169.92305310000665,169.92305310000665,x,1.095633800025098,None,,,,,,,,SC_en,001,2025-03-07_12h51.43.433,MainFlow,2024.2.4,129.97833256802647,2025-03-07 12h51.52.921981 +0700,
2,1,1,word/worden0011.png,image/True/img01.png,41,41,0,z,0.5427876999601722,None,0,41,41,41,171.02705539995804,,,,,,,172.51303119992372,172.01333460002206,172.0173462999519,172.0173462999519,172.51303119992372,172.51303119992372,172.50636170001235,173.61333810002543,173.61333810002543,173.61333810002543,z,0.5427876999601722,None,,,,,,,,SC_en,001,2025-03-07_12h51.43.433,MainFlow,2024.2.4,129.97833256802647,2025-03-07 12h51.52.921981 +0700,
2,37,1,word/worden0371.png,image/True/img37.png,42,42,0,x,5.062467899988405,None,0,42,42,42,174.16830669995397,,,,,,,175.65479860000778,175.15584209992085,175.15985179995187,175.15985179995187,175.65479860000778,175.65479860000778,175.64812249992974,176.76728869997896,176.76728869997896,176.76728869997896,x,5.062467899988405,None,,,,,,,,SC_en,001,2025-03-07_12h51.43.433,MainFlow,2024.2.4,129.97833256802647,2025-03-07 12h51.52.921981 +0700,
2,66,0,word/worden0661.png,image/False/imgf66.png,43,43,0,x,0.699473200016655,None,0,43,43,43,181.84299049992114,,,,,,,183.32889040000737,182.8299898999976,182.8340981999645,182.8340981999645,183.32889040000737,183.32889040000737,183.32218629994895,184.42235350003466,184.42235350003466,184.42235350003466,x,0.699473200016655,None,,,,,,,,SC_en,001,2025-03-07_12h51.43.433,MainFlow,2024.2.4,129.97833256802647,2025-03-07 12h51.52.921981 +0700,
2,55,1,word/worden0551.png,image/True/img55.png,44,44,0,z,0.43193620000965893,None,0,44,44,44,185.1340473999735,,,,,,,186.6200622000033,186.12063070002478,186.12542139994912,186.12542139994912,186.6200622000033,186.6200622000033,186.61328609997872,187.72214410000015,187.72214410000015,187.72214410000015,z,0.43193620000965893,None,,,,,,,,SC_en,001,2025-03-07_12h51.43.433,MainFlow,2024.2.4,129.97833256802647,2025-03-07 12h51.52.921981 +0700,
2,70,0,word/worden0701.png,image/False/imgf70.png,45,45,0,x,0.7954366999911144,None,0,45,45,45,188.1660066000186,,,,,,,189.65194699994754,189.15234279993456,189.15637989994138,189.15637989994138,189.65194699994754,189.65194699994754,189.6452751000179,190.7362738000229,190.7362738000229,190.7362738000229,x,0.7954366999911144,None,,,,,,,,SC_en,001,2025-03-07_12h51.43.433,MainFlow,2024.2.4,129.97833256802647,2025-03-07 12h51.52.921981 +0700,
2,68,0,word/worden0681.png,image/False/imgf68.png,46,46,0,z,0.47264520009048283,None,0,46,46,46,191.543540499988,,,,,,,193.02947740000673,192.5302652999526,192.53448129992466,192.53448129992466,193.02947740000673,193.02947740000673,193.02284959994722,194.10206219996326,194.10206219996326,194.10206219996326,z,0.47264520009048283,None,,,,,,,,SC_en,001,2025-03-07_12h51.43.433,MainFlow,2024.2.4,129.97833256802647,2025-03-07 12h51.52.921981 +0700,
2,75,1,word/worden0751.png,image/True/img75.png,47,47,0,x,1.033768399967812,None,0,47,47,47,194.5840831999667,,,,,,,196.0700583999278,195.5705173999304,195.57447350001894,195.57447350001894,196.0700583999278,196.0700583999278,196.06333549995907,197.16252939996775,197.16252939996775,197.16252939996775,x,1.033768399967812,None,,,,,,,,SC_en,001,2025-03-07_12h51.43.433,MainFlow,2024.2.4,129.97833256802647,2025-03-07 12h51.52.921981 +0700,
2,38,1,word/worden0381.png,image/True/img38.png,48,48,0,z,1.2225839000893757,None,0,48,48,48,198.2093205000274,,,,,,,199.6958384999307,199.19661869993433,199.20050009991974,199.20050009991974,199.6958384999307,199.6958384999307,199.68919019994792,200.77595189993735,200.77595189993735,200.77595189993735,z,1.2225839000893757,None,,,,,,,,SC_en,001,2025-03-07_12h51.43.433,MainFlow,2024.2.4,129.97833256802647,2025-03-07 12h51.52.921981 +0700,
2,42,1,word/worden0421.png,image/True/img42.png,49,49,0,z,1.0037605999968946,None,0,49,49,49,202.0103404999245,,,,,,,203.49626609997358,202.99690859997645,203.00078100000974,203.00078100000974,203.49626609997358,203.49626609997358,203.48957029997837,204.58612490002997,204.58612490002997,204.58612490002997,z,1.0037605999968946,None,,,,,,,,SC_en,001,2025-03-07_12h51.43.433,MainFlow,2024.2.4,129.97833256802647,2025-03-07 12h51.52.921981 +0700,
2,11,0,word/worden0111.png,image/False/imgf11.png,50,50,0,x,4.958036500029266,None,0,50,50,50,205.60016129992437,,,,,,,207.08612180000637,206.5875490999315,206.5920722000301,206.5920722000301,207.08612180000637,207.08612180000637,207.07944310002495,208.19110679998994,208.19110679998994,208.19110679998994,x,4.958036500029266,None,,,,,,,,SC_en,001,2025-03-07_12h51.43.433,MainFlow,2024.2.4,129.97833256802647,2025-03-07 12h51.52.921981 +0700,
2,41,0,word/worden0411.png,image/False/imgf41.png,51,51,0,x,2.8679100000299513,None,0,51,51,51,213.1599021999864,,,,,,,214.6458993999986,214.146310799988,214.15022720000707,214.15022720000707,214.6458993999986,214.6458993999986,214.63916689995676,215.71237129997462,215.71237129997462,215.71237129997462,x,2.8679100000299513,None,,,,,,,,SC_en,001,2025-03-07_12h51.43.433,MainFlow,2024.2.4,129.97833256802647,2025-03-07 12h51.52.921981 +0700,
2,82,1,word/worden0821.png,image/True/img82.png,52,52,0,z,4.715743299922906,None,0,52,52,52,218.58745380002074,,,,,,,220.07395599992014,219.5746273000259,219.57861570001114,219.57861570001114,220.07395599992014,220.07395599992014,220.06722830003127,221.17292419995647,221.17292419995647,221.17292419995647,z,4.715743299922906,None,,,,,,,,SC_en,001,2025-03-07_12h51.43.433,MainFlow,2024.2.4,129.97833256802647,2025-03-07 12h51.52.921981 +0700,
2,88,0,word/worden0881.png,image/False/imgf88.png,53,53,0,x,1.0535798999480903,None,0,53,53,53,225.90136030002031,,,,,,,227.38988010003231,226.8898350999225,226.89378459996078,226.89378459996078,227.38988010003231,227.38988010003231,227.3815087999683,228.4980333999265,228.4980333999265,228.4980333999265,x,1.0535798999480903,None,,,,,,,,SC_en,001,2025-03-07_12h51.43.433,MainFlow,2024.2.4,129.97833256802647,2025-03-07 12h51.52.921981 +0700,
2,8,1,word/worden0081.png,image/True/img08.png,54,54,0,z,0.5221452999394387,None,0,54,54,54,229.560050399974,,,,,,,231.04602310003247,230.54713620000985,230.55136529996525,230.55136529996525,231.04602310003247,231.04602310003247,231.03932969993912,232.12715039995965,232.12715039995965,232.12715039995965,z,0.5221452999394387,None,,,,,,,,SC_en,001,2025-03-07_12h51.43.433,MainFlow,2024.2.4,129.97833256802647,2025-03-07 12h51.52.921981 +0700,
2,16,0,word/worden0161.png,image/False/imgf16.png,55,55,0,x,1.2777252999367192,None,0,55,55,55,232.65929179999512,,,,,,,234.14582159998827,233.64608430000953,233.65176479995716,233.65176479995716,234.14582159998827,234.14582159998827,234.13919609994628,235.24730579997413,235.24730579997413,235.24730579997413,x,1.2777252999367192,None,,,,,,,,SC_en,001,2025-03-07_12h51.43.433,MainFlow,2024.2.4,129.97833256802647,2025-03-07 12h51.52.921981 +0700,
2,10,0,word/worden0101.png,image/False/imgf10.png,56,56,0,x,1.1233291999669746,None,0,56,56,56,236.53853289992549,,,,,,,238.02454659994692,237.52562279999256,237.52982319996227,237.52982319996227,238.02454659994692,238.02454659994692,238.01785509998444,239.11954480002169,239.11954480002169,239.11954480002169,x,1.1233291999669746,None,,,,,,,,SC_en,001,2025-03-07_12h51.43.433,MainFlow,2024.2.4,129.97833256802647,2025-03-07 12h51.52.921981 +0700,
2,76,0,word/worden0761.png,image/False/imgf76.png,57,57,0,x,1.5992031999630854,None,0,57,57,57,240.25353560002986,,,,,,,241.73951300000772,241.24079289997462,241.2449004999362,241.2449004999362,241.73951300000772,241.73951300000772,241.73280999995768,242.84960790001787,242.84960790001787,242.84960790001787,x,1.5992031999630854,None,,,,,,,,SC_en,001,2025-03-07_12h51.43.433,MainFlow,2024.2.4,129.97833256802647,2025-03-07 12h51.52.921981 +0700,
2,42,1,word/worden0421.png,image/True/img42.png,58,58,0,z,1.128686900017783,None,0,58,58,58,244.45963229995687,,,,,,,245.94555770000443,245.4472495999653,245.45133579999674,245.45133579999674,245.94555770000443,245.94555770000443,245.93884039996192,247.04273210000247,247.04273210000247,247.04273210000247,z,1.128686900017783,None,,,,,,,,SC_en,001,2025-03-07_12h51.43.433,MainFlow,2024.2.4,129.97833256802647,2025-03-07 12h51.52.921981 +0700,
2,26,0,word/worden0261.png,image/False/imgf26.png,59,59,0,x,0.9789618999930099,None,0,59,59,59,248.18113639997318,,,,,,,249.66760739998426,249.16846950002946,249.1723661000142,249.1723661000142,249.66760739998426,249.66760739998426,249.6608859000262,250.77407669997774,250.77407669997774,250.77407669997774,x,0.9789618999930099,None,,,,,,,,SC_en,001,2025-03-07_12h51.43.433,MainFlow,2024.2.4,129.97833256802647,2025-03-07 12h51.52.921981 +0700,
2,26,1,word/worden0261.png,image/True/img26.png,60,60,0,z,0.7218525999924168,None,0,60,60,60,251.76100810000207,,,,,,,253.247367199976,252.7488228000002,252.75312559993472,252.75312559993472,253.247367199976,253.247367199976,253.24072380003054,254.348698399961,254.348698399961,254.348698399961,z,0.7218525999924168,None,,,,,,,,SC_en,001,2025-03-07_12h51.43.433,MainFlow,2024.2.4,129.97833256802647,2025-03-07 12h51.52.921981 +0700,
2,48,1,word/worden0481.png,image/True/img48.png,61,61,0,z,0.5791413999395445,None,0,61,61,61,255.07724020001478,,,,,,,256.56381940003484,256.064692899934,256.06864149996545,256.06864149996545,256.56381940003484,256.56381940003484,256.55705830000807,257.6588121999521,257.6588121999521,257.6588121999521,z,0.5791413999395445,None,,,,,,,,SC_en,001,2025-03-07_12h51.43.433,MainFlow,2024.2.4,129.97833256802647,2025-03-07 12h51.52.921981 +0700,
2,71,0,word/worden0711.png,image/False/imgf71.png,62,62,0,x,2.1813066999893636,None,0,62,62,62,258.25038149999455,,,,,,,259.7369104999816,259.23728370002937,259.2412464999361,259.2412464999361,259.7369104999816,259.7369104999816,259.73015560000204,260.847960999934,260.847960999934,260.847960999934,x,2.1813066999893636,None,,,,,,,,SC_en,001,2025-03-07_12h51.43.433,MainFlow,2024.2.4,129.97833256802647,2025-03-07 12h51.52.921981 +0700,
2,93,1,word/worden0931.png,image/True/img93.png,63,63,0,z,1.0389004999306053,None,0,63,63,63,263.0414616999915,,,,,,,264.52809619996697,264.028655000031,264.03262139996514,264.03262139996514,264.52809619996697,264.52809619996697,264.5214154999703,265.6076155999908,265.6076155999908,265.6076155999908,z,1.0389004999306053,None,,,,,,,,SC_en,001,2025-03-07_12h51.43.433,MainFlow,2024.2.4,129.97833256802647,2025-03-07 12h51.52.921981 +0700,
2,51,1,word/worden0511.png,image/True/img51.png,64,64,0,z,0.8090831000590697,None,0,64,64,64,266.6564299999736,,,,,,,268.14285479998216,267.6436874999199,267.6476284000091,267.6476284000091,268.14285479998216,268.14285479998216,268.1361633000197,269.23405670002103,269.23405670002103,269.23405670002103,z,0.8090831000590697,None,,,,,,,,SC_en,001,2025-03-07_12h51.43.433,MainFlow,2024.2.4,129.97833256802647,2025-03-07 12h51.52.921981 +0700,
2,78,0,word/worden0781.png,image/False/imgf78.png,65,65,0,x,0.5260709000285715,None,0,65,65,65,270.0527374999365,,,,,,,271.5387397999875,271.03958079998847,271.0433800999308,271.0433800999308,271.5387397999875,271.5387397999875,271.5320261999732,272.6145012000343,272.6145012000343,272.6145012000343,x,0.5260709000285715,None,,,,,,,,SC_en,001,2025-03-07_12h51.43.433,MainFlow,2024.2.4,129.97833256802647,2025-03-07 12h51.52.921981 +0700,
2,64,0,word/worden0641.png,image/False/imgf64.png,66,66,0,x,0.5658372000325471,None,0,66,66,66,273.1494462999981,,,,,,,274.6354838999687,274.1362891999306,274.1401859000325,274.1401859000325,274.6354838999687,274.6354838999687,274.6287424999755,275.69727609993424,275.69727609993424,275.69727609993424,x,0.5658372000325471,None,,,,,,,,SC_en,001,2025-03-07_12h51.43.433,MainFlow,2024.2.4,129.97833256802647,2025-03-07 12h51.52.921981 +0700,
2,68,1,word/worden0681.png,image/True/img68.png,67,67,0,z,0.5061859000707045,None,0,67,67,67,276.27585129998624,,,,,,,277.7624118999811,277.2626705999719,277.26681289996486,277.26681289996486,277.7624118999811,277.7624118999811,277.7558115000138,278.82538369996473,278.82538369996473,278.82538369996473,z,0.5061859000707045,None,,,,,,,,SC_en,001,2025-03-07_12h51.43.433,MainFlow,2024.2.4,129.97833256802647,2025-03-07 12h51.52.921981 +0700,
2,57,0,word/worden0571.png,image/False/imgf57.png,68,68,0,x,0.6172346000093967,None,0,68,68,68,279.34064019995276,,,,,,,280.826589699951,280.3272217999911,280.3310524999397,280.3310524999397,280.826589699951,280.826589699951,280.8204417999368,281.92079729994293,281.92079729994293,281.92079729994293,x,0.6172346000093967,None,,,,,,,,SC_en,001,2025-03-07_12h51.43.433,MainFlow,2024.2.4,129.97833256802647,2025-03-07 12h51.52.921981 +0700,
2,31,0,word/worden0311.png,image/False/imgf31.png,69,69,0,x,0.6139543999452144,None,0,69,69,69,282.54854989994783,,,,,,,284.03442129993346,283.53539899992757,283.53918500000145,283.53918500000145,284.03442129993346,284.03442129993346,284.0277248999337,285.0960270999931,285.0960270999931,285.0960270999931,x,0.6139543999452144,None,,,,,,,,SC_en,001,2025-03-07_12h51.43.433,MainFlow,2024.2.4,129.97833256802647,2025-03-07 12h51.52.921981 +0700,
2,31,0,word/worden0311.png,image/False/imgf31.png,70,70,0,x,0.40597139997407794,None,0,70,70,70,285.7168441999238,,,,,,,287.2027473000344,286.70353699999396,286.7075584999984,286.7075584999984,287.2027473000344,287.2027473000344,287.19607349997386,288.2621502999682,288.2621502999682,288.2621502999682,x,0.40597139997407794,None,,,,,,,,SC_en,001,2025-03-07_12h51.43.433,MainFlow,2024.2.4,129.97833256802647,2025-03-07 12h51.52.921981 +0700,
2,55,1,word/worden0551.png,image/True/img55.png,71,71,0,z,0.5013583999825642,None,0,71,71,71,288.6765530999983,,,,,,,290.16241889994126,289.6631240999559,289.6670090999687,289.6670090999687,290.16241889994126,290.16241889994126,290.15640750003513,291.2593037999468,291.2593037999468,291.2593037999468,z,0.5013583999825642,None,,,,,,,,SC_en,001,2025-03-07_12h51.43.433,MainFlow,2024.2.4,129.97833256802647,2025-03-07 12h51.52.921981 +0700,
2,36,1,word/worden0361.png,image/True/img36.png,72,72,0,z,0.530060900026001,None,0,72,72,72,291.77337730000727,,,,,,,293.2593176999362,292.76006300002337,292.76359129999764,292.76359129999764,293.2593176999362,293.2593176999362,293.2526293999981,294.3372463999549,294.3372463999549,294.3372463999549,z,0.530060900026001,None,,,,,,,,SC_en,001,2025-03-07_12h51.43.433,MainFlow,2024.2.4,129.97833256802647,2025-03-07 12h51.52.921981 +0700,
2,8,0,word/worden0081.png,image/False/imgf08.png,73,73,0,x,0.9403898000018671,None,0,73,73,73,294.879150499939,,,,,,,296.365058699972,295.8655633999733,295.86982299992815,295.86982299992815,296.365058699972,296.365058699972,296.35830710001756,297.43992259993684,297.43992259993684,297.43992259993684,x,0.9403898000018671,None,,,,,,,,SC_en,001,2025-03-07_12h51.43.433,MainFlow,2024.2.4,129.97833256802647,2025-03-07 12h51.52.921981 +0700,
2,82,0,word/worden0821.png,image/False/imgf82.png,74,74,0,x,2.2757583999773487,None,0,74,74,74,298.39196349994745,,,,,,,299.877886399976,299.37862720002886,299.38257230003364,299.38257230003364,299.877886399976,299.877886399976,299.8713982999325,300.9655389999971,300.9655389999971,300.9655389999971,x,2.2757583999773487,None,,,,,,,,SC_en,001,2025-03-07_12h51.43.433,MainFlow,2024.2.4,129.97833256802647,2025-03-07 12h51.52.921981 +0700,
2,14,0,word/worden0141.png,image/False/imgf14.png,75,75,0,x,0.595165399950929,None,0,75,75,75,303.2501373999985,,,,,,,304.7361299999757,304.23701979999896,304.24094339995645,304.24094339995645,304.7361299999757,304.7361299999757,304.7295199999353,305.8231555999955,305.8231555999955,305.8231555999955,x,0.595165399950929,None,,,,,,,,SC_en,001,2025-03-07_12h51.43.433,MainFlow,2024.2.4,129.97833256802647,2025-03-07 12h51.52.921981 +0700,
2,71,1,word/worden0711.png,image/True/img71.png,76,76,0,z,0.6754431999288499,None,0,76,76,76,306.4271697999211,,,,,,,307.9132540000137,307.41321319993585,307.4170491999248,307.4170491999248,307.9132540000137,307.9132540000137,307.90645759995095,309.00508409994654,309.00508409994654,309.00508409994654,z,0.6754431999288499,None,,,,,,,,SC_en,001,2025-03-07_12h51.43.433,MainFlow,2024.2.4,129.97833256802647,2025-03-07 12h51.52.921981 +0700,
2,22,0,word/worden0221.png,image/False/imgf22.png,77,77,0,x,0.5075915000634268,None,0,77,77,77,309.6915290999459,,,,,,,311.1775074999314,310.6784002999775,310.68242309999187,310.68242309999187,311.1775074999314,311.1775074999314,311.170821000007,312.2757409999613,312.2757409999613,312.2757409999613,x,0.5075915000634268,None,,,,,,,,SC_en,001,2025-03-07_12h51.43.433,MainFlow,2024.2.4,129.97833256802647,2025-03-07 12h51.52.921981 +0700,
2,78,1,word/worden0781.png,image/True/img78.png,78,78,0,z,0.4255272999871522,None,0,78,78,78,312.7956415999215,,,,,,,314.2816276999656,313.7823364000069,313.7865313999355,313.7865313999355,314.2816276999656,314.2816276999656,314.27544639992993,315.3653269999195,315.3653269999195,315.3653269999195,z,0.4255272999871522,None,,,,,,,,SC_en,001,2025-03-07_12h51.43.433,MainFlow,2024.2.4,129.97833256802647,2025-03-07 12h51.52.921981 +0700,
2,51,0,word/worden0511.png,image/False/imgf51.png,79,79,0,x,0.5763932000845671,None,0,79,79,79,315.7983090999769,,,,,,,317.28425629995763,316.78527150000446,316.78948739997577,316.78948739997577,317.28425629995763,317.28425629995763,317.27756039996166,318.36208809993695,318.36208809993695,318.36208809993695,x,0.5763932000845671,None,,,,,,,,SC_en,001,2025-03-07_12h51.43.433,MainFlow,2024.2.4,129.97833256802647,2025-03-07 12h51.52.921981 +0700,
2,56,1,word/worden0561.png,image/True/img56.png,80,80,0,z,0.44956590002402663,None,0,80,80,80,318.94550489995163,,,,,,,320.43136940000113,319.9324580000248,319.93659279996064,319.93659279996064,320.43136940000113,320.43136940000113,320.42468069994356,321.5118896999629,321.5118896999629,321.5118896999629,z,0.44956590002402663,None,,,,,,,,SC_en,001,2025-03-07_12h51.43.433,MainFlow,2024.2.4,129.97833256802647,2025-03-07 12h51.52.921981 +0700,
2,60,1,word/worden0601.png,image/True/img60.png,81,81,0,z,0.3680530999554321,None,0,81,81,81,321.97519339993596,,,,,,,323.4612804999342,322.9619581999723,322.96589430002496,322.96589430002496,323.4612804999342,323.4612804999342,323.4545501000248,324.54108869994525,324.54108869994525,324.54108869994525,z,0.3680530999554321,None,,,,,,,,SC_en,001,2025-03-07_12h51.43.433,MainFlow,2024.2.4,129.97833256802647,2025-03-07 12h51.52.921981 +0700,
2,96,0,word/worden0961.png,image/False/imgf96.png,82,82,0,x,0.49158320005517453,None,0,82,82,82,324.91652359999716,,,,,,,326.40259069995955,325.9038208000129,325.9081525999354,325.9081525999354,326.40259069995955,326.40259069995955,326.3957970000338,327.494578099926,327.494578099926,327.494578099926,x,0.49158320005517453,None,,,,,,,,SC_en,001,2025-03-07_12h51.43.433,MainFlow,2024.2.4,129.97833256802647,2025-03-07 12h51.52.921981 +0700,
2,3,0,word/worden0031.png,image/False/imgf03.png,83,83,0,x,1.0115002000238746,None,0,83,83,83,327.99346179992426,,,,,,,329.47946319996845,328.9803888000315,328.9842347999802,328.9842347999802,329.47946319996845,329.47946319996845,329.47282369993627,330.56153509998694,330.56153509998694,330.56153509998694,x,1.0115002000238746,None,,,,,,,,SC_en,001,2025-03-07_12h51.43.433,MainFlow,2024.2.4,129.97833256802647,2025-03-07 12h51.52.921981 +0700,
2,55,0,word/worden0551.png,image/False/imgf55.png,84,84,0,x,2.162813700037077,None,0,84,84,84,331.5857446999289,,,,,,,333.0721890999703,332.5732305999845,332.57744729996193,332.57744729996193,333.0721890999703,333.0721890999703,333.0655205999501,334.15715179999825,334.15715179999825,334.15715179999825,x,2.162813700037077,None,,,,,,,,SC_en,001,2025-03-07_12h51.43.433,MainFlow,2024.2.4,129.97833256802647,2025-03-07 12h51.52.921981 +0700,
2,71,1,word/worden0711.png,image/True/img71.png,85,85,0,z,0.6957506000762805,None,0,85,85,85,336.3316382999765,,,,,,,337.81717970001046,337.3182309999829,337.3220505999634,337.3220505999634,337.81717970001046,337.81717970001046,337.81085330003407,338.9114449999761,338.9114449999761,338.9114449999761,z,0.6957506000762805,None,,,,,,,,SC_en,001,2025-03-07_12h51.43.433,MainFlow,2024.2.4,129.97833256802647,2025-03-07 12h51.52.921981 +0700,
2,3,1,word/worden0031.png,image/True/img03.png,86,86,0,z,0.5069070999743417,None,0,86,86,86,339.61577809997834,,,,,,,341.1017603999935,340.602790899924,340.60711410001386,340.60711410001386,341.1017603999935,341.1017603999935,341.0949851999758,342.1921525999205,342.1921525999205,342.1921525999205,z,0.5069070999743417,None,,,,,,,,SC_en,001,2025-03-07_12h51.43.433,MainFlow,2024.2.4,129.97833256802647,2025-03-07 12h51.52.921981 +0700,
2,52,1,word/worden0521.png,image/True/img52.png,87,87,0,z,0.41073419991880655,None,0,87,87,87,342.7059448999353,,,,,,,344.1918705999851,343.69306429999415,343.6971513000317,343.6971513000317,344.1918705999851,344.1918705999851,344.1852877000347,345.2858098000288,345.2858098000288,345.2858098000288,z,0.41073419991880655,None,,,,,,,,SC_en,001,2025-03-07_12h51.43.433,MainFlow,2024.2.4,129.97833256802647,2025-03-07 12h51.52.921981 +0700,
2,95,0,word/worden0951.png,image/False/imgf95.png,88,88,0,x,0.5651716999709606,None,0,88,88,88,345.7054001999786,,,,,,,347.1914230999537,346.6920162999304,346.6958852999378,346.6958852999378,347.1914230999537,347.1914230999537,347.18474779999815,348.2894856999628,348.2894856999628,348.2894856999628,x,0.5651716999709606,None,,,,,,,,SC_en,001,2025-03-07_12h51.43.433,MainFlow,2024.2.4,129.97833256802647,2025-03-07 12h51.52.921981 +0700,
2,6,0,word/worden0061.png,image/False/imgf06.png,89,89,0,x,0.7685815000440925,None,0,89,89,89,348.8654239999596,,,,,,,350.3515051000286,349.85183399997186,349.8560342999408,349.8560342999408,350.3515051000286,350.3515051000286,350.34470689995214,351.42763329995796,351.42763329995796,351.42763329995796,x,0.7685815000440925,None,,,,,,,,SC_en,001,2025-03-07_12h51.43.433,MainFlow,2024.2.4,129.97833256802647,2025-03-07 12h51.52.921981 +0700,
2,79,1,word/worden0791.png,image/True/img79.png,90,90,0,z,1.566376900067553,None,0,90,90,90,352.20517630001996,,,,,,,353.69165529997554,353.19253799994476,353.1966881999979,353.1966881999979,353.69165529997554,353.69165529997554,353.6849635000108,354.78156709996983,354.78156709996983,354.78156709996983,z,1.566376900067553,None,,,,,,,,SC_en,001,2025-03-07_12h51.43.433,MainFlow,2024.2.4,129.97833256802647,2025-03-07 12h51.52.921981 +0700,
2,61,0,word/worden0611.png,image/False/imgf61.png,91,91,0,x,1.0494294000091031,None,0,91,91,91,356.3579353999812,,,,,,,357.84391339996364,357.34460519999266,357.34850009996444,357.34850009996444,357.84391339996364,357.84391339996364,357.8371946000261,358.9408933999948,358.9408933999948,358.9408933999948,x,1.0494294000091031,None,,,,,,,,SC_en,001,2025-03-07_12h51.43.433,MainFlow,2024.2.4,129.97833256802647,2025-03-07 12h51.52.921981 +0700,
2,46,0,word/worden0461.png,image/False/imgf46.png,92,92,0,x,0.9755158999469131,None,0,92,92,92,360.0037339000264,,,,,,,361.489644199959,360.99033069994766,360.99422220001,360.99422220001,361.489644199959,361.489644199959,361.48297020001337,362.5916638999479,362.5916638999479,362.5916638999479,x,0.9755158999469131,None,,,,,,,,SC_en,001,2025-03-07_12h51.43.433,MainFlow,2024.2.4,129.97833256802647,2025-03-07 12h51.52.921981 +0700,
2,89,1,word/worden0891.png,image/True/img89.png,93,93,0,z,2.8674219000386074,None,0,93,93,93,363.5770194999641,,,,,,,365.0634681999218,364.5639948999742,364.5680678000208,364.5680678000208,365.0634681999218,365.0634681999218,365.0567634999752,366.1353789999848,366.1353789999848,366.1353789999848,z,2.8674219000386074,None,,,,,,,,SC_en,001,2025-03-07_12h51.43.433,MainFlow,2024.2.4,129.97833256802647,2025-03-07 12h51.52.921981 +0700,
2,26,0,word/worden0261.png,image/False/imgf26.png,94,94,0,x,1.65272430004552,None,0,94,94,94,369.01321819995064,,,,,,,370.49917870003264,370.00008889997844,370.0038003999507,370.0038003999507,370.49917870003264,370.49917870003264,370.49239509995095,371.60298349999357,371.60298349999357,371.60298349999357,x,1.65272430004552,None,,,,,,,,SC_en,001,2025-03-07_12h51.43.433,MainFlow,2024.2.4,129.97833256802647,2025-03-07 12h51.52.921981 +0700,
2,44,0,word/worden0441.png,image/False/imgf44.png,95,95,0,x,1.4740839999867603,None,0,95,95,95,373.26747419999447,,,,,,,374.7533915999811,374.2540406000335,374.25793989992235,374.25793989992235,374.7533915999811,374.7533915999811,374.7467500999337,375.856811100035,375.856811100035,375.856811100035,x,1.4740839999867603,None,,,,,,,,SC_en,001,2025-03-07_12h51.43.433,MainFlow,2024.2.4,129.97833256802647,2025-03-07 12h51.52.921981 +0700,
2,82,1,word/worden0821.png,image/True/img82.png,96,96,0,z,0.9219995000166818,None,0,96,96,96,377.3412998999702,,,,,,,378.82726589997765,378.3274662999902,378.33145389996935,378.33145389996935,378.82726589997765,378.82726589997765,378.82047349994536,379.89101419993676,379.89101419993676,379.89101419993676,z,0.9219995000166818,None,,,,,,,,SC_en,001,2025-03-07_12h51.43.433,MainFlow,2024.2.4,129.97833256802647,2025-03-07 12h51.52.921981 +0700,
2,16,1,word/worden0161.png,image/True/img16.png,97,97,0,z,1.8291902999626473,None,0,97,97,97,380.82268620003015,,,,,,,382.30869610002264,381.80965209996793,381.81345040001906,381.81345040001906,382.30869610002264,382.30869610002264,382.30203160003293,383.4166593999835,383.4166593999835,383.4166593999835,z,1.8291902999626473,None,,,,,,,,SC_en,001,2025-03-07_12h51.43.433,MainFlow,2024.2.4,129.97833256802647,2025-03-07 12h51.52.921981 +0700,
2,20,1,word/worden0201.png,image/True/img20.png,98,98,0,z,0.5978398000588641,None,0,98,98,98,385.25648560002446,,,,,,,386.74291619996075,386.243890899932,386.24773709999863,386.24773709999863,386.74291619996075,386.74291619996075,386.7362995999865,387.8391375999199,387.8391375999199,387.8391375999199,z,0.5978398000588641,None,,,,,,,,SC_en,001,2025-03-07_12h51.43.433,MainFlow,2024.2.4,129.97833256802647,2025-03-07 12h51.52.921981 +0700,
2,20,1,word/worden0201.png,image/True/img20.png,99,99,0,z,0.4314705999568105,None,0,99,99,99,388.4511601999402,,,,,,,389.9364433999872,389.43779330002144,389.44179389998317,389.44179389998317,389.9364433999872,389.9364433999872,389.93033799994737,391.0331212999299,391.0331212999299,391.0331212999299,z,0.4314705999568105,None,,,,,,,,SC_en,001,2025-03-07_12h51.43.433,MainFlow,2024.2.4,129.97833256802647,2025-03-07 12h51.52.921981 +0700,
2,96,1,word/worden0961.png,image/True/img96.png,100,100,0,z,0.4899022999452427,None,0,100,100,100,391.47813649999443,,,,,,,392.9641849999316,392.46498179994524,392.46975239994936,392.46975239994936,392.9641849999316,392.9641849999316,392.95752840000205,394.0618169999216,394.0618169999216,394.0618169999216,z,0.4899022999452427,None,,,,,,,,SC_en,001,2025-03-07_12h51.43.433,MainFlow,2024.2.4,129.97833256802647,2025-03-07 12h51.52.921981 +0700,
2,64,1,word/worden0641.png,image/True/img64.png,101,101,0,z,0.3616132000461221,None,0,101,101,101,394.56110379996244,,,,,,,396.0471055000089,395.54767539992463,395.551519199973,395.551519199973,396.0471055000089,396.0471055000089,396.0403876999626,397.117158500012,397.117158500012,397.117158500012,z,0.3616132000461221,None,,,,,,,,SC_en,001,2025-03-07_12h51.43.433,MainFlow,2024.2.4,129.97833256802647,2025-03-07 12h51.52.921981 +0700,
2,78,0,word/worden0781.png,image/False/imgf78.png,102,102,0,z,0.26171370001975447,None,0,102,102,102,397.4898927999893,,,,,,,398.9757685000077,398.4771136000054,398.4812411000021,398.4812411000021,398.9757685000077,398.9757685000077,398.96966940001585,400.0505568999797,400.0505568999797,400.0505568999797,z,0.26171370001975447,None,,,,,,,,SC_en,001,2025-03-07_12h51.43.433,MainFlow,2024.2.4,129.97833256802647,2025-03-07 12h51.52.921981 +0700,
2,20,0,word/worden0201.png,image/False/imgf20.png,103,103,0,x,0.614362399908714,None,0,103,103,103,400.3221948000137,,,,,,,401.80813669995405,401.30902749998495,401.3128952999832,401.3128952999832,401.80813669995405,401.80813669995405,401.8014470000053,402.92523940000683,402.92523940000683,402.92523940000683,x,0.614362399908714,None,,,,,,,,SC_en,001,2025-03-07_12h51.43.433,MainFlow,2024.2.4,129.97833256802647,2025-03-07 12h51.52.921981 +0700,
2,89,1,word/worden0891.png,image/True/img89.png,104,104,0,z,0.36740410001948476,None,0,104,104,104,403.55307809996884,,,,,,,405.0390264999587,404.53982639999595,404.544114899938,404.544114899938,405.0390264999587,405.0390264999587,405.03233209997416,406.1139991999371,406.1139991999371,406.1139991999371,z,0.36740410001948476,None,,,,,,,,SC_en,001,2025-03-07_12h51.43.433,MainFlow,2024.2.4,129.97833256802647,2025-03-07 12h51.52.921981 +0700,
2,59,0,word/worden0591.png,image/False/imgf59.png,105,105,0,x,1.3258413000730798,None,0,105,105,105,406.48921949998476,,,,,,,407.9756297999993,407.4764477999415,407.48022119991947,407.48022119991947,407.9756297999993,407.9756297999993,407.968955899938,409.04736329999287,409.04736329999287,409.04736329999287,x,1.3258413000730798,None,,,,,,,,SC_en,001,2025-03-07_12h51.43.433,MainFlow,2024.2.4,129.97833256802647,2025-03-07 12h51.52.921981 +0700,
2,24,0,word/worden0241.png,image/False/imgf24.png,106,106,0,x,6.184215800021775,None,0,106,106,106,410.3836004999466,,,,,,,411.87013920000754,411.37069699994754,411.37471469992306,411.37471469992306,411.87013920000754,411.87013920000754,411.86341669992544,412.95730559993535,412.95730559993535,412.95730559993535,x,6.184215800021775,None,,,,,,,,SC_en,001,2025-03-07_12h51.43.433,MainFlow,2024.2.4,129.97833256802647,2025-03-07 12h51.52.921981 +0700,
2,28,0,word/worden0281.png,image/False/imgf28.png,107,107,0,x,0.9911673000315204,None,0,107,107,107,419.15120520000346,,,,,,,420.6372094999533,420.1382824999746,420.1422135999892,420.1422135999892,420.6372094999533,420.6372094999533,420.6304575999966,421.7272683000192,421.7272683000192,421.7272683000192,x,0.9911673000315204,None,,,,,,,,SC_en,001,2025-03-07_12h51.43.433,MainFlow,2024.2.4,129.97833256802647,2025-03-07 12h51.52.921981 +0700,
2,15,0,word/worden0151.png,image/False/imgf15.png,108,108,0,x,0.7799024000996724,None,0,108,108,108,422.7271015000297,,,,,,,424.2131135999225,423.713592599961,423.71777759992983,423.71777759992983,424.2131135999225,424.2131135999225,424.20642960001715,425.3056111999322,425.3056111999322,425.3056111999322,x,0.7799024000996724,None,,,,,,,,SC_en,001,2025-03-07_12h51.43.433,MainFlow,2024.2.4,129.97833256802647,2025-03-07 12h51.52.921981 +0700,
2,30,1,word/worden0301.png,image/True/img30.png,109,109,0,z,1.6103415000252426,None,0,109,109,109,426.09566210000776,,,,,,,427.5821819999255,427.0828838000307,427.0869949000189,427.0869949000189,427.5821819999255,427.5821819999255,427.5755043999525,428.6621018999722,428.6621018999722,428.6621018999722,z,1.6103415000252426,None,,,,,,,,SC_en,001,2025-03-07_12h51.43.433,MainFlow,2024.2.4,129.97833256802647,2025-03-07 12h51.52.921981 +0700,
2,64,1,word/worden0641.png,image/True/img64.png,110,110,0,z,0.6121337000513449,None,0,110,110,110,430.28033839992713,,,,,,,431.76625179999974,431.266963699949,431.27086099993903,431.27086099993903,431.76625179999974,431.76625179999974,431.75964359997306,432.83722009998746,432.83722009998746,432.83722009998746,z,0.6121337000513449,None,,,,,,,,SC_en,001,2025-03-07_12h51.43.433,MainFlow,2024.2.4,129.97833256802647,2025-03-07 12h51.52.921981 +0700,
2,52,0,word/worden0521.png,image/False/imgf52.png,111,111,0,x,0.4195031999843195,None,0,111,111,111,433.4593329000054,,,,,,,434.9453241999727,434.44612759992015,434.45030399993993,434.45030399993993,434.9453241999727,434.9453241999727,434.9386738999747,436.0276823999593,436.0276823999593,436.0276823999593,x,0.4195031999843195,None,,,,,,,,SC_en,001,2025-03-07_12h51.43.433,MainFlow,2024.2.4,129.97833256802647,2025-03-07 12h51.52.921981 +0700,
2,33,1,word/worden0331.png,image/True/img33.png,112,112,0,z,0.4342937999172136,None,0,112,112,112,436.4544390999945,,,,,,,437.9404026999837,437.44191269995645,437.4457717000041,437.4457717000041,437.9404026999837,437.9404026999837,437.9342444000067,439.0353985999245,439.0353985999245,439.0353985999245,z,0.4342937999172136,None,,,,,,,,SC_en,001,2025-03-07_12h51.43.433,MainFlow,2024.2.4,129.97833256802647,2025-03-07 12h51.52.921981 +0700,
2,23,1,word/worden0231.png,image/True/img23.png,113,113,0,z,0.6114984999876469,None,0,113,113,113,439.4818071000045,,,,,,,440.9678946000058,440.4689750999678,440.47274869994726,440.47274869994726,440.9678946000058,440.9678946000058,440.96119870000985,442.0614885999821,442.0614885999821,442.0614885999821,z,0.6114984999876469,None,,,,,,,,SC_en,001,2025-03-07_12h51.43.433,MainFlow,2024.2.4,129.97833256802647,2025-03-07 12h51.52.921981 +0700,
2,11,1,word/worden0111.png,image/True/img11.png,114,114,0,z,1.7200112999416888,None,0,114,114,114,442.6823629999999,,,,,,,444.1682499999879,443.6689102000091,443.6729659999255,443.6729659999255,444.1682499999879,444.1682499999879,444.1615031999536,445.2786206000019,445.2786206000019,445.2786206000019,z,1.7200112999416888,None,,,,,,,,SC_en,001,2025-03-07_12h51.43.433,MainFlow,2024.2.4,129.97833256802647,2025-03-07 12h51.52.921981 +0700,
2,22,1,word/worden0221.png,image/True/img22.png,115,115,0,z,1.2128283999627456,None,0,115,115,115,447.00736239994876,,,,,,,448.49328589998186,447.9939957000315,447.99788869998883,447.99788869998883,448.49328589998186,448.49328589998186,448.486576700001,449.60340969997924,449.60340969997924,449.60340969997924,z,1.2128283999627456,None,,,,,,,,SC_en,001,2025-03-07_12h51.43.433,MainFlow,2024.2.4,129.97833256802647,2025-03-07 12h51.52.921981 +0700,
2,37,0,word/worden0371.png,image/False/imgf37.png,116,116,0,x,3.869550099945627,None,0,116,116,116,450.8249181000283,,,,,,,452.31076689995825,451.81129370001145,451.815247099963,451.815247099963,452.31076689995825,452.31076689995825,452.30405529995915,453.4255728999851,453.4255728999851,453.4255728999851,x,3.869550099945627,None,,,,,,,,SC_en,001,2025-03-07_12h51.43.433,MainFlow,2024.2.4,129.97833256802647,2025-03-07 12h51.52.921981 +0700,
2,79,0,word/worden0791.png,image/False/imgf79.png,117,117,0,x,1.0581537999678403,None,0,117,117,117,457.3052604999393,,,,,,,458.79118860000744,458.2919956999831,458.29590979998466,458.29590979998466,458.79118860000744,458.79118860000744,458.7845517999958,459.8942473999923,459.8942473999923,459.8942473999923,x,1.0581537999678403,None,,,,,,,,SC_en,001,2025-03-07_12h51.43.433,MainFlow,2024.2.4,129.97833256802647,2025-03-07 12h51.52.921981 +0700,
2,56,1,word/worden0561.png,image/True/img56.png,118,118,0,z,0.6221364999655634,None,0,118,118,118,460.96222380001564,,,,,,,462.44898500002455,461.95005919993855,461.955207800027,461.955207800027,462.44898500002455,462.44898500002455,462.4422724000178,463.5388006999856,463.5388006999856,463.5388006999856,z,0.6221364999655634,None,,,,,,,,SC_en,001,2025-03-07_12h51.43.433,MainFlow,2024.2.4,129.97833256802647,2025-03-07 12h51.52.921981 +0700,
2,68,1,word/worden0681.png,image/True/img68.png,119,119,0,z,1.1938496999209747,None,0,119,119,119,464.1706091000233,,,,,,,465.6564618999837,465.15841459995136,465.16253560001496,465.16253560001496,465.6564618999837,465.6564618999837,465.65032999997493,466.7277758999262,466.7277758999262,466.7277758999262,z,1.1938496999209747,None,,,,,,,,SC_en,001,2025-03-07_12h51.43.433,MainFlow,2024.2.4,129.97833256802647,2025-03-07 12h51.52.921981 +0700,
2,27,0,word/worden0271.png,image/False/imgf27.png,120,120,0,x,1.8449581998866051,None,0,120,120,120,467.932792800013,,,,,,,469.41935979994014,468.92043319996446,468.92420130001847,468.92420130001847,469.41935979994014,469.41935979994014,469.41262329998426,470.50836829992477,470.50836829992477,470.50836829992477,x,1.8449581998866051,None,,,,,,,,SC_en,001,2025-03-07_12h51.43.433,MainFlow,2024.2.4,129.97833256802647,2025-03-07 12h51.52.921981 +0700,
2,3,1,word/worden0031.png,image/True/img03.png,121,121,0,z,0.657299599959515,None,0,121,121,121,472.36223530001007,,,,,,,473.84867680002935,473.3500721999444,473.35419049998745,473.35419049998745,473.84867680002935,473.84867680002935,473.8420320999576,474.9439853000222,474.9439853000222,474.9439853000222,z,0.657299599959515,None,,,,,,,,SC_en,001,2025-03-07_12h51.43.433,MainFlow,2024.2.4,129.97833256802647,2025-03-07 12h51.52.921981 +0700,
2,38,0,word/worden0381.png,image/False/imgf38.png,122,122,0,x,1.6458972000982612,None,0,122,122,122,475.61211759992875,,,,,,,477.0981273999205,476.5995220999466,476.6038451999193,476.6038451999193,477.0981273999205,477.0981273999205,477.09148319996893,478.21711710002273,478.21711710002273,478.21711710002273,x,1.6458972000982612,None,,,,,,,,SC_en,001,2025-03-07_12h51.43.433,MainFlow,2024.2.4,129.97833256802647,2025-03-07 12h51.52.921981 +0700,
2,59,1,word/worden0591.png,image/True/img59.png,123,123,0,z,1.239437000011094,None,0,123,123,123,479.8763562999666,,,,,,,481.3623500999529,480.8633839000249,480.8671654999489,480.8671654999489,481.3623500999529,481.3623500999529,481.35558710002806,482.43952849996276,482.43952849996276,482.43952849996276,z,1.239437000011094,None,,,,,,,,SC_en,001,2025-03-07_12h51.43.433,MainFlow,2024.2.4,129.97833256802647,2025-03-07 12h51.52.921981 +0700,
2,18,1,word/worden0181.png,image/True/img18.png,124,124,0,z,1.3166818000609055,None,0,124,124,124,483.68954279995523,,,,,,,485.17561239993665,484.6771948999958,484.68109800003003,484.68109800003003,485.17561239993665,485.17561239993665,485.1689060999779,486.2593655999517,486.2593655999517,486.2593655999517,z,1.3166818000609055,None,,,,,,,,SC_en,001,2025-03-07_12h51.43.433,MainFlow,2024.2.4,129.97833256802647,2025-03-07 12h51.52.921981 +0700,
2,60,1,word/worden0601.png,image/True/img60.png,125,125,0,z,0.7738211000105366,None,0,125,125,125,487.5830343000125,,,,,,,489.06891699996777,488.5701287999982,488.5745081999339,488.5745081999339,489.06891699996777,489.06891699996777,489.06220879999455,490.1550952999387,490.1550952999387,490.1550952999387,z,0.7738211000105366,None,,,,,,,,SC_en,001,2025-03-07_12h51.43.433,MainFlow,2024.2.4,129.97833256802647,2025-03-07 12h51.52.921981 +0700,
2,9,1,word/worden0091.png,image/True/img09.png,126,126,0,x,0.9848796000005677,None,0,126,126,126,490.93967320001684,,,,,,,492.42563990002964,491.9262653000187,491.9304678000044,491.9304678000044,492.42563990002964,492.42563990002964,492.4190134999808,493.49065019993577,493.49065019993577,493.49065019993577,x,0.9848796000005677,None,,,,,,,,SC_en,001,2025-03-07_12h51.43.433,MainFlow,2024.2.4,129.97833256802647,2025-03-07 12h51.52.921981 +0700,
2,9,0,word/worden0091.png,image/False/imgf09.png,127,127,0,x,1.1213650999125093,None,0,127,127,127,494.48353189998306,,,,,,,495.9700961000053,495.47044740000274,495.4744112000335,495.4744112000335,495.9700961000053,495.9700961000053,495.96346250001807,497.04290320002474,497.04290320002474,497.04290320002474,x,1.1213650999125093,None,,,,,,,,SC_en,001,2025-03-07_12h51.43.433,MainFlow,2024.2.4,129.97833256802647,2025-03-07 12h51.52.921981 +0700,
2,94,0,word/worden0941.png,image/False/imgf94.png,128,128,0,x,1.1691855000099167,None,0,128,128,128,498.1766764000058,,,,,,,499.6632339999778,499.1645706000272,499.16877949994523,499.16877949994523,499.6632339999778,499.6632339999778,499.65660230000503,500.7704265000066,500.7704265000066,500.7704265000066,x,1.1691855000099167,None,,,,,,,,SC_en,001,2025-03-07_12h51.43.433,MainFlow,2024.2.4,129.97833256802647,2025-03-07 12h51.52.921981 +0700,
2,66,1,word/worden0661.png,image/True/img66.png,129,129,0,z,0.6299122999189422,None,0,129,129,129,501.95147909992374,,,,,,,503.4374405000126,502.9381420999998,502.9421606999822,502.9421606999822,503.4374405000126,503.4374405000126,503.4307273000013,504.5282407000195,504.5282407000195,504.5282407000195,z,0.6299122999189422,None,,,,,,,,SC_en,001,2025-03-07_12h51.43.433,MainFlow,2024.2.4,129.97833256802647,2025-03-07 12h51.52.921981 +0700,
2,1,0,word/worden0011.png,image/False/imgf01.png,130,130,0,x,0.5831943000666797,None,0,130,130,130,505.16693920001853,,,,,,,506.6529505000217,506.15374490001705,506.1578980999766,506.1578980999766,506.6529505000217,506.6529505000217,506.6462389000226,507.7316027999623,507.7316027999623,507.7316027999623,x,0.5831943000666797,None,,,,,,,,SC_en,001,2025-03-07_12h51.43.433,MainFlow,2024.2.4,129.97833256802647,2025-03-07 12h51.52.921981 +0700,
2,89,0,word/worden0891.png,image/False/imgf89.png,131,131,0,x,1.055732800043188,None,0,131,131,131,508.3220626999391,,,,,,,509.80795719998423,509.30876669997815,509.31251489999704,509.31251489999704,509.80795719998423,509.80795719998423,509.801246499992,510.89154769992456,510.89154769992456,510.89154769992456,x,1.055732800043188,None,,,,,,,,SC_en,001,2025-03-07_12h51.43.433,MainFlow,2024.2.4,129.97833256802647,2025-03-07 12h51.52.921981 +0700,
2,48,1,word/worden0481.png,image/True/img48.png,132,132,0,z,1.1601778999902308,None,0,132,132,132,511.9567471999908,,,,,,,513.4427137000021,512.9432833000319,512.947205399978,512.947205399978,513.4427137000021,513.4427137000021,513.4359845999861,514.5388511000201,514.5388511000201,514.5388511000201,z,1.1601778999902308,None,,,,,,,,SC_en,001,2025-03-07_12h51.43.433,MainFlow,2024.2.4,129.97833256802647,2025-03-07 12h51.52.921981 +0700,
2,63,0,word/worden0631.png,image/False/imgf63.png,133,133,0,x,1.0827530000824481,None,0,133,133,133,515.7060677999398,,,,,,,517.1920807999559,516.6922852999996,516.6963454999495,516.6963454999495,517.1920807999559,517.1920807999559,517.1854259999236,518.2886808000039,518.2886808000039,518.2886808000039,x,1.0827530000824481,None,,,,,,,,SC_en,001,2025-03-07_12h51.43.433,MainFlow,2024.2.4,129.97833256802647,2025-03-07 12h51.52.921981 +0700,
2,23,1,word/worden0231.png,image/True/img23.png,134,134,0,z,0.7525467000668868,None,0,134,134,134,519.3791291000089,,,,,,,520.8651064999867,520.3657980000135,520.3697167999344,520.3697167999344,520.8651064999867,520.8651064999867,520.8584164000349,521.9611770999618,521.9611770999618,521.9611770999618,z,0.7525467000668868,None,,,,,,,,SC_en,001,2025-03-07_12h51.43.433,MainFlow,2024.2.4,129.97833256802647,2025-03-07 12h51.52.921981 +0700,
2,40,0,word/worden0401.png,image/False/imgf40.png,135,135,0,x,0.6289724000962451,None,0,135,135,135,522.7257153999526,,,,,,,524.2122270999243,523.7130105999531,523.7170160999522,523.7170160999522,524.2122270999243,524.2122270999243,524.2055168999359,525.3413918999722,525.3413918999722,525.3413918999722,x,0.6289724000962451,None,,,,,,,,SC_en,001,2025-03-07_12h51.43.433,MainFlow,2024.2.4,129.97833256802647,2025-03-07 12h51.52.921981 +0700,
2,52,1,word/worden0521.png,image/True/img52.png,136,136,0,z,0.6260791999520734,None,0,136,136,136,525.9818258000305,,,,,,,527.4675577000016,526.9683620999567,526.9722629999742,526.9722629999742,527.4675577000016,527.4675577000016,527.460758100031,528.5716823999537,528.5716823999537,528.5716823999537,z,0.6260791999520734,None,,,,,,,,SC_en,001,2025-03-07_12h51.43.433,MainFlow,2024.2.4,129.97833256802647,2025-03-07 12h51.52.921981 +0700,
2,30,1,word/worden0301.png,image/True/img30.png,137,137,0,z,0.5675423999782652,None,0,137,137,137,529.2079814999597,,,,,,,530.693879700033,530.1946565000108,530.1989641999826,530.1989641999826,530.693879700033,530.693879700033,530.687216399936,531.7777717999415,531.7777717999415,531.7777717999415,z,0.5675423999782652,None,,,,,,,,SC_en,001,2025-03-07_12h51.43.433,MainFlow,2024.2.4,129.97833256802647,2025-03-07 12h51.52.921981 +0700,
2,15,1,word/worden0151.png,image/True/img15.png,138,138,0,z,0.6965965999988839,None,0,138,138,138,532.3561463999795,,,,,,,533.8426272999495,533.3430253999541,533.347530500032,533.347530500032,533.8426272999495,533.8426272999495,533.8359670999926,534.9510886999778,534.9510886999778,534.9510886999778,z,0.6965965999988839,None,,,,,,,,SC_en,001,2025-03-07_12h51.43.433,MainFlow,2024.2.4,129.97833256802647,2025-03-07 12h51.52.921981 +0700,
2,46,1,word/worden0461.png,image/True/img46.png,139,139,0,z,0.7796431999886408,None,0,139,139,139,535.6584471999668,,,,,,,537.1449615999591,536.6453454999719,536.6496527999407,536.6496527999407,537.1449615999591,537.1449615999591,537.1383047000272,538.2548962000292,538.2548962000292,538.2548962000292,z,0.7796431999886408,None,,,,,,,,SC_en,001,2025-03-07_12h51.43.433,MainFlow,2024.2.4,129.97833256802647,2025-03-07 12h51.52.921981 +0700,
2,14,1,word/worden0141.png,image/True/img14.png,140,140,0,z,0.7396370000205934,None,0,140,140,140,539.045737999957,,,,,,,540.5317588000325,540.0324873999925,540.036352599971,540.036352599971,540.5317588000325,540.5317588000325,540.5251125999494,541.6275957999751,541.6275957999751,541.6275957999751,z,0.7396370000205934,None,,,,,,,,SC_en,001,2025-03-07_12h51.43.433,MainFlow,2024.2.4,129.97833256802647,2025-03-07 12h51.52.921981 +0700,
2,66,0,word/worden0661.png,image/False/imgf66.png,141,141,0,x,1.3817644999362528,None,0,141,141,141,542.3782826999668,,,,,,,543.8648955000099,543.3655233000172,543.3695541999768,543.3695541999768,543.8648955000099,543.8648955000099,543.8583054000046,544.9620584999211,544.9620584999211,544.9620584999211,x,1.3817644999362528,None,,,,,,,,SC_en,001,2025-03-07_12h51.43.433,MainFlow,2024.2.4,129.97833256802647,2025-03-07 12h51.52.921981 +0700,
2,46,0,word/worden0461.png,image/False/imgf46.png,142,142,0,x,0.5458606999600306,None,0,142,142,142,546.3575293000322,,,,,,,547.843572899932,547.3443652000278,547.3483704000246,547.3483704000246,547.843572899932,547.843572899932,547.8369653000263,548.9509933999507,548.9509933999507,548.9509933999507,x,0.5458606999600306,None,,,,,,,,SC_en,001,2025-03-07_12h51.43.433,MainFlow,2024.2.4,129.97833256802647,2025-03-07 12h51.52.921981 +0700,
2,18,1,word/worden0181.png,image/True/img18.png,143,143,0,z,0.3830486999358982,None,0,143,143,143,549.5067920000292,,,,,,,550.9926966999192,550.493272599997,550.4973685999867,550.4973685999867,550.9926966999192,550.9926966999192,550.9860605000285,552.0756161999889,552.0756161999889,552.0756161999889,z,0.3830486999358982,None,,,,,,,,SC_en,001,2025-03-07_12h51.43.433,MainFlow,2024.2.4,129.97833256802647,2025-03-07 12h51.52.921981 +0700,
2,51,0,word/worden0511.png,image/False/imgf51.png,144,144,0,x,0.5858095000730827,None,0,144,144,144,552.4674222000176,,,,,,,553.9534320000093,553.4537386000156,553.4586659999331,553.4586659999331,553.9534320000093,553.9534320000093,553.9466270999983,555.040265699965,555.040265699965,555.040265699965,x,0.5858095000730827,None,,,,,,,,SC_en,001,2025-03-07_12h51.43.433,MainFlow,2024.2.4,129.97833256802647,2025-03-07 12h51.52.921981 +0700,
2,76,1,word/worden0761.png,image/True/img76.png,145,145,0,z,1.5953761000419036,None,0,145,145,145,555.6366769999731,,,,,,,557.1232195999473,556.6241631000303,556.6280957999406,556.6280957999406,557.1232195999473,557.1232195999473,557.116720699938,558.2174007999711,558.2174007999711,558.2174007999711,z,1.5953761000419036,None,,,,,,,,SC_en,001,2025-03-07_12h51.43.433,MainFlow,2024.2.4,129.97833256802647,2025-03-07 12h51.52.921981 +0700,
2,57,1,word/worden0571.png,image/True/img57.png,146,146,0,z,1.5332994000054896,None,0,146,146,146,559.8237635999685,,,,,,,561.310240300023,560.8109029999468,560.8151712999679,560.8151712999679,561.310240300023,561.310240300023,561.3034763999749,562.4065483999439,562.4065483999439,562.4065483999439,z,1.5332994000054896,None,,,,,,,,SC_en,001,2025-03-07_12h51.43.433,MainFlow,2024.2.4,129.97833256802647,2025-03-07 12h51.52.921981 +0700,
2,48,0,word/worden0481.png,image/False/imgf48.png,147,147,0,x,1.1428286000154912,None,0,147,147,147,563.9484558999538,,,,,,,565.4343866999261,564.9346143000294,564.938841199968,564.938841199968,565.4343866999261,565.4343866999261,565.4276575000258,566.5437063999707,566.5437063999707,566.5437063999707,x,1.1428286000154912,None,,,,,,,,SC_en,001,2025-03-07_12h51.43.433,MainFlow,2024.2.4,129.97833256802647,2025-03-07 12h51.52.921981 +0700,
2,37,0,word/worden0371.png,image/False/imgf37.png,148,148,0,x,0.6653722999617457,None,0,148,148,148,567.6955415999983,,,,,,,569.1815772999544,568.6829651999287,568.6868738000048,568.6868738000048,569.1815772999544,569.1815772999544,569.1747707999311,570.2989658999722,570.2989658999722,570.2989658999722,x,0.6653722999617457,None,,,,,,,,SC_en,001,2025-03-07_12h51.43.433,MainFlow,2024.2.4,129.97833256802647,2025-03-07 12h51.52.921981 +0700,
2,60,0,word/worden0601.png,image/False/imgf60.png,149,149,0,x,1.0225745000643656,None,0,149,149,149,570.9747743000044,,,,,,,572.4606967000291,571.9616347999545,571.9657039999729,571.9657039999729,572.4606967000291,572.4606967000291,572.454053799971,573.5588281999808,573.5588281999808,573.5588281999808,x,1.0225745000643656,None,,,,,,,,SC_en,001,2025-03-07_12h51.43.433,MainFlow,2024.2.4,129.97833256802647,2025-03-07 12h51.52.921981 +0700,
2,24,1,word/worden0241.png,image/True/img24.png,150,150,0,z,0.7008821000345051,None,0,150,150,150,574.5929600999225,,,,,,,576.0788237999659,575.5797556999605,575.5840760000283,575.5840760000283,576.0788237999659,576.0788237999659,576.0722425000276,577.1519375999924,577.1519375999924,577.1519375999924,z,0.7008821000345051,None,,,,,,,,SC_en,001,2025-03-07_12h51.43.433,MainFlow,2024.2.4,129.97833256802647,2025-03-07 12h51.52.921981 +0700,
2,40,1,word/worden0401.png,image/True/img40.png,151,151,0,z,0.5632578999502584,None,0,151,151,151,577.8622217000229,,,,,,,579.3487522000214,578.8495747999987,578.8536258999957,578.8536258999957,579.3487522000214,579.3487522000214,579.341993900016,580.4685510999989,580.4685510999989,580.4685510999989,z,0.5632578999502584,None,,,,,,,,SC_en,001,2025-03-07_12h51.43.433,MainFlow,2024.2.4,129.97833256802647,2025-03-07 12h51.52.921981 +0700,
2,54,1,word/worden0541.png,image/True/img54.png,152,152,0,z,0.5036622999468818,None,0,152,152,152,581.0441242000088,,,,,,,582.5301072000293,582.0312928999774,582.0353332000086,582.0353332000086,582.5301072000293,582.5301072000293,582.5233404999599,583.6390990000218,583.6390990000218,583.6390990000218,z,0.5036622999468818,None,,,,,,,,SC_en,001,2025-03-07_12h51.43.433,MainFlow,2024.2.4,129.97833256802647,2025-03-07 12h51.52.921981 +0700,
2,44,0,word/worden0441.png,image/False/imgf44.png,153,153,0,x,0.7528263001004234,None,0,153,153,153,584.1522230999544,,,,,,,585.6380883000093,585.1388822000008,585.1432529999875,585.1432529999875,585.6380883000093,585.6380883000093,585.6314283999382,586.7471468999283,586.7471468999283,586.7471468999283,x,0.7528263001004234,None,,,,,,,,SC_en,001,2025-03-07_12h51.43.433,MainFlow,2024.2.4,129.97833256802647,2025-03-07 12h51.52.921981 +0700,
2,79,1,word/worden0791.png,image/True/img79.png,154,154,0,z,0.6180345000466332,None,0,154,154,154,587.5104805999435,,,,,,,588.9963568999665,588.4978650999255,588.5020375000313,588.5020375000313,588.9963568999665,588.9963568999665,588.9896336999955,590.0974627999822,590.0974627999822,590.0974627999822,z,0.6180345000466332,None,,,,,,,,SC_en,001,2025-03-07_12h51.43.433,MainFlow,2024.2.4,129.97833256802647,2025-03-07 12h51.52.921981 +0700,
2,95,1,word/worden0951.png,image/True/img95.png,155,155,0,z,1.4742328999564052,None,0,155,155,155,590.7224838000257,,,,,,,592.2083568000235,591.7094420000212,591.7134004000109,591.7134004000109,592.2083568000235,592.2083568000235,592.2016765000299,593.3199374999385,593.3199374999385,593.3199374999385,z,1.4742328999564052,None,,,,,,,,SC_en,001,2025-03-07_12h51.43.433,MainFlow,2024.2.4,129.97833256802647,2025-03-07 12h51.52.921981 +0700,
2,37,1,word/worden0371.png,image/True/img37.png,156,156,0,z,5.299566200003028,None,0,156,156,156,594.8054773999611,,,,,,,596.2914444999769,595.792144899955,595.796133399941,595.796133399941,596.2914444999769,596.2914444999769,596.2846935000271,597.4064159999834,597.4064159999834,597.4064159999834,z,5.299566200003028,None,,,,,,,,SC_en,001,2025-03-07_12h51.43.433,MainFlow,2024.2.4,129.97833256802647,2025-03-07 12h51.52.921981 +0700,
2,70,1,word/worden0701.png,image/True/img70.png,157,157,0,z,1.1460920999525115,None,0,157,157,157,602.7165843999246,,,,,,,604.2024506999878,603.703674599994,603.7079320999328,603.7079320999328,604.2024506999878,604.2024506999878,604.1957157999277,605.2985895000165,605.2985895000165,605.2985895000165,z,1.1460920999525115,None,,,,,,,,SC_en,001,2025-03-07_12h51.43.433,MainFlow,2024.2.4,129.97833256802647,2025-03-07 12h51.52.921981 +0700,
2,40,1,word/worden0401.png,image/True/img40.png,158,158,0,z,3.5722505999729037,None,0,158,158,158,606.4518996999832,,,,,,,607.9378688000143,607.4395503000123,607.4435849000001,607.4435849000001,607.9378688000143,607.9378688000143,607.9317239000229,609.0566298000049,609.0566298000049,609.0566298000049,z,3.5722505999729037,None,,,,,,,,SC_en,001,2025-03-07_12h51.43.433,MainFlow,2024.2.4,129.97833256802647,2025-03-07 12h51.52.921981 +0700,
2,30,0,word/worden0301.png,image/False/imgf30.png,159,159,0,x,0.7980734999291599,None,0,159,159,159,612.6397604999365,,,,,,,614.1257286999607,613.6267522999551,613.6310368999839,613.6310368999839,614.1257286999607,614.1257286999607,614.1190913999453,615.2094758999301,615.2094758999301,615.2094758999301,x,0.7980734999291599,None,,,,,,,,SC_en,001,2025-03-07_12h51.43.433,MainFlow,2024.2.4,129.97833256802647,2025-03-07 12h51.52.921981 +0700,
2,88,1,word/worden0881.png,image/True/img88.png,160,160,0,x,1.8367744999704883,None,0,160,160,160,616.0172254999634,,,,,,,617.5037797000259,617.0040684000123,617.0083784000017,617.0083784000017,617.5037797000259,617.5037797000259,617.4973723000148,618.6056841999525,618.6056841999525,618.6056841999525,x,1.8367744999704883,None,,,,,,,,SC_en,001,2025-03-07_12h51.43.433,MainFlow,2024.2.4,129.97833256802647,2025-03-07 12h51.52.921981 +0700,
2,15,1,word/worden0151.png,image/True/img15.png,161,161,0,z,3.754931699950248,None,0,161,161,161,620.4523872999707,,,,,,,621.9383020999376,621.4387501999736,621.4426692000125,621.4426692000125,621.9383020999376,621.9383020999376,621.9316583999898,623.0472595000174,623.0472595000174,623.0472595000174,z,3.754931699950248,None,,,,,,,,SC_en,001,2025-03-07_12h51.43.433,MainFlow,2024.2.4,129.97833256802647,2025-03-07 12h51.52.921981 +0700,
2,54,1,word/worden0541.png,image/True/img54.png,162,162,0,z,3.2868003000039607,None,0,162,162,162,626.8105959999375,,,,,,,628.2964924999978,627.7968264999799,627.8009986999677,627.8009986999677,628.2964924999978,628.2964924999978,628.289789399947,629.4059226999525,629.4059226999525,629.4059226999525,z,3.2868003000039607,None,,,,,,,,SC_en,001,2025-03-07_12h51.43.433,MainFlow,2024.2.4,129.97833256802647,2025-03-07 12h51.52.921981 +0700,
2,11,0,word/worden0111.png,image/False/imgf11.png,163,163,0,x,0.7142509000841528,None,0,163,163,163,632.7039231000235,,,,,,,634.1899949000217,633.6908225999214,633.694722599932,633.694722599932,634.1899949000217,634.1899949000217,634.1831888000015,635.2969299999531,635.2969299999531,635.2969299999531,x,0.7142509000841528,None,,,,,,,,SC_en,001,2025-03-07_12h51.43.433,MainFlow,2024.2.4,129.97833256802647,2025-03-07 12h51.52.921981 +0700,
2,16,1,word/worden0161.png,image/True/img16.png,164,164,0,z,1.245978399994783,None,0,164,164,164,636.0195980999852,,,,,,,637.5060493999626,637.0066910999594,637.0107892999658,637.0107892999658,637.5060493999626,637.5060493999626,637.4993577999994,638.6163077999372,638.6163077999372,638.6163077999372,z,1.245978399994783,None,,,,,,,,SC_en,001,2025-03-07_12h51.43.433,MainFlow,2024.2.4,129.97833256802647,2025-03-07 12h51.52.921981 +0700,
2,1,1,word/worden0011.png,image/True/img01.png,165,165,0,z,0.5929107000119984,None,0,165,165,165,639.8727029999718,,,,,,,641.3568139999406,640.8587329000002,640.8634825999616,640.8634825999616,641.3568139999406,641.3568139999406,641.3507441999391,642.477481000009,642.477481000009,642.477481000009,z,0.5929107000119984,None,,,,,,,,SC_en,001,2025-03-07_12h51.43.433,MainFlow,2024.2.4,129.97833256802647,2025-03-07 12h51.52.921981 +0700,
2,22,0,word/worden0221.png,image/False/imgf22.png,166,166,0,x,0.5409832999575883,None,0,166,166,166,643.0808135999832,,,,,,,644.5667480999837,644.068477599998,644.0729538999731,644.0729538999731,644.5667480999837,644.5667480999837,644.560072000022,645.7055958999554,645.7055958999554,645.7055958999554,x,0.5409832999575883,None,,,,,,,,SC_en,001,2025-03-07_12h51.43.433,MainFlow,2024.2.4,129.97833256802647,2025-03-07 12h51.52.921981 +0700,
2,63,1,word/worden0631.png,image/True/img63.png,167,167,0,z,0.6462689000181854,None,0,167,167,167,646.2562216999941,,,,,,,647.7427094000159,647.2439519999316,647.2483862999361,647.2483862999361,647.7427094000159,647.7427094000159,647.7359528000234,648.8579060999909,648.8579060999909,648.8579060999909,z,0.6462689000181854,None,,,,,,,,SC_en,001,2025-03-07_12h51.43.433,MainFlow,2024.2.4,129.97833256802647,2025-03-07 12h51.52.921981 +0700,
2,87,1,word/worden0871.png,image/True/img87.png,168,168,0,z,0.47111190005671233,None,0,168,168,168,649.5144446999766,,,,,,,651.0008945999434,650.5021602000343,650.5062047999818,650.5062047999818,651.0008945999434,651.0008945999434,650.9942097000312,652.1051137000322,652.1051137000322,652.1051137000322,z,0.47111190005671233,None,,,,,,,,SC_en,001,2025-03-07_12h51.43.433,MainFlow,2024.2.4,129.97833256802647,2025-03-07 12h51.52.921981 +0700,
2,57,0,word/worden0571.png,image/False/imgf57.png,169,169,0,x,1.1132853999733925,None,0,169,169,169,652.5882936000125,,,,,,,654.0748046999797,653.5757288000314,653.5797071999405,653.5797071999405,654.0748046999797,654.0748046999797,654.0681187999435,655.1752364999847,655.1752364999847,655.1752364999847,x,1.1132853999733925,None,,,,,,,,SC_en,001,2025-03-07_12h51.43.433,MainFlow,2024.2.4,129.97833256802647,2025-03-07 12h51.52.921981 +0700,
2,94,0,word/worden0941.png,image/False/imgf94.png,170,170,0,x,1.3607612999621779,None,0,170,170,170,656.3007492999313,,,,,,,657.7860458999639,657.2877623999957,657.2919163999613,657.2919163999613,657.7860458999639,657.7860458999639,657.7793876000214,658.8991795999464,658.8991795999464,658.8991795999464,x,1.3607612999621779,None,,,,,,,,SC_en,001,2025-03-07_12h51.43.433,MainFlow,2024.2.4,129.97833256802647,2025-03-07 12h51.52.921981 +0700,
2,93,0,word/worden0931.png,image/False/imgf93.png,171,171,0,x,1.5309200000483543,None,0,171,171,171,660.2729448999744,,,,,,,661.7594987000339,661.2605421999469,661.2644980000332,661.2644980000332,661.7594987000339,661.7594987000339,661.7527579999296,662.8407953999704,662.8407953999704,662.8407953999704,x,1.5309200000483543,None,,,,,,,,SC_en,001,2025-03-07_12h51.43.433,MainFlow,2024.2.4,129.97833256802647,2025-03-07 12h51.52.921981 +0700,
2,61,1,word/worden0611.png,image/True/img61.png,172,172,0,z,1.0393170999595895,None,0,172,172,172,664.3796244999394,,,,,,,665.8656468000263,665.3674858999439,665.3715634000255,665.3715634000255,665.8656468000263,665.8656468000263,665.8588781999424,666.9651165999239,666.9651165999239,666.9651165999239,z,1.0393170999595895,None,,,,,,,,SC_en,001,2025-03-07_12h51.43.433,MainFlow,2024.2.4,129.97833256802647,2025-03-07 12h51.52.921981 +0700,
2,28,1,word/worden0281.png,image/True/img28.png,173,173,0,z,0.7666992000304163,None,0,173,173,173,668.0134304999374,,,,,,,669.4993343999377,669.0009989999235,669.0050827999366,669.0050827999366,669.4993343999377,669.4993343999377,669.4927270000335,670.6095561999828,670.6095561999828,670.6095561999828,z,0.7666992000304163,None,,,,,,,,SC_en,001,2025-03-07_12h51.43.433,MainFlow,2024.2.4,129.97833256802647,2025-03-07 12h51.52.921981 +0700,
2,46,1,word/worden0461.png,image/True/img46.png,174,174,0,z,2.474929600022733,None,0,174,174,174,671.3870311999926,,,,,,,672.8729637999786,672.3739903999958,672.3777837000089,672.3777837000089,672.8729637999786,672.8729637999786,672.8663560999557,673.9871694999747,673.9871694999747,673.9871694999747,z,2.474929600022733,None,,,,,,,,SC_en,001,2025-03-07_12h51.43.433,MainFlow,2024.2.4,129.97833256802647,2025-03-07 12h51.52.921981 +0700,
2,22,1,word/worden0221.png,image/True/img22.png,175,175,0,z,0.6645947999786586,None,0,175,175,175,676.4711879999377,,,,,,,677.9577894000104,677.4597412999719,677.464079599944,677.464079599944,677.9577894000104,677.9577894000104,677.9511842000065,679.06476139999,679.06476139999,679.06476139999,z,0.6645947999786586,None,,,,,,,,SC_en,001,2025-03-07_12h51.43.433,MainFlow,2024.2.4,129.97833256802647,2025-03-07 12h51.52.921981 +0700,
2,93,1,word/worden0931.png,image/True/img93.png,176,176,0,z,0.6938360000494868,None,0,176,176,176,679.7392046999885,,,,,,,681.2251646999503,680.7256914000027,680.7296283999458,680.7296283999458,681.2251646999503,681.2251646999503,681.2185445999494,682.3037554000039,682.3037554000039,682.3037554000039,z,0.6938360000494868,None,,,,,,,,SC_en,001,2025-03-07_12h51.43.433,MainFlow,2024.2.4,129.97833256802647,2025-03-07 12h51.52.921981 +0700,
2,95,1,word/worden0951.png,image/True/img95.png,177,177,0,z,0.6027672999771312,None,0,177,177,177,683.0053807999939,,,,,,,684.4913839999354,683.9920935999835,683.99610879994,683.99610879994,684.4913839999354,684.4913839999354,684.4847381999716,685.5963384999195,685.5963384999195,685.5963384999195,z,0.6027672999771312,None,,,,,,,,SC_en,001,2025-03-07_12h51.43.433,MainFlow,2024.2.4,129.97833256802647,2025-03-07 12h51.52.921981 +0700,
2,17,0,word/worden0171.png,image/False/imgf17.png,178,178,0,x,1.2536646999651566,None,0,178,178,178,686.211438999977,,,,,,,687.6974082000088,687.197811699938,687.2018647999503,687.2018647999503,687.6974082000088,687.6974082000088,687.690655299928,688.7929901999887,688.7929901999887,688.7929901999887,x,1.2536646999651566,None,,,,,,,,SC_en,001,2025-03-07_12h51.43.433,MainFlow,2024.2.4,129.97833256802647,2025-03-07 12h51.52.921981 +0700,
2,26,1,word/worden0261.png,image/True/img26.png,179,179,0,z,1.5011509000323713,None,0,179,179,179,690.0583872999996,,,,,,,691.5438632000005,691.0445462999633,691.0484593999572,691.0484593999572,691.5438632000005,691.5438632000005,691.5372126000002,692.6456864000065,692.6456864000065,692.6456864000065,z,1.5011509000323713,None,,,,,,,,SC_en,001,2025-03-07_12h51.43.433,MainFlow,2024.2.4,129.97833256802647,2025-03-07 12h51.52.921981 +0700,
2,27,1,word/worden0271.png,image/True/img27.png,180,180,0,z,0.6060368000762537,None,0,180,180,180,694.1595002999529,,,,,,,695.645532399998,695.145837899996,695.1498139000032,695.1498139000032,695.645532399998,695.645532399998,695.63883359998,696.7234410999808,696.7234410999808,696.7234410999808,z,0.6060368000762537,None,,,,,,,,SC_en,001,2025-03-07_12h51.43.433,MainFlow,2024.2.4,129.97833256802647,2025-03-07 12h51.52.921981 +0700,
2,31,1,word/worden0311.png,image/True/img31.png,181,181,0,z,1.2669528999831527,None,0,181,181,181,697.3416927999351,,,,,,,698.827618499985,698.3281552999979,698.3322768999496,698.3322768999496,698.827618499985,698.827618499985,698.8209490999579,699.9093414000235,699.9093414000235,699.9093414000235,z,1.2669528999831527,None,,,,,,,,SC_en,001,2025-03-07_12h51.43.433,MainFlow,2024.2.4,129.97833256802647,2025-03-07 12h51.52.921981 +0700,
2,33,0,word/worden0331.png,image/False/imgf33.png,182,182,0,x,0.7648244000738487,None,0,182,182,182,701.1841133999405,,,,,,,702.6704249000177,702.1714086999418,702.1753390999511,702.1753390999511,702.6704249000177,702.6704249000177,702.6634349999949,703.7639727999922,703.7639727999922,703.7639727999922,x,0.7648244000738487,None,,,,,,,,SC_en,001,2025-03-07_12h51.43.433,MainFlow,2024.2.4,129.97833256802647,2025-03-07 12h51.52.921981 +0700,
2,59,1,word/worden0591.png,image/True/img59.png,183,183,0,z,0.698266200022772,None,0,183,183,183,704.5375051000156,,,,,,,706.0234827999957,705.5238689000253,705.5281947000185,705.5281947000185,706.0234827999957,706.0234827999957,706.0168473999947,707.0931284999242,707.0931284999242,707.0931284999242,z,0.698266200022772,None,,,,,,,,SC_en,001,2025-03-07_12h51.43.433,MainFlow,2024.2.4,129.97833256802647,2025-03-07 12h51.52.921981 +0700,
2,8,1,word/worden0081.png,image/True/img08.png,184,184,0,z,0.3514001000439748,None,0,184,184,184,707.7997622999828,,,,,,,709.2857484000269,708.7865814999677,708.7904150999384,708.7904150999384,709.2857484000269,709.2857484000269,709.2791028999491,710.3573985999683,710.3573985999683,710.3573985999683,z,0.3514001000439748,None,,,,,,,,SC_en,001,2025-03-07_12h51.43.433,MainFlow,2024.2.4,129.97833256802647,2025-03-07 12h51.52.921981 +0700,
2,63,0,word/worden0631.png,image/False/imgf63.png,185,185,0,x,0.5122783000115305,None,0,185,185,185,710.7216940999497,,,,,,,712.2081007999368,711.7087973000016,711.7127703999868,711.7127703999868,712.2081007999368,712.2081007999368,712.201479399926,713.3035648999503,713.3035648999503,713.3035648999503,x,0.5122783000115305,None,,,,,,,,SC_en,001,2025-03-07_12h51.43.433,MainFlow,2024.2.4,129.97833256802647,2025-03-07 12h51.52.921981 +0700,
2,30,0,word/worden0301.png,image/False/imgf30.png,186,186,0,x,0.6374206999316812,None,0,186,186,186,713.8254677000223,,,,,,,715.3113869000226,714.8121567999478,714.8159444000339,714.8159444000339,715.3113869000226,715.3113869000226,715.3048703999957,716.3914611999644,716.3914611999644,716.3914611999644,x,0.6374206999316812,None,,,,,,,,SC_en,001,2025-03-07_12h51.43.433,MainFlow,2024.2.4,129.97833256802647,2025-03-07 12h51.52.921981 +0700,
2,15,0,word/worden0151.png,image/False/imgf15.png,187,187,0,x,1.231229400029406,None,0,187,187,187,717.0375182999996,,,,,,,718.5235261999769,718.0236259999219,718.0278787999414,718.0278787999414,718.5235261999769,718.5235261999769,718.5168036000105,719.6094021999743,719.6094021999743,719.6094021999743,x,1.231229400029406,None,,,,,,,,SC_en,001,2025-03-07_12h51.43.433,MainFlow,2024.2.4,129.97833256802647,2025-03-07 12h51.52.921981 +0700,
2,71,0,word/worden0711.png,image/False/imgf71.png,188,188,0,x,1.1393667999655008,None,0,188,188,188,720.852866100031,,,,,,,722.3387802999932,721.8392794999527,721.8432406999636,721.8432406999636,722.3387802999932,722.3387802999932,722.3322793999687,723.4429133000085,723.4429133000085,723.4429133000085,x,1.1393667999655008,None,,,,,,,,SC_en,001,2025-03-07_12h51.43.433,MainFlow,2024.2.4,129.97833256802647,2025-03-07 12h51.52.921981 +0700,
2,10,0,word/worden0101.png,image/False/imgf10.png,189,189,0,x,1.2220902000553906,None,0,189,189,189,724.5931199999759,,,,,,,726.0796693000011,725.5804876999464,725.5843158999924,725.5843158999924,726.0796693000011,726.0796693000011,726.0729736000067,727.1677921999944,727.1677921999944,727.1677921999944,x,1.2220902000553906,None,,,,,,,,SC_en,001,2025-03-07_12h51.43.433,MainFlow,2024.2.4,129.97833256802647,2025-03-07 12h51.52.921981 +0700,
2,54,0,word/worden0541.png,image/False/imgf54.png,190,190,0,x,0.6567105000140145,None,0,190,190,190,728.4034740999341,,,,,,,729.8899346999824,729.3905126999598,729.3945001999382,729.3945001999382,729.8899346999824,729.8899346999824,729.8832169999368,730.9749324999284,730.9749324999284,730.9749324999284,x,0.6567105000140145,None,,,,,,,,SC_en,001,2025-03-07_12h51.43.433,MainFlow,2024.2.4,129.97833256802647,2025-03-07 12h51.52.921981 +0700,
2,60,0,word/worden0601.png,image/False/imgf60.png,191,191,0,x,0.7580307999160141,None,0,191,191,191,731.6426047999412,,,,,,,733.1283976000268,732.6290275999345,732.6330916000297,732.6330916000297,733.1283976000268,733.1283976000268,733.1217019000323,734.2172139999457,734.2172139999457,734.2172139999457,x,0.7580307999160141,None,,,,,,,,SC_en,001,2025-03-07_12h51.43.433,MainFlow,2024.2.4,129.97833256802647,2025-03-07 12h51.52.921981 +0700,
2,16,0,word/worden0161.png,image/False/imgf16.png,192,192,0,x,1.2103963000699878,None,0,192,192,192,734.9878794000251,,,,,,,736.4738142000278,735.9742657999741,735.9783085000236,735.9783085000236,736.4738142000278,736.4738142000278,736.4671111999778,737.5707075999817,737.5707075999817,737.5707075999817,x,1.2103963000699878,None,,,,,,,,SC_en,001,2025-03-07_12h51.43.433,MainFlow,2024.2.4,129.97833256802647,2025-03-07 12h51.52.921981 +0700,
2,50,1,word/worden0501.png,image/True/img50.png,193,193,0,z,0.7006930999923497,None,0,193,193,193,738.7930936999619,,,,,,,740.2793761999346,739.7800531999674,739.7838221000275,739.7838221000275,740.2793761999346,740.2793761999346,740.2724105999805,741.367240899941,741.367240899941,741.367240899941,z,0.7006930999923497,None,,,,,,,,SC_en,001,2025-03-07_12h51.43.433,MainFlow,2024.2.4,129.97833256802647,2025-03-07 12h51.52.921981 +0700,
2,63,1,word/worden0631.png,image/True/img63.png,194,194,0,z,1.0308569999178872,None,0,194,194,194,742.0754020999884,,,,,,,743.5613610999426,743.0620479999343,743.066009299946,743.066009299946,743.5613610999426,743.5613610999426,743.5546695999801,744.6491644999478,744.6491644999478,744.6491644999478,z,1.0308569999178872,None,,,,,,,,SC_en,001,2025-03-07_12h51.43.433,MainFlow,2024.2.4,129.97833256802647,2025-03-07 12h51.52.921981 +0700,
2,24,0,word/worden0241.png,image/False/imgf24.png,195,195,0,x,0.5626488999696448,None,0,195,195,195,745.690528200008,,,,,,,747.1763915999327,746.6769207000034,746.6807062999578,746.6807062999578,747.1763915999327,747.1763915999327,747.1696109999903,748.2601254000328,748.2601254000328,748.2601254000328,x,0.5626488999696448,None,,,,,,,,SC_en,001,2025-03-07_12h51.43.433,MainFlow,2024.2.4,129.97833256802647,2025-03-07 12h51.52.921981 +0700,
2,89,0,word/worden0891.png,image/False/imgf89.png,196,196,0,x,4.8812436000443995,None,0,196,196,196,748.8315942999907,,,,,,,750.3181015999289,749.819005999947,749.8228570999345,749.8228570999345,750.3181015999289,750.3181015999289,750.3113972999854,751.399618400028,751.399618400028,751.399618400028,x,4.8812436000443995,None,,,,,,,,SC_en,001,2025-03-07_12h51.43.433,MainFlow,2024.2.4,129.97833256802647,2025-03-07 12h51.52.921981 +0700,
2,6,0,word/worden0061.png,image/False/imgf06.png,197,197,0,x,0.7049040999263525,None,0,197,197,197,756.29256969993,,,,,,,757.7784803999821,757.2791123000206,757.2829910999862,757.2829910999862,757.7784803999821,757.7784803999821,757.7717994999839,758.8535160999745,758.8535160999745,758.8535160999745,x,0.7049040999263525,None,,,,,,,,SC_en,001,2025-03-07_12h51.43.433,MainFlow,2024.2.4,129.97833256802647,2025-03-07 12h51.52.921981 +0700,
2,41,0,word/worden0411.png,image/False/imgf41.png,198,198,0,x,2.8586734000127763,None,0,198,198,198,759.568997800001,,,,,,,761.0550006999401,760.5557733000023,760.5597047000192,760.5597047000192,761.0550006999401,761.0550006999401,761.0488715999527,762.1206380999647,762.1206380999647,762.1206380999647,x,2.8586734000127763,None,,,,,,,,SC_en,001,2025-03-07_12h51.43.433,MainFlow,2024.2.4,129.97833256802647,2025-03-07 12h51.52.921981 +0700,
2,79,0,word/worden0791.png,image/False/imgf79.png,199,199,0,x,1.189994200016372,None,0,199,199,199,764.9891658999259,,,,,,,766.4750733999535,765.975814800011,765.9798503000056,765.9798503000056,766.4750733999535,766.4750733999535,766.4684204999357,767.5711989999982,767.5711989999982,767.5711989999982,x,1.189994200016372,None,,,,,,,,SC_en,001,2025-03-07_12h51.43.433,MainFlow,2024.2.4,129.97833256802647,2025-03-07 12h51.52.921981 +0700,
2,70,1,word/worden0701.png,image/True/img70.png,200,200,0,z,0.4604778999928385,None,0,200,200,200,768.7733585999813,,,,,,,770.2593437000178,769.7600443999982,769.7639005000237,769.7639005000237,770.2593437000178,770.2593437000178,770.252609499963,771.3484295000089,771.3484295000089,771.3484295000089,z,0.4604778999928385,None,,,,,,,,SC_en,001,2025-03-07_12h51.43.433,MainFlow,2024.2.4,129.97833256802647,2025-03-07 12h51.52.921981 +0700,
2,31,1,word/worden0311.png,image/True/img31.png,201,201,0,z,0.8032376000192016,None,0,201,201,201,771.8203722999897,,,,,,,773.3064165000105,772.8070611000294,772.8110424999613,772.8110424999613,773.3064165000105,773.3064165000105,773.299672299996,774.3871450999286,774.3871450999286,774.3871450999286,z,0.8032376000192016,None,,,,,,,,SC_en,001,2025-03-07_12h51.43.433,MainFlow,2024.2.4,129.97833256802647,2025-03-07 12h51.52.921981 +0700,
2,9,1,word/worden0091.png,image/True/img09.png,202,202,0,z,0.7865989999845624,None,0,202,202,202,775.197725999984,,,,,,,776.6837101000128,776.1842336999252,776.1881557999877,776.1881557999877,776.6837101000128,776.6837101000128,776.6769816000015,777.741616699961,777.741616699961,777.741616699961,z,0.7865989999845624,None,,,,,,,,SC_en,001,2025-03-07_12h51.43.433,MainFlow,2024.2.4,129.97833256802647,2025-03-07 12h51.52.921981 +0700,
2,27,1,word/worden0271.png,image/True/img27.png,203,203,0,z,0.8818850999232382,None,0,203,203,203,778.539255599957,,,,,,,780.0251627999824,779.525736099924,779.5298704999732,779.5298704999732,780.0251627999824,780.0251627999824,780.0186096000252,781.1025267000077,781.1025267000077,781.1025267000077,z,0.8818850999232382,None,,,,,,,,SC_en,001,2025-03-07_12h51.43.433,MainFlow,2024.2.4,129.97833256802647,2025-03-07 12h51.52.921981 +0700,
2,75,0,word/worden0751.png,image/False/imgf75.png,204,204,0,x,1.462800900102593,None,0,204,204,204,781.9980977999512,,,,,,,783.4845253999811,782.9851287000347,782.9890467999503,782.9890467999503,783.4845253999811,783.4845253999811,783.4778392999433,784.5689797999803,784.5689797999803,784.5689797999803,x,1.462800900102593,None,,,,,,,,SC_en,001,2025-03-07_12h51.43.433,MainFlow,2024.2.4,129.97833256802647,2025-03-07 12h51.52.921981 +0700,
2,87,0,word/worden0871.png,image/False/imgf87.png,205,205,0,x,3.867055199923925,None,0,205,205,205,786.042633999954,,,,,,,787.5285450000083,787.0294885999756,787.0332703000167,787.0332703000167,787.5285450000083,787.5285450000083,787.521824699943,788.6092271999223,788.6092271999223,788.6092271999223,x,3.867055199923925,None,,,,,,,,SC_en,001,2025-03-07_12h51.43.433,MainFlow,2024.2.4,129.97833256802647,2025-03-07 12h51.52.921981 +0700,
2,8,0,word/worden0081.png,image/False/imgf08.png,206,206,0,x,1.8816679998999462,None,0,206,206,206,792.4889879999682,,,,,,,793.975010199938,793.475685399957,793.4797297000187,793.4797297000187,793.975010199938,793.975010199938,793.9682739999844,795.0509216999635,795.0509216999635,795.0509216999635,x,1.8816679998999462,None,,,,,,,,SC_en,001,2025-03-07_12h51.43.433,MainFlow,2024.2.4,129.97833256802647,2025-03-07 12h51.52.921981 +0700,
2,24,1,word/worden0241.png,image/True/img24.png,207,207,0,z,0.7156680000480264,None,0,207,207,207,796.9395037000068,,,,,,,798.4254870000295,797.9262577999616,797.9305027999217,797.9305027999217,798.4254870000295,798.4254870000295,798.4188072999241,799.4890207999852,799.4890207999852,799.4890207999852,z,0.7156680000480264,None,,,,,,,,SC_en,001,2025-03-07_12h51.43.433,MainFlow,2024.2.4,129.97833256802647,2025-03-07 12h51.52.921981 +0700,
2,14,1,word/worden0141.png,image/True/img14.png,208,208,0,z,3.059366099885665,None,0,208,208,208,800.2126458999701,,,,,,,801.6986347999191,801.1994357999647,801.2036306000082,801.2036306000082,801.6986347999191,801.6986347999191,801.6919119999511,802.786531199934,802.786531199934,802.786531199934,z,3.059366099885665,None,,,,,,,,SC_en,001,2025-03-07_12h51.43.433,MainFlow,2024.2.4,129.97833256802647,2025-03-07 12h51.52.921981 +0700,
2,87,1,word/worden0871.png,image/True/img87.png,209,209,0,z,2.8374777999706566,None,0,209,209,209,805.8556899999967,,,,,,,807.3416333999485,806.8423759000143,806.8461659000022,806.8461659000022,807.3416333999485,807.3416333999485,807.3352282999549,808.438016399974,808.438016399974,808.438016399974,z,2.8374777999706566,None,,,,,,,,SC_en,001,2025-03-07_12h51.43.433,MainFlow,2024.2.4,129.97833256802647,2025-03-07 12h51.52.921981 +0700,
2,42,0,word/worden0421.png,image/False/imgf42.png,210,210,0,x,0.6436910999473184,None,0,210,210,210,811.2858795999782,,,,,,,812.7718999999342,812.2728297000285,812.2765601000283,812.2765601000283,812.7718999999342,812.7718999999342,812.7653204000089,813.8686639999505,813.8686639999505,813.8686639999505,x,0.6436910999473184,None,,,,,,,,SC_en,001,2025-03-07_12h51.43.433,MainFlow,2024.2.4,129.97833256802647,2025-03-07 12h51.52.921981 +0700,
2,48,0,word/worden0481.png,image/False/imgf48.png,211,211,0,x,0.7439250000752509,None,0,211,211,211,814.5213767000241,,,,,,,816.007771100034,815.5082251999993,815.5125079000136,815.5125079000136,816.007771100034,816.007771100034,816.0010372999823,817.1117870999733,817.1117870999733,817.1117870999733,x,0.7439250000752509,None,,,,,,,,SC_en,001,2025-03-07_12h51.43.433,MainFlow,2024.2.4,129.97833256802647,2025-03-07 12h51.52.921981 +0700,
2,56,0,word/worden0561.png,image/False/imgf56.png,212,212,0,x,0.6515875000040978,None,0,212,212,212,817.866395900026,,,,,,,819.3523599000182,818.8531300999457,818.8569921000162,818.8569921000162,819.3523599000182,819.3523599000182,819.3456632000161,820.4605481999461,820.4605481999461,820.4605481999461,x,0.6515875000040978,None,,,,,,,,SC_en,001,2025-03-07_12h51.43.433,MainFlow,2024.2.4,129.97833256802647,2025-03-07 12h51.52.921981 +0700,
2,18,0,word/worden0181.png,image/False/imgf18.png,213,213,0,x,1.6110954000614583,None,0,213,213,213,821.1198228999274,,,,,,,822.605773099931,822.1065622000024,822.1104037000332,822.1104037000332,822.605773099931,822.605773099931,822.599096299964,823.6924967999803,823.6924967999803,823.6924967999803,x,1.6110954000614583,None,,,,,,,,SC_en,001,2025-03-07_12h51.43.433,MainFlow,2024.2.4,129.97833256802647,2025-03-07 12h51.52.921981 +0700,
2,18,0,word/worden0181.png,image/False/imgf18.png,214,214,0,x,1.6027221999829635,None,0,214,214,214,825.3169339000015,,,,,,,826.8029001000104,826.3034883999499,826.3075443999842,826.3075443999842,826.8029001000104,826.8029001000104,826.7961880000075,827.8875654999865,827.8875654999865,827.8875654999865,x,1.6027221999829635,None,,,,,,,,SC_en,001,2025-03-07_12h51.43.433,MainFlow,2024.2.4,129.97833256802647,2025-03-07 12h51.52.921981 +0700,
2,9,0,word/worden0091.png,image/False/imgf09.png,215,215,0,x,0.8675903000403196,None,0,215,215,215,829.5000556999585,,,,,,,830.9859106999356,830.4870840000222,830.4910690999823,830.4910690999823,830.9859106999356,830.9859106999356,830.9797569999937,832.0552645999705,832.0552645999705,832.0552645999705,x,0.8675903000403196,None,,,,,,,,SC_en,001,2025-03-07_12h51.43.433,MainFlow,2024.2.4,129.97833256802647,2025-03-07 12h51.52.921981 +0700,
2,55,0,word/worden0551.png,image/False/imgf55.png,216,216,0,x,1.0151262000435963,None,0,216,216,216,832.9355915000197,,,,,,,834.4221312999725,833.922461799928,833.926610799972,833.926610799972,834.4221312999725,834.4221312999725,834.4153707999503,835.5100408999715,835.5100408999715,835.5100408999715,x,1.0151262000435963,None,,,,,,,,SC_en,001,2025-03-07_12h51.43.433,MainFlow,2024.2.4,129.97833256802647,2025-03-07 12h51.52.921981 +0700,
2,17,0,word/worden0171.png,image/False/imgf17.png,217,217,0,x,1.2684235000051558,None,0,217,217,217,836.5374618999194,,,,,,,838.0239370999625,837.524945299956,837.5290677000303,837.5290677000303,838.0239370999625,838.0239370999625,838.0171705000103,839.1231072000228,839.1231072000228,839.1231072000228,x,1.2684235000051558,None,,,,,,,,SC_en,001,2025-03-07_12h51.43.433,MainFlow,2024.2.4,129.97833256802647,2025-03-07 12h51.52.921981 +0700,
2,50,1,word/worden0501.png,image/True/img50.png,218,218,0,z,0.41167100006714463,None,0,218,218,218,840.4005933000008,,,,,,,841.8871303999331,841.3876490999246,841.3917800999479,841.3917800999479,841.8871303999331,841.8871303999331,841.8798472000053,842.9771837999579,842.9771837999579,842.9771837999579,z,0.41167100006714463,None,,,,,,,,SC_en,001,2025-03-07_12h51.43.433,MainFlow,2024.2.4,129.97833256802647,2025-03-07 12h51.52.921981 +0700,
2,20,0,word/worden0201.png,image/False/imgf20.png,219,219,0,x,0.7242316999472678,None,0,219,219,219,843.4006672999822,,,,,,,844.8870772999944,844.3882330999477,844.3924898999976,844.3924898999976,844.8870772999944,844.8870772999944,844.8803802999901,846.0020824000239,846.0020824000239,846.0020824000239,x,0.7242316999472678,None,,,,,,,,SC_en,001,2025-03-07_12h51.43.433,MainFlow,2024.2.4,129.97833256802647,2025-03-07 12h51.52.921981 +0700,
2,36,0,word/worden0361.png,image/False/imgf36.png,220,220,0,x,0.5932676000520587,None,0,220,220,220,846.7356487999205,,,,,,,848.2215940000024,847.7225830999669,847.7264388999902,847.7264388999902,848.2215940000024,848.2215940000024,848.2149456000188,849.3107709999895,849.3107709999895,849.3107709999895,x,0.5932676000520587,None,,,,,,,,SC_en,001,2025-03-07_12h51.43.433,MainFlow,2024.2.4,129.97833256802647,2025-03-07 12h51.52.921981 +0700,
2,7,0,word/worden0071.png,image/False/imgf07.png,221,221,0,x,0.48586040001828223,None,0,221,221,221,849.9148073999677,,,,,,,851.4008475999581,850.9015430000145,850.9054158999352,850.9054158999352,851.4008475999581,851.4008475999581,851.3941166999284,852.4905267999275,852.4905267999275,852.4905267999275,x,0.48586040001828223,None,,,,,,,,SC_en,001,2025-03-07_12h51.43.433,MainFlow,2024.2.4,129.97833256802647,2025-03-07 12h51.52.921981 +0700,
2,7,1,word/worden0071.png,image/True/img07.png,222,222,0,z,0.7073185000335798,None,0,222,222,222,852.9836651999503,,,,,,,854.4696139999432,853.9701172999339,853.9742482999573,853.9742482999573,854.4696139999432,854.4696139999432,854.4629566000076,855.5617183999857,855.5617183999857,855.5617183999857,z,0.7073185000335798,None,,,,,,,,SC_en,001,2025-03-07_12h51.43.433,MainFlow,2024.2.4,129.97833256802647,2025-03-07 12h51.52.921981 +0700,
2,70,0,word/worden0701.png,image/False/imgf70.png,223,223,0,x,0.6248829999240115,None,0,223,223,223,856.2759509999305,,,,,,,857.7619309999282,857.2623850000091,857.2664342999924,857.2664342999924,857.7619309999282,857.7619309999282,857.7552587999962,858.8410629000282,858.8410629000282,858.8410629000282,x,0.6248829999240115,None,,,,,,,,SC_en,001,2025-03-07_12h51.43.433,MainFlow,2024.2.4,129.97833256802647,2025-03-07 12h51.52.921981 +0700,
2,68,0,word/worden0681.png,image/False/imgf68.png,224,224,0,x,1.0072415999602526,None,0,224,224,224,859.473215200007,,,,,,,860.9591876999475,860.4599449000088,860.4637976000085,860.4637976000085,860.9591876999475,860.9591876999475,860.9525200999342,862.0297667999985,862.0297667999985,862.0297667999985,x,1.0072415999602526,None,,,,,,,,SC_en,001,2025-03-07_12h51.43.433,MainFlow,2024.2.4,129.97833256802647,2025-03-07 12h51.52.921981 +0700,
