lang,wordid,truestate,worddir,imgdir,thisN,thisTrialN,thisRepN,key_resp.keys,key_resp.rt,key_resp.duration,trials.thisRepN,trials.thisTrialN,trials.thisN,trials.thisIndex,thisRow.t,notes,tutorial.started,tutorial.stopped,key_instruct.keys,key_instruct.rt,key_instruct.duration,plusblank.started,wordshow.started,image.started,plsuer.started,wordshow.stopped,imageword.started,key_resp.started,trials.key_resp.keys,trials.key_resp.rt,trials.key_resp.duration,image.stopped,plsuer.stopped,plusblank.stopped,ending.started,text_3.started,ending_key.started,ending.stopped,ending_key.keys,ending_key.rt,ending_key.duration,participant,session,date,expName,psychopyVersion,frameRate,expStart,
,,,,,,,,,,,,,,,,,0.0032913000031840056,1.2127871999982744,space,1.176506200004951,None,,,,,,,,,,,,,,,,,,,,,SS_en,001,2025-03-11_22h47.35.642,MainFlow,2024.2.4,143.97314038429627,2025-03-11 22h47.56.196844 +0700,
2,87,0,word/worden0871.png,image/False/imgf87.png,0,0,0,x,0.7761112000007415,None,0,0,0,0,1.263641400000779,,,,,,,2.7231896000012057,2.242221699998481,2.268786500004353,2.268786500004353,2.716720099997474,3.895740299994941,3.895740299994941,x,0.7761112000007415,None,,,,,,,,,,,SS_en,001,2025-03-11_22h47.35.642,MainFlow,2024.2.4,143.97314038429627,2025-03-11 22h47.56.196844 +0700,
2,93,0,word/worden0931.png,image/False/imgf93.png,1,1,0,x,0.6634550000017043,None,0,1,1,1,4.681190100003732,,,,,,,6.187650899999426,5.6956887999986066,5.698876700000255,5.698876700000255,6.1811866000061855,7.276787599999807,7.276787599999807,x,0.6634550000017043,None,,,,,,,,,,,SS_en,001,2025-03-11_22h47.35.642,MainFlow,2024.2.4,143.97314038429627,2025-03-11 22h47.56.196844 +0700,
2,23,0,word/worden0231.png,image/False/imgf23.png,2,2,0,x,0.7538054999895394,None,0,2,2,2,7.951257900000201,,,,,,,9.457936100006918,8.965889800005243,8.969022200006293,8.969022200006293,9.451593400008278,10.606450200008112,10.606450200008112,x,0.7538054999895394,None,,,,,,,,,,,SS_en,001,2025-03-11_22h47.35.642,MainFlow,2024.2.4,143.97314038429627,2025-03-11 22h47.56.196844 +0700,
2,10,1,word/worden0101.png,image/True/img10.png,3,3,0,z,0.5874214000068605,None,0,3,3,3,11.367187900003046,,,,,,,12.873872900003335,12.379974700001185,12.382749199998216,12.382749199998216,12.867516500002239,13.971998100008932,13.971998100008932,z,0.5874214000068605,None,,,,,,,,,,,SS_en,001,2025-03-11_22h47.35.642,MainFlow,2024.2.4,143.97314038429627,2025-03-11 22h47.56.196844 +0700,
2,50,0,word/worden0501.png,image/False/imgf50.png,4,4,0,x,0.5250374000024749,None,0,4,4,4,14.568063800004893,,,,,,,16.074796700006118,15.580513000008068,15.583908900007373,15.583908900007373,16.068501200003084,17.175034300002153,17.175034300002153,x,0.5250374000024749,None,,,,,,,,,,,SS_en,001,2025-03-11_22h47.35.642,MainFlow,2024.2.4,143.97314038429627,2025-03-11 22h47.56.196844 +0700,
2,33,1,word/worden0331.png,image/True/img33.png,5,5,0,z,0.8659526999981608,None,0,5,5,5,17.70625370000198,,,,,,,19.199180399999022,18.70240890000423,18.705181299999822,18.705181299999822,19.193951099994592,20.32278660000884,20.32278660000884,z,0.8659526999981608,None,19.199180399999022,19.199180399999022,20.32278660000884,,,,,,,,SS_en,001,2025-03-11_22h47.35.642,MainFlow,2024.2.4,143.97314038429627,2025-03-11 22h47.56.196844 +0700,
2,95,0,word/worden0951.png,image/False/imgf95.png,6,6,0,x,0.6237185999925714,None,0,6,6,6,21.198667799995746,,,,,,,22.705310500008636,22.21210639999481,22.215475000004517,22.215475000004517,22.698973899998236,23.810469300005934,23.810469300005934,x,0.6237185999925714,None,,,,,,,,,,,SS_en,001,2025-03-11_22h47.35.642,MainFlow,2024.2.4,143.97314038429627,2025-03-11 22h47.56.196844 +0700,
2,7,0,word/worden0071.png,image/False/imgf07.png,7,7,0,x,0.5628660999936983,None,0,7,7,7,24.441059600008884,,,,,,,25.947824700007914,25.45554959999572,25.45890510000754,25.45890510000754,25.941360600001644,27.03675430000294,27.03675430000294,x,0.5628660999936983,None,,,,,,,,,,,SS_en,001,2025-03-11_22h47.35.642,MainFlow,2024.2.4,143.97314038429627,2025-03-11 22h47.56.196844 +0700,
2,28,1,word/worden0281.png,image/True/img28.png,8,8,0,z,0.6009301000012783,None,0,8,8,8,27.607076300002518,,,,,,,29.113913399996818,28.626227700005984,28.62944740000239,28.62944740000239,29.107380500005092,30.236906499994802,30.236906499994802,z,0.6009301000012783,None,,,,,,,,,,,SS_en,001,2025-03-11_22h47.35.642,MainFlow,2024.2.4,143.97314038429627,2025-03-11 22h47.56.196844 +0700,
2,38,1,word/worden0381.png,image/True/img38.png,9,9,0,z,0.6484848999971291,None,0,9,9,9,30.849405800006934,,,,,,,32.35615730000427,31.86385710000468,31.866774399997666,31.866774399997666,32.34971609999775,33.45078050000302,33.45078050000302,z,0.6484848999971291,None,,,,,,,,,,,SS_en,001,2025-03-11_22h47.35.642,MainFlow,2024.2.4,143.97314038429627,2025-03-11 22h47.56.196844 +0700,
2,33,0,word/worden0331.png,image/False/imgf33.png,10,10,0,x,0.5762971000076504,None,0,10,10,10,34.10584899999958,,,,,,,35.598790799995186,35.10409999999683,35.10736330000509,35.10736330000509,35.59374799999932,36.72462120000273,36.72462120000273,x,0.5762971000076504,None,35.598790799995186,35.598790799995186,36.72462120000273,,,,,,,,SS_en,001,2025-03-11_22h47.35.642,MainFlow,2024.2.4,143.97314038429627,2025-03-11 22h47.56.196844 +0700,
2,76,1,word/worden0761.png,image/True/img76.png,11,11,0,z,1.3203460999939125,None,0,11,11,11,37.30673009999737,,,,,,,38.81327470000542,38.31923940000706,38.32273240000359,38.32273240000359,38.80686500000593,39.90979970000626,39.90979970000626,z,1.3203460999939125,None,,,,,,,,,,,SS_en,001,2025-03-11_22h47.35.642,MainFlow,2024.2.4,143.97314038429627,2025-03-11 22h47.56.196844 +0700,
2,75,0,word/worden0751.png,image/False/imgf75.png,12,12,0,x,0.5411055000004126,None,0,12,12,12,41.23643420000735,,,,,,,42.743105400004424,42.24701049999567,42.25027740000223,42.25027740000223,42.73665220000839,43.82458680000855,43.82458680000855,x,0.5411055000004126,None,,,,,,,,,,,SS_en,001,2025-03-11_22h47.35.642,MainFlow,2024.2.4,143.97314038429627,2025-03-11 22h47.56.196844 +0700,
2,7,1,word/worden0071.png,image/True/img07.png,13,13,0,z,0.4850105999939842,None,0,13,13,13,44.374663199996576,,,,,,,45.86771160000353,45.37290210000356,45.376275300004636,45.376275300004636,45.86243989999639,46.98738200000662,46.98738200000662,z,0.4850105999939842,None,45.86771160000353,45.86771160000353,46.98738200000662,,,,,,,,SS_en,001,2025-03-11_22h47.35.642,MainFlow,2024.2.4,143.97314038429627,2025-03-11 22h47.56.196844 +0700,
2,51,1,word/worden0511.png,image/True/img51.png,14,14,0,x,3.383895599996322,None,0,14,14,14,47.4791081000003,,,,,,,48.98507969999628,48.49067189999914,48.49544050000259,48.49544050000259,48.97879190000822,50.08346170000732,50.08346170000732,x,3.383895599996322,None,,,,,,,,,,,SS_en,001,2025-03-11_22h47.35.642,MainFlow,2024.2.4,143.97314038429627,2025-03-11 22h47.56.196844 +0700,
2,59,0,word/worden0591.png,image/False/imgf59.png,15,15,0,x,1.519021200001589,None,0,15,15,15,53.47703779999574,,,,,,,54.98388729999715,54.493479700002354,54.49675040000875,54.49675040000875,54.97766689999844,56.05948120000539,56.05948120000539,x,1.519021200001589,None,,,,,,,,,,,SS_en,001,2025-03-11_22h47.35.642,MainFlow,2024.2.4,143.97314038429627,2025-03-11 22h47.56.196844 +0700,
2,54,0,word/worden0541.png,image/False/imgf54.png,16,16,0,x,1.5529659000021638,None,0,16,16,16,57.587452899999334,,,,,,,59.094139499997254,58.599594800005434,58.603100299995276,58.603100299995276,59.087815300008515,60.1953363000066,60.1953363000066,x,1.5529659000021638,None,,,,,,,,,,,SS_en,001,2025-03-11_22h47.35.642,MainFlow,2024.2.4,143.97314038429627,2025-03-11 22h47.56.196844 +0700,
2,6,1,word/worden0061.png,image/True/img06.png,17,17,0,z,0.5124364999937825,None,0,17,17,17,61.760149299996556,,,,,,,63.26002270000754,62.763457299995935,62.76657449999766,62.76657449999766,63.25408769999922,64.34942080000474,64.34942080000474,z,0.5124364999937825,None,63.26002270000754,63.26002270000754,,,,,,,,,SS_en,001,2025-03-11_22h47.35.642,MainFlow,2024.2.4,143.97314038429627,2025-03-11 22h47.56.196844 +0700,
2,41,1,word/worden0411.png,image/True/img41.png,18,18,0,z,0.6368190000066534,None,0,18,18,18,64.87070040000253,,,,,,,66.37748019999708,65.8850950000051,65.88853379999637,65.88853379999637,66.37106190000486,67.48642349999864,67.48642349999864,z,0.6368190000066534,None,,,,,,,,,,,SS_en,001,2025-03-11_22h47.35.642,MainFlow,2024.2.4,143.97314038429627,2025-03-11 22h47.56.196844 +0700,
2,42,0,word/worden0421.png,image/False/imgf42.png,19,19,0,x,0.5310851000103867,None,0,19,19,19,68.13381470000604,,,,,,,69.64087469999504,69.15363739999884,69.15677810000489,69.15677810000489,69.63456230000884,70.7645773999975,70.7645773999975,x,0.5310851000103867,None,,,69.15677810000489,,,,,,,,SS_en,001,2025-03-11_22h47.35.642,MainFlow,2024.2.4,143.97314038429627,2025-03-11 22h47.56.196844 +0700,
2,64,0,word/worden0641.png,image/False/imgf64.png,20,20,0,x,0.5931396999949357,None,0,20,20,20,71.30681300000288,,,,,,,72.81347660000029,72.31918570000562,72.32230719999643,72.32230719999643,72.80701119999867,73.87705189999542,73.87705189999542,x,0.5931396999949357,None,,,,,,,,,,,SS_en,001,2025-03-11_22h47.35.642,MainFlow,2024.2.4,143.97314038429627,2025-03-11 22h47.56.196844 +0700,
2,96,1,word/worden0961.png,image/True/img96.png,21,21,0,z,0.3829855999938445,None,0,21,21,21,74.48111950000748,,,,,,,75.98676030000206,75.50165269999707,75.50492880000093,75.50492880000093,75.98044200000004,77.08713179999904,77.08713179999904,z,0.3829855999938445,None,,,,,,,,,,,SS_en,001,2025-03-11_22h47.35.642,MainFlow,2024.2.4,143.97314038429627,2025-03-11 22h47.56.196844 +0700,
2,76,0,word/worden0761.png,image/False/imgf76.png,22,22,0,x,0.4270970999932615,None,0,22,22,22,77.48136309999973,,,,,,,78.97213760000886,78.4775066000002,78.48107769999478,78.48107769999478,78.96659160000854,80.10702360000869,80.10702360000869,x,0.4270970999932615,None,78.97213760000886,78.97213760000886,80.10702360000869,,,,,,,,SS_en,001,2025-03-11_22h47.35.642,MainFlow,2024.2.4,143.97314038429627,2025-03-11 22h47.56.196844 +0700,
2,17,1,word/worden0171.png,image/True/img17.png,23,23,0,z,0.4072251000034157,None,0,23,23,23,80.5412049000006,,,,,,,82.048022700008,81.55911560000095,81.56229099999473,81.56229099999473,82.04162780000479,83.1526123000076,83.1526123000076,z,0.4072251000034157,None,,,,,,,,,,,SS_en,001,2025-03-11_22h47.35.642,MainFlow,2024.2.4,143.97314038429627,2025-03-11 22h47.56.196844 +0700,
2,6,1,word/worden0061.png,image/True/img06.png,24,24,0,z,0.5770038000046043,None,0,24,24,24,83.56844830000773,,,,,,,85.06122180000239,84.5626709000062,84.56587310000032,84.56587310000032,85.05542269999569,86.15960600000108,86.15960600000108,z,0.5770038000046043,None,85.06122180000239,85.06122180000239,86.15960600000108,,,,,,,,SS_en,001,2025-03-11_22h47.35.642,MainFlow,2024.2.4,143.97314038429627,2025-03-11 22h47.56.196844 +0700,
2,88,1,word/worden0881.png,image/True/img88.png,25,25,0,z,0.3013685999903828,None,0,25,25,25,86.74824400000216,,,,,,,88.25509970000712,87.77403919999779,87.77710960000695,87.77710960000695,88.24895190000825,89.37616709999566,89.37616709999566,z,0.3013685999903828,None,,,87.77710960000695,,,,,,,,SS_en,001,2025-03-11_22h47.35.642,MainFlow,2024.2.4,143.97314038429627,2025-03-11 22h47.56.196844 +0700,
2,44,1,word/worden0441.png,image/True/img44.png,26,26,0,z,0.37394960000528954,None,0,26,26,26,89.6879731000081,,,,,,,91.18509830000403,90.69234180000785,90.69536300000618,90.69536300000618,91.1798615000007,92.28473590000067,92.28473590000067,z,0.37394960000528954,None,91.18509830000403,91.18509830000403,92.28473590000067,,,,,,,,SS_en,001,2025-03-11_22h47.35.642,MainFlow,2024.2.4,143.97314038429627,2025-03-11 22h47.56.196844 +0700,
2,27,0,word/worden0271.png,image/False/imgf27.png,27,27,0,z,0.3245507999963593,None,0,27,27,27,92.6707075000013,,,,,,,94.16374950000318,93.67019889999938,93.67316720000235,93.67316720000235,94.15795269999944,95.26921220000077,95.26921220000077,z,0.3245507999963593,None,94.16374950000318,94.16374950000318,95.26921220000077,,,,,,,,SS_en,001,2025-03-11_22h47.35.642,MainFlow,2024.2.4,143.97314038429627,2025-03-11 22h47.56.196844 +0700,
2,14,0,word/worden0141.png,image/False/imgf14.png,28,28,0,x,1.2849205000093207,None,0,28,28,28,95.60084379999898,,,,,,,97.10775799999828,96.620548100007,96.62400779999734,96.62400779999734,97.10149770000135,98.20329079999647,98.20329079999647,x,1.2849205000093207,None,,,,,,,,,,,SS_en,001,2025-03-11_22h47.35.642,MainFlow,2024.2.4,143.97314038429627,2025-03-11 22h47.56.196844 +0700,
2,40,0,word/worden0401.png,image/False/imgf40.png,29,29,0,x,0.4617685999983223,None,0,29,29,29,99.49588450000738,,,,,,,101.00264400000742,100.50469080000767,100.50748919999751,100.50748919999751,100.99633480000193,102.0893461999949,102.0893461999949,x,0.4617685999983223,None,,,,,,,,,,,SS_en,001,2025-03-11_22h47.35.642,MainFlow,2024.2.4,143.97314038429627,2025-03-11 22h47.56.196844 +0700,
2,1,0,word/worden0011.png,image/False/imgf01.png,30,30,0,x,0.4985770000057528,None,0,30,30,30,102.55790230000275,,,,,,,104.06463720000465,103.56681240000762,103.57010340000852,103.57010340000852,104.05832730000839,105.1471925000078,105.1471925000078,x,0.4985770000057528,None,,,,,,,,,,,SS_en,001,2025-03-11_22h47.35.642,MainFlow,2024.2.4,143.97314038429627,2025-03-11 22h47.56.196844 +0700,
2,3,0,word/worden0031.png,image/False/imgf03.png,31,31,0,x,0.44945209998695645,None,0,31,31,31,105.6544675000041,,,,,,,107.16109389999474,106.67306370000006,106.67639419999614,106.67639419999614,107.15469280000252,108.25011550000636,108.25011550000636,x,0.44945209998695645,None,,,,,,,,,,,SS_en,001,2025-03-11_22h47.35.642,MainFlow,2024.2.4,143.97314038429627,2025-03-11 22h47.56.196844 +0700,
2,57,1,word/worden0571.png,image/True/img57.png,32,32,0,z,0.40329560000100173,None,0,32,32,32,108.70950050000101,,,,,,,110.21636550000403,109.718446400002,109.72129580000183,109.72129580000183,110.21015870000701,111.31731100000616,111.31731100000616,z,0.40329560000100173,None,,,,,,,,,,,SS_en,001,2025-03-11_22h47.35.642,MainFlow,2024.2.4,143.97314038429627,2025-03-11 22h47.56.196844 +0700,
2,88,0,word/worden0881.png,image/False/imgf88.png,33,33,0,x,0.6395361000031698,None,0,33,33,33,111.73200679999718,,,,,,,113.22946560000128,112.73375899999519,112.73730580000847,112.73730580000847,113.22389969999494,114.34320750000188,114.34320750000188,x,0.6395361000031698,None,113.22946560000128,113.22946560000128,114.34320750000188,,,,,,,,SS_en,001,2025-03-11_22h47.35.642,MainFlow,2024.2.4,143.97314038429627,2025-03-11 22h47.56.196844 +0700,
2,52,0,word/worden0521.png,image/False/imgf52.png,34,34,0,x,0.5684061999927508,None,0,34,34,34,114.9928496000066,,,,,,,116.49958070000866,116.00253610000073,116.00574459999916,116.00574459999916,116.49315979999665,117.58800340000016,117.58800340000016,x,0.5684061999927508,None,,,,,,,,,,,SS_en,001,2025-03-11_22h47.35.642,MainFlow,2024.2.4,143.97314038429627,2025-03-11 22h47.56.196844 +0700,
2,50,0,word/worden0501.png,image/False/imgf50.png,35,35,0,x,0.605317900000955,None,0,35,35,35,118.16869730000326,,,,,,,119.658783699997,119.16041830000177,119.16369450000639,119.16369450000639,119.65349589999823,120.7696372000064,120.7696372000064,x,0.605317900000955,None,119.658783699997,119.658783699997,120.7696372000064,,,,,,,,SS_en,001,2025-03-11_22h47.35.642,MainFlow,2024.2.4,143.97314038429627,2025-03-11 22h47.56.196844 +0700,
2,78,1,word/worden0781.png,image/True/img78.png,36,36,0,z,0.5633500999974785,None,0,36,36,36,121.38315999999759,,,,,,,122.88730420000502,122.39796780000324,122.40123220000532,122.40123220000532,122.88064909999957,123.98789810000744,123.98789810000744,z,0.5633500999974785,None,,,,,,,,,,,SS_en,001,2025-03-11_22h47.35.642,MainFlow,2024.2.4,143.97314038429627,2025-03-11 22h47.56.196844 +0700,
2,61,0,word/worden0611.png,image/False/imgf61.png,37,37,0,x,0.6776382999960333,None,0,37,37,37,124.56047060000128,,,,,,,126.06724830000894,125.57512290000159,125.57840220000071,125.57840220000071,126.06098259999999,127.17574150000291,127.17574150000291,x,0.6776382999960333,None,,,,,,,,,,,SS_en,001,2025-03-11_22h47.35.642,MainFlow,2024.2.4,143.97314038429627,2025-03-11 22h47.56.196844 +0700,
2,36,0,word/worden0361.png,image/False/imgf36.png,38,38,0,x,0.5387773999973433,None,0,38,38,38,127.86527280000155,,,,,,,129.37227690000145,128.87924409999687,128.88251799999853,128.88251799999853,129.3659636000084,130.47224899999856,130.47224899999856,x,0.5387773999973433,None,,,,,,,,,,,SS_en,001,2025-03-11_22h47.35.642,MainFlow,2024.2.4,143.97314038429627,2025-03-11 22h47.56.196844 +0700,
2,10,1,word/worden0101.png,image/True/img10.png,39,39,0,z,0.4251146000024164,None,0,39,39,39,131.01754559999972,,,,,,,132.510254000008,132.01724040000408,132.02055430000473,132.02055430000473,132.5041571000038,133.61972620000597,133.61972620000597,z,0.4251146000024164,None,132.510254000008,132.510254000008,133.61972620000597,,,,,,,,SS_en,001,2025-03-11_22h47.35.642,MainFlow,2024.2.4,143.97314038429627,2025-03-11 22h47.56.196844 +0700,
2,75,1,word/worden0751.png,image/True/img75.png,40,40,0,z,0.499643000002834,None,0,40,40,40,134.0517342999956,,,,,,,135.54449739999836,135.04615130000457,135.04945730000327,135.04945730000327,135.53861190000316,136.6527797000017,136.6527797000017,z,0.499643000002834,None,135.54449739999836,135.54449739999836,136.6527797000017,,,,,,,,SS_en,001,2025-03-11_22h47.35.642,MainFlow,2024.2.4,143.97314038429627,2025-03-11 22h47.56.196844 +0700,
2,1,1,word/worden0011.png,image/True/img01.png,41,41,0,z,0.7106829000113066,None,0,41,41,41,137.16220449999673,,,,,,,138.64806710000266,138.14890830000513,138.1516927000048,138.1516927000048,138.63491000000795,139.78883560000395,139.78883560000395,z,0.7106829000113066,None,138.64103300000716,138.64103300000716,139.78883560000395,,,,,,,,SS_en,001,2025-03-11_22h47.35.642,MainFlow,2024.2.4,143.97314038429627,2025-03-11 22h47.56.196844 +0700,
2,37,1,word/worden0371.png,image/True/img37.png,42,42,0,x,0.7221146999945631,None,0,42,42,42,140.5087513000035,,,,,,,142.00165580000612,141.50691549999465,141.5097744000086,141.5097744000086,141.9961020000046,143.14150589999917,143.14150589999917,x,0.7221146999945631,None,142.00165580000612,142.00165580000612,143.14150589999917,,,,,,,,SS_en,001,2025-03-11_22h47.35.642,MainFlow,2024.2.4,143.97314038429627,2025-03-11 22h47.56.196844 +0700,
2,66,0,word/worden0661.png,image/False/imgf66.png,43,43,0,x,0.5687261999992188,None,0,43,43,43,143.87603519999539,,,,,,,145.38286199999857,144.89084269999876,144.89430179999908,144.89430179999908,145.37648669999908,146.49142140000185,146.49142140000185,x,0.5687261999992188,None,,,,,,,,,,,SS_en,001,2025-03-11_22h47.35.642,MainFlow,2024.2.4,143.97314038429627,2025-03-11 22h47.56.196844 +0700,
2,55,1,word/worden0551.png,image/True/img55.png,44,44,0,z,0.39435580000281334,None,0,44,44,44,147.0701168999949,,,,,,,148.57676609999908,148.08864549999998,148.09192540000367,148.09192540000367,148.57041230000323,149.68766930000857,149.68766930000857,z,0.39435580000281334,None,,,,,,,,,,,SS_en,001,2025-03-11_22h47.35.642,MainFlow,2024.2.4,143.97314038429627,2025-03-11 22h47.56.196844 +0700,
2,70,0,word/worden0701.png,image/False/imgf70.png,45,45,0,x,0.42114600000786595,None,0,45,45,45,150.09024590000627,,,,,,,151.59693200000038,151.1020256000047,151.1051310000039,151.1051310000039,151.59058849999565,152.68480580000323,152.68480580000323,x,0.42114600000786595,None,,,,,,,,,,,SS_en,001,2025-03-11_22h47.35.642,MainFlow,2024.2.4,143.97314038429627,2025-03-11 22h47.56.196844 +0700,
2,68,0,word/worden0681.png,image/False/imgf68.png,46,46,0,x,0.5633985999884317,None,0,46,46,46,153.11729399999604,,,,,,,154.61713890000829,154.1254454000009,154.12868769999477,154.12868769999477,154.61356810000143,155.69520299999567,155.69520299999567,x,0.5633985999884317,None,,,,,,,,,,,SS_en,001,2025-03-11_22h47.35.642,MainFlow,2024.2.4,143.97314038429627,2025-03-11 22h47.56.196844 +0700,
2,75,1,word/worden0751.png,image/True/img75.png,47,47,0,z,0.4021723000041675,None,0,47,47,47,156.27140990000044,,,,,,,157.76258540000708,157.26363820000552,157.26651950000087,157.26651950000087,157.7501912000007,158.87920540000778,158.87920540000778,z,0.4021723000041675,None,157.7554983000009,157.7554983000009,158.87920540000778,,,,,,,,SS_en,001,2025-03-11_22h47.35.642,MainFlow,2024.2.4,143.97314038429627,2025-03-11 22h47.56.196844 +0700,
2,38,1,word/worden0381.png,image/True/img38.png,48,48,0,z,0.38029780000215396,None,0,48,48,48,159.28979029999755,,,,,,,160.77567499999714,160.27711389999604,160.2798466999957,160.2798466999957,160.77003500000865,161.88294569999562,161.88294569999562,z,0.38029780000215396,None,160.77567499999714,160.77567499999714,161.88294569999562,,,,,,,,SS_en,001,2025-03-11_22h47.35.642,MainFlow,2024.2.4,143.97314038429627,2025-03-11 22h47.56.196844 +0700,
2,42,1,word/worden0421.png,image/True/img42.png,49,49,0,z,0.698208900008467,None,0,49,49,49,162.27547670000058,,,,,,,163.76826559999608,163.27063280000584,163.27354560000822,163.27354560000822,163.76311620000342,164.89375550000113,164.89375550000113,z,0.698208900008467,None,163.76826559999608,163.76826559999608,164.89375550000113,,,,,,,,SS_en,001,2025-03-11_22h47.35.642,MainFlow,2024.2.4,143.97314038429627,2025-03-11 22h47.56.196844 +0700,
2,11,0,word/worden0111.png,image/False/imgf11.png,50,50,0,x,1.4365088000049582,None,0,50,50,50,165.60108860000037,,,,,,,167.10778570000548,166.6210168999969,166.62453030000324,166.62453030000324,167.10135539999465,168.22763809999742,168.22763809999742,x,1.4365088000049582,None,,,,,,,,,,,SS_en,001,2025-03-11_22h47.35.642,MainFlow,2024.2.4,143.97314038429627,2025-03-11 22h47.56.196844 +0700,
2,41,0,word/worden0411.png,image/False/imgf41.png,51,51,0,x,5.656071999997948,None,0,51,51,51,169.67156550000072,,,,,,,171.17646230000537,170.67700550000882,170.68059879999782,170.68059879999782,171.17004330000782,172.241989800008,172.241989800008,x,5.656071999997948,None,,,170.68059879999782,,,,,,,,SS_en,001,2025-03-11_22h47.35.642,MainFlow,2024.2.4,143.97314038429627,2025-03-11 22h47.56.196844 +0700,
2,82,1,word/worden0821.png,image/True/img82.png,52,52,0,z,0.6841652000002796,None,0,52,52,52,177.90492139999697,,,,,,,179.40408170000592,178.91111220000312,178.91453680000268,178.91453680000268,179.39886270000716,180.48701260000234,180.48701260000234,z,0.6841652000002796,None,179.40408170000592,179.40408170000592,,,,,,,,,SS_en,001,2025-03-11_22h47.35.642,MainFlow,2024.2.4,143.97314038429627,2025-03-11 22h47.56.196844 +0700,
2,88,0,word/worden0881.png,image/False/imgf88.png,53,53,0,x,1.1597501000069315,None,0,53,53,53,181.18130910000764,,,,,,,182.67445990000851,182.17847240000265,182.1818978000083,182.1818978000083,182.66877830000885,183.77979739999864,183.77979739999864,x,1.1597501000069315,None,182.67445990000851,182.67445990000851,183.77979739999864,,,,,,,,SS_en,001,2025-03-11_22h47.35.642,MainFlow,2024.2.4,143.97314038429627,2025-03-11 22h47.56.196844 +0700,
2,8,1,word/worden0081.png,image/True/img08.png,54,54,0,x,0.6505316000111634,None,0,54,54,54,184.95141940000758,,,,,,,186.45846589999564,185.96853120000742,185.97178089999943,185.97178089999943,186.4520923999953,187.53936940000858,187.53936940000858,x,0.6505316000111634,None,,,,,,,,,,,SS_en,001,2025-03-11_22h47.35.642,MainFlow,2024.2.4,143.97314038429627,2025-03-11 22h47.56.196844 +0700,
2,16,0,word/worden0161.png,image/False/imgf16.png,55,55,0,x,1.7268065999960527,None,0,55,55,55,188.20079160000023,,,,,,,189.70767269999487,189.22470930000418,189.22800020000432,189.22800020000432,189.70127059999504,190.82550289999926,190.82550289999926,x,1.7268065999960527,None,,,,,,,,,,,SS_en,001,2025-03-11_22h47.35.642,MainFlow,2024.2.4,143.97314038429627,2025-03-11 22h47.56.196844 +0700,
2,10,0,word/worden0101.png,image/False/imgf10.png,56,56,0,x,0.5280568000016501,None,0,56,56,56,192.56114800000796,,,,,,,194.06096499999694,193.56775339999876,193.57142380000732,193.57142380000732,194.05522049999854,195.15977110000676,195.15977110000676,x,0.5280568000016501,None,194.06096499999694,194.06096499999694,,,,,,,,,SS_en,001,2025-03-11_22h47.35.642,MainFlow,2024.2.4,143.97314038429627,2025-03-11 22h47.56.196844 +0700,
2,76,0,word/worden0761.png,image/False/imgf76.png,57,57,0,x,0.45456369999737944,None,0,57,57,57,195.6993094000063,,,,,,,197.19925330000115,196.70100080000702,196.70457570000144,196.70457570000144,197.19396250000864,198.33401890000096,198.33401890000096,x,0.45456369999737944,None,197.19925330000115,197.19925330000115,,,,,,,,,SS_en,001,2025-03-11_22h47.35.642,MainFlow,2024.2.4,143.97314038429627,2025-03-11 22h47.56.196844 +0700,
2,42,1,word/worden0421.png,image/True/img42.png,58,58,0,z,0.41057659999933094,None,0,58,58,58,198.79702220000036,,,,,,,200.29574450000655,199.79653400000825,199.79998150000756,199.79998150000756,200.29001779999817,201.4129138999997,201.4129138999997,z,0.41057659999933094,None,200.29574450000655,200.29574450000655,201.4129138999997,,,,,,,,SS_en,001,2025-03-11_22h47.35.642,MainFlow,2024.2.4,143.97314038429627,2025-03-11 22h47.56.196844 +0700,
2,26,0,word/worden0261.png,image/False/imgf26.png,59,59,0,x,5.630594400005066,None,0,59,59,59,201.8302171999967,,,,,,,203.3161611999967,202.82398119999561,202.82687050000823,202.82687050000823,203.31095139999525,204.44786539999768,204.44786539999768,x,5.630594400005066,None,203.3161611999967,203.3161611999967,204.44786539999768,,,,,,,,SS_en,001,2025-03-11_22h47.35.642,MainFlow,2024.2.4,143.97314038429627,2025-03-11 22h47.56.196844 +0700,
2,26,1,word/worden0261.png,image/True/img26.png,60,60,0,x,3.4958886000094935,None,0,60,60,60,210.08554870000808,,,,,,,211.57142730000487,211.07881390000694,211.08209930000885,211.08209930000885,211.56614009999612,212.7080081000022,212.7080081000022,x,3.4958886000094935,None,211.57142730000487,211.57142730000487,212.7080081000022,,,,,,,,SS_en,001,2025-03-11_22h47.35.642,MainFlow,2024.2.4,143.97314038429627,2025-03-11 22h47.56.196844 +0700,
2,48,1,word/worden0481.png,image/True/img48.png,61,61,0,z,0.4841974000009941,None,0,61,61,61,216.21615510000265,,,,,,,217.72309120000864,217.2335996000038,217.23666799999774,217.23666799999774,217.7167244000011,218.8184509999992,218.8184509999992,z,0.4841974000009941,None,,,,,,,,,,,SS_en,001,2025-03-11_22h47.35.642,MainFlow,2024.2.4,143.97314038429627,2025-03-11 22h47.56.196844 +0700,
2,71,0,word/worden0711.png,image/False/imgf71.png,62,62,0,z,0.3270951000013156,None,0,62,62,62,219.31286030000774,,,,,,,220.81968909999705,220.3285964999959,220.33173730000271,220.33173730000271,220.81295190000674,221.94859699999506,221.94859699999506,z,0.3270951000013156,None,,,,,,,,,,,SS_en,001,2025-03-11_22h47.35.642,MainFlow,2024.2.4,143.97314038429627,2025-03-11 22h47.56.196844 +0700,
2,93,1,word/worden0931.png,image/True/img93.png,63,63,0,z,0.4402360999956727,None,0,63,63,63,222.28460510000878,,,,,,,223.7773079000035,223.282893399999,223.28613920000498,223.28613920000498,223.77117239999643,224.87728590000188,224.87728590000188,z,0.4402360999956727,None,223.7773079000035,223.7773079000035,224.87728590000188,,,,,,,,SS_en,001,2025-03-11_22h47.35.642,MainFlow,2024.2.4,143.97314038429627,2025-03-11 22h47.56.196844 +0700,
2,51,1,word/worden0511.png,image/True/img51.png,64,64,0,z,1.223872600006871,None,0,64,64,64,225.32560440000088,,,,,,,226.81870390000404,226.32029459999467,226.3234264000057,226.3234264000057,226.81255919999967,227.93129049999698,227.93129049999698,z,1.223872600006871,None,226.81870390000404,226.81870390000404,227.93129049999698,,,,,,,,SS_en,001,2025-03-11_22h47.35.642,MainFlow,2024.2.4,143.97314038429627,2025-03-11 22h47.56.196844 +0700,
2,78,0,word/worden0781.png,image/False/imgf78.png,65,65,0,x,0.6925225000013597,None,0,65,65,65,229.16710740000417,,,,,,,230.66520260000834,230.1694470000075,230.17283779999707,230.17283779999707,230.65895270000328,231.75946790000307,231.75946790000307,x,0.6925225000013597,None,230.66520260000834,230.66520260000834,231.75946790000307,,,,,,,,SS_en,001,2025-03-11_22h47.35.642,MainFlow,2024.2.4,143.97314038429627,2025-03-11 22h47.56.196844 +0700,
2,64,0,word/worden0641.png,image/False/imgf64.png,66,66,0,x,0.5999604999960866,None,0,66,66,66,232.46310140000423,,,,,,,233.9559975000011,233.46258740000485,233.4660062000039,233.4660062000039,233.9501670000027,235.03435940000054,235.03435940000054,x,0.5999604999960866,None,233.9559975000011,233.9559975000011,235.03435940000054,,,,,,,,SS_en,001,2025-03-11_22h47.35.642,MainFlow,2024.2.4,143.97314038429627,2025-03-11 22h47.56.196844 +0700,
2,68,1,word/worden0681.png,image/True/img68.png,67,67,0,z,0.9380555999960052,None,0,67,67,67,235.6430141000019,,,,,,,237.1290571999998,236.63685930000793,236.64006099999824,236.64006099999824,237.12382269999944,238.2040740999946,238.2040740999946,z,0.9380555999960052,None,237.1290571999998,237.1290571999998,238.2040740999946,,,,,,,,SS_en,001,2025-03-11_22h47.35.642,MainFlow,2024.2.4,143.97314038429627,2025-03-11 22h47.56.196844 +0700,
2,57,0,word/worden0571.png,image/False/imgf57.png,68,68,0,x,10.925858999995398,None,0,68,68,68,239.14940910000587,,,,,,,240.64923830000043,240.15374190000875,240.15731910000613,240.15731910000613,240.64358760000323,241.76314530000673,241.76314530000673,x,10.925858999995398,None,240.64923830000043,240.64923830000043,,,,,,,,,SS_en,001,2025-03-11_22h47.35.642,MainFlow,2024.2.4,143.97314038429627,2025-03-11 22h47.56.196844 +0700,
2,31,0,word/worden0311.png,image/False/imgf31.png,69,69,0,x,2.6095891000004485,None,0,69,69,69,252.69667530000152,,,,,,,254.2020341000025,253.71069540000462,253.71397310000611,253.71397310000611,254.1957662000059,255.27839140000287,255.27839140000287,x,2.6095891000004485,None,,,,,,,,,,,SS_en,001,2025-03-11_22h47.35.642,MainFlow,2024.2.4,143.97314038429627,2025-03-11 22h47.56.196844 +0700,
2,31,0,word/worden0311.png,image/False/imgf31.png,70,70,0,x,1.0987189000006765,None,0,70,70,70,257.89568050000526,,,,,,,259.39542020000226,258.8993383000052,258.90321050000784,258.90321050000784,259.38969150000776,260.4484456000064,260.4484456000064,x,1.0987189000006765,None,259.39542020000226,259.39542020000226,,,,,,,,,SS_en,001,2025-03-11_22h47.35.642,MainFlow,2024.2.4,143.97314038429627,2025-03-11 22h47.56.196844 +0700,
2,55,1,word/worden0551.png,image/True/img55.png,71,71,0,z,0.6704107999976259,None,0,71,71,71,261.55479330000526,,,,,,,263.0478695000056,262.549328100009,262.55273569999554,262.55273569999554,263.0425740000064,264.1739238000009,264.1739238000009,z,0.6704107999976259,None,263.0478695000056,263.0478695000056,264.1739238000009,,,,,,,,SS_en,001,2025-03-11_22h47.35.642,MainFlow,2024.2.4,143.97314038429627,2025-03-11 22h47.56.196844 +0700,
2,36,1,word/worden0361.png,image/True/img36.png,72,72,0,z,0.7821807000000263,None,0,72,72,72,264.8525293999992,,,,,,,266.34551480000664,265.85299709999526,265.856700999997,265.856700999997,266.3398645999987,267.44519490000675,267.44519490000675,z,0.7821807000000263,None,266.34551480000664,266.34551480000664,267.44519490000675,,,,,,,,SS_en,001,2025-03-11_22h47.35.642,MainFlow,2024.2.4,143.97314038429627,2025-03-11 22h47.56.196844 +0700,
2,8,0,word/worden0081.png,image/False/imgf08.png,73,73,0,x,0.5111166999995476,None,0,73,73,73,268.2338954000006,,,,,,,269.7338449999952,269.23577769999974,269.2394195000088,269.2394195000088,269.72861849999754,270.82187169999816,270.82187169999816,x,0.5111166999995476,None,269.7338449999952,269.7338449999952,,,,,,,,,SS_en,001,2025-03-11_22h47.35.642,MainFlow,2024.2.4,143.97314038429627,2025-03-11 22h47.56.196844 +0700,
2,82,0,word/worden0821.png,image/False/imgf82.png,74,74,0,x,0.9549062999867601,None,0,74,74,74,271.3464504000003,,,,,,,272.8440472000075,272.3447529999976,272.3482875000045,272.3482875000045,272.8378647000063,273.95553170000494,273.95553170000494,x,0.9549062999867601,None,272.8440472000075,272.8440472000075,,,,,,,,,SS_en,001,2025-03-11_22h47.35.642,MainFlow,2024.2.4,143.97314038429627,2025-03-11 22h47.56.196844 +0700,
2,14,0,word/worden0141.png,image/False/imgf14.png,75,75,0,x,0.6145770000002813,None,0,75,75,75,274.92008710000664,,,,,,,276.4128694999963,275.9185071999964,275.9218338000064,275.9218338000064,276.4069271000044,277.52424070000416,277.52424070000416,x,0.6145770000002813,None,276.4128694999963,276.4128694999963,277.52424070000416,,,,,,,,SS_en,001,2025-03-11_22h47.35.642,MainFlow,2024.2.4,143.97314038429627,2025-03-11 22h47.56.196844 +0700,
2,71,1,word/worden0711.png,image/True/img71.png,76,76,0,z,0.597482699988177,None,0,76,76,76,278.1487927999988,,,,,,,279.64161530000274,279.1449433000089,279.1481747000071,279.1481747000071,279.6363054999965,280.7668369000021,280.7668369000021,z,0.597482699988177,None,279.64161530000274,279.64161530000274,280.7668369000021,,,,,,,,SS_en,001,2025-03-11_22h47.35.642,MainFlow,2024.2.4,143.97314038429627,2025-03-11 22h47.56.196844 +0700,
2,22,0,word/worden0221.png,image/False/imgf22.png,77,77,0,x,0.5106672999972943,None,0,77,77,77,281.3728487000044,,,,,,,282.8772570000001,282.3891505000065,282.39251600000716,282.39251600000716,282.8710080000019,283.99619469999743,283.99619469999743,x,0.5106672999972943,None,,,282.39251600000716,,,,,,,,SS_en,001,2025-03-11_22h47.35.642,MainFlow,2024.2.4,143.97314038429627,2025-03-11 22h47.56.196844 +0700,
2,78,1,word/worden0781.png,image/True/img78.png,78,78,0,z,0.3291581999947084,None,0,78,78,78,284.51724220000324,,,,,,,286.00884049999877,285.51069819999975,285.51409130000684,285.51409130000684,286.00322500000766,287.10991320000903,287.10991320000903,z,0.3291581999947084,None,286.00884049999877,286.00884049999877,287.10991320000903,,,,,,,,SS_en,001,2025-03-11_22h47.35.642,MainFlow,2024.2.4,143.97314038429627,2025-03-11 22h47.56.196844 +0700,
2,51,0,word/worden0511.png,image/False/imgf51.png,79,79,0,x,0.7530235000012908,None,0,79,79,79,287.4454479999986,,,,,,,288.9452997000044,288.44599860000017,288.44945690000895,288.44945690000895,288.9397456000006,290.04812000000675,290.04812000000675,x,0.7530235000012908,None,288.9452997000044,288.9452997000044,,,,,,,,,SS_en,001,2025-03-11_22h47.35.642,MainFlow,2024.2.4,143.97314038429627,2025-03-11 22h47.56.196844 +0700,
2,56,1,word/worden0561.png,image/True/img56.png,80,80,0,z,0.5452339000039501,None,0,80,80,80,290.8128880000004,,,,,,,292.31967460000305,291.8293909000058,291.83212210000784,291.83212210000784,292.3131968000089,293.40969650000625,293.40969650000625,z,0.5452339000039501,None,,,,,,,,,,,SS_en,001,2025-03-11_22h47.35.642,MainFlow,2024.2.4,143.97314038429627,2025-03-11 22h47.56.196844 +0700,
2,60,1,word/worden0601.png,image/True/img60.png,81,81,0,z,0.2649687999946764,None,0,81,81,81,293.96511550000287,,,,,,,295.4717210999952,294.9799955000053,294.98316550000163,294.98316550000163,295.4653830000025,296.56108110000787,296.56108110000787,z,0.2649687999946764,None,,,,,,,,,,,SS_en,001,2025-03-11_22h47.35.642,MainFlow,2024.2.4,143.97314038429627,2025-03-11 22h47.56.196844 +0700,
2,96,0,word/worden0961.png,image/False/imgf96.png,82,82,0,z,0.3631424000050174,None,0,82,82,82,296.8324406000029,,,,,,,298.3185417000059,297.8198310000007,297.82259989999875,297.82259989999875,298.30617120000534,299.43586149999464,299.43586149999464,z,0.3631424000050174,None,298.3115419999958,298.3115419999958,299.43586149999464,,,,,,,,SS_en,001,2025-03-11_22h47.35.642,MainFlow,2024.2.4,143.97314038429627,2025-03-11 22h47.56.196844 +0700,
2,3,0,word/worden0031.png,image/False/imgf03.png,83,83,0,x,0.6187199999985751,None,0,83,83,83,299.811005399999,,,,,,,301.3110044000059,300.8146235000022,300.81815690000076,300.81815690000076,301.30576519999886,302.41660270000284,302.41660270000284,x,0.6187199999985751,None,301.3110044000059,301.3110044000059,,,,,,,,,SS_en,001,2025-03-11_22h47.35.642,MainFlow,2024.2.4,143.97314038429627,2025-03-11 22h47.56.196844 +0700,
2,55,0,word/worden0551.png,image/False/imgf55.png,84,84,0,x,0.719351399995503,None,0,84,84,84,303.04647580000164,,,,,,,304.5394423999969,304.04041940000025,304.0437168000062,304.0437168000062,304.53425169999537,305.6455600000045,305.6455600000045,x,0.719351399995503,None,304.5394423999969,304.5394423999969,305.6455600000045,,,,,,,,SS_en,001,2025-03-11_22h47.35.642,MainFlow,2024.2.4,143.97314038429627,2025-03-11 22h47.56.196844 +0700,
2,71,1,word/worden0711.png,image/True/img71.png,85,85,0,z,0.39729979999538045,None,0,85,85,85,306.37244030000875,,,,,,,307.86510969999654,307.36859909999475,307.371822400004,307.371822400004,307.85970470000757,308.9955600999965,308.9955600999965,z,0.39729979999538045,None,307.86510969999654,307.86510969999654,308.9955600999965,,,,,,,,SS_en,001,2025-03-11_22h47.35.642,MainFlow,2024.2.4,143.97314038429627,2025-03-11 22h47.56.196844 +0700,
2,3,1,word/worden0031.png,image/True/img03.png,86,86,0,x,0.5704029000044102,None,0,86,86,86,309.40089380000427,,,,,,,310.8855138000072,310.3874913000036,310.3901981999952,310.3901981999952,310.8796432999952,312.00198870000895,312.00198870000895,x,0.5704029000044102,None,310.8855138000072,310.8855138000072,312.00198870000895,,,,,,,,SS_en,001,2025-03-11_22h47.35.642,MainFlow,2024.2.4,143.97314038429627,2025-03-11 22h47.56.196844 +0700,
2,52,1,word/worden0521.png,image/True/img52.png,87,87,0,z,0.41012239998963196,None,0,87,87,87,312.57944190000126,,,,,,,314.07245639999746,313.574635099998,313.5779837000009,313.5779837000009,314.06681010000466,315.190056300009,315.190056300009,z,0.41012239998963196,None,314.07245639999746,314.07245639999746,315.190056300009,,,,,,,,SS_en,001,2025-03-11_22h47.35.642,MainFlow,2024.2.4,143.97314038429627,2025-03-11 22h47.56.196844 +0700,
2,95,0,word/worden0951.png,image/False/imgf95.png,88,88,0,x,0.5362571000005119,None,0,88,88,88,315.60662859999866,,,,,,,317.0995174999989,316.6054151999997,316.6086561999982,316.6086561999982,317.0943879999977,318.2226454000047,318.2226454000047,x,0.5362571000005119,None,317.0995174999989,317.0995174999989,318.2226454000047,,,,,,,,SS_en,001,2025-03-11_22h47.35.642,MainFlow,2024.2.4,143.97314038429627,2025-03-11 22h47.56.196844 +0700,
2,6,0,word/worden0061.png,image/False/imgf06.png,89,89,0,x,0.9254441000084626,None,0,89,89,89,318.765876999998,,,,,,,320.26558320000186,319.76936420000857,319.77297560000443,319.77297560000443,320.25998360000085,321.3506500000076,321.3506500000076,x,0.9254441000084626,None,320.26558320000186,320.26558320000186,,,,,,,,,SS_en,001,2025-03-11_22h47.35.642,MainFlow,2024.2.4,143.97314038429627,2025-03-11 22h47.56.196844 +0700,
2,79,1,word/worden0791.png,image/True/img79.png,90,90,0,z,0.40393200000107754,None,0,90,90,90,322.28703200000746,,,,,,,323.79274659999646,323.2989060999971,323.30222690000664,323.30222690000664,323.78652259999944,324.9011346000043,324.9011346000043,z,0.40393200000107754,None,,,,,,,,,,,SS_en,001,2025-03-11_22h47.35.642,MainFlow,2024.2.4,143.97314038429627,2025-03-11 22h47.56.196844 +0700,
2,61,0,word/worden0611.png,image/False/imgf61.png,91,91,0,x,0.45404620000044815,None,0,91,91,91,325.3160965999996,,,,,,,326.8062130000035,326.31102850000025,326.3146030000062,326.3146030000062,326.8008717000048,327.9247497000033,327.9247497000033,x,0.45404620000044815,None,326.8062130000035,326.8062130000035,327.9247497000033,,,,,,,,SS_en,001,2025-03-11_22h47.35.642,MainFlow,2024.2.4,143.97314038429627,2025-03-11 22h47.56.196844 +0700,
2,46,0,word/worden0461.png,image/False/imgf46.png,92,92,0,x,0.47710479999659583,None,0,92,92,92,328.38875919999555,,,,,,,329.89581600000383,329.4098270999966,329.41304860000673,329.41304860000673,329.889522700003,331.022464099995,331.022464099995,x,0.47710479999659583,None,,,329.41304860000673,,,,,,,,SS_en,001,2025-03-11_22h47.35.642,MainFlow,2024.2.4,143.97314038429627,2025-03-11 22h47.56.196844 +0700,
2,89,1,word/worden0891.png,image/True/img89.png,93,93,0,z,0.5281740999926114,None,0,93,93,93,331.50626880000345,,,,,,,333.01309580000816,332.51716030000534,332.520239400008,332.520239400008,333.00670700000774,334.10404109999945,334.10404109999945,z,0.5281740999926114,None,,,,,,,,,,,SS_en,001,2025-03-11_22h47.35.642,MainFlow,2024.2.4,143.97314038429627,2025-03-11 22h47.56.196844 +0700,
2,26,0,word/worden0261.png,image/False/imgf26.png,94,94,0,z,1.905274200005806,None,0,94,94,94,334.6446250000008,,,,,,,336.13744780000707,335.6397763999994,335.6430865000002,335.6430865000002,336.13163570000324,337.280674499998,337.280674499998,z,1.905274200005806,None,336.13744780000707,336.13744780000707,337.280674499998,,,,,,,,SS_en,001,2025-03-11_22h47.35.642,MainFlow,2024.2.4,143.97314038429627,2025-03-11 22h47.56.196844 +0700,
2,44,0,word/worden0441.png,image/False/imgf44.png,95,95,0,x,0.43030239999643527,None,0,95,95,95,339.1949550999998,,,,,,,340.67833310000424,340.18339910000213,340.18617509999603,340.18617509999603,340.67301929999667,341.82029400000465,341.82029400000465,x,0.43030239999643527,None,340.67833310000424,340.67833310000424,341.82029400000465,,,,,,,,SS_en,001,2025-03-11_22h47.35.642,MainFlow,2024.2.4,143.97314038429627,2025-03-11 22h47.56.196844 +0700,
2,82,1,word/worden0821.png,image/True/img82.png,96,96,0,x,0.6180885000067065,None,0,96,96,96,342.2613471000077,,,,,,,343.753959099995,343.2567643000075,343.2595430000074,343.2595430000074,343.74826100000064,344.8458920999983,344.8458920999983,x,0.6180885000067065,None,343.753959099995,343.753959099995,344.8458920999983,,,,,,,,SS_en,001,2025-03-11_22h47.35.642,MainFlow,2024.2.4,143.97314038429627,2025-03-11 22h47.56.196844 +0700,
2,16,1,word/worden0161.png,image/True/img16.png,97,97,0,z,0.6181753999990178,None,0,97,97,97,345.4759086999984,,,,,,,346.96882419999747,346.4716372999974,346.4752376999968,346.4752376999968,346.96307919999526,348.09429370000726,348.09429370000726,z,0.6181753999990178,None,346.96882419999747,346.96882419999747,348.09429370000726,,,,,,,,SS_en,001,2025-03-11_22h47.35.642,MainFlow,2024.2.4,143.97314038429627,2025-03-11 22h47.56.196844 +0700,
2,20,1,word/worden0201.png,image/True/img20.png,98,98,0,z,0.5639576999965357,None,0,98,98,98,348.725185400006,,,,,,,350.2319659000059,349.74110840000503,349.74419179999677,349.74419179999677,350.22569980000844,351.33886649999477,351.33886649999477,z,0.5639576999965357,None,,,,,,,,,,,SS_en,001,2025-03-11_22h47.35.642,MainFlow,2024.2.4,143.97314038429627,2025-03-11 22h47.56.196844 +0700,
2,20,1,word/worden0201.png,image/True/img20.png,99,99,0,z,0.464901600003941,None,0,99,99,99,351.9121419000003,,,,,,,353.41187110000465,352.9153629000066,352.91890879999846,352.91890879999846,353.40603500000725,354.5316116000031,354.5316116000031,z,0.464901600003941,None,353.41187110000465,353.41187110000465,,,,,,,,,SS_en,001,2025-03-11_22h47.35.642,MainFlow,2024.2.4,143.97314038429627,2025-03-11 22h47.56.196844 +0700,
2,96,1,word/worden0961.png,image/True/img96.png,100,100,0,z,0.48702010000124574,None,0,100,100,100,355.00891990000673,,,,,,,356.5084838000039,356.0109742000059,356.01448650000384,356.01448650000384,356.5022428000084,357.61353270000836,357.61353270000836,z,0.48702010000124574,None,356.5084838000039,356.5084838000039,,,,,,,,,SS_en,001,2025-03-11_22h47.35.642,MainFlow,2024.2.4,143.97314038429627,2025-03-11 22h47.56.196844 +0700,
2,64,1,word/worden0641.png,image/True/img64.png,101,101,0,z,0.3861739999993006,None,0,101,101,101,358.1162670000049,,,,,,,359.61207679999643,359.1170213000005,359.1204337999952,359.1204337999952,359.6064384000056,360.7000369000016,360.7000369000016,z,0.3861739999993006,None,359.61207679999643,359.61207679999643,360.7000369000016,,,,,,,,SS_en,001,2025-03-11_22h47.35.642,MainFlow,2024.2.4,143.97314038429627,2025-03-11 22h47.56.196844 +0700,
2,78,0,word/worden0781.png,image/False/imgf78.png,102,102,0,x,0.5251190999988467,None,0,102,102,102,361.0979238,,,,,,,362.5909399000084,362.09409450000385,362.09741940000094,362.09741940000094,362.58555570000317,363.6858513000043,363.6858513000043,x,0.5251190999988467,None,362.5909399000084,362.5909399000084,363.6858513000043,,,,,,,,SS_en,001,2025-03-11_22h47.35.642,MainFlow,2024.2.4,143.97314038429627,2025-03-11 22h47.56.196844 +0700,
2,20,0,word/worden0201.png,image/False/imgf20.png,103,103,0,x,0.4761062000034144,None,0,103,103,103,364.2222490999993,,,,,,,365.71524400000635,365.2193408000021,365.22262359999877,365.22262359999877,365.7093412999966,366.87042390000715,366.87042390000715,x,0.4761062000034144,None,365.71524400000635,365.71524400000635,366.87042390000715,,,,,,,,SS_en,001,2025-03-11_22h47.35.642,MainFlow,2024.2.4,143.97314038429627,2025-03-11 22h47.56.196844 +0700,
2,89,1,word/worden0891.png,image/True/img89.png,104,104,0,z,0.33820050000213087,None,0,104,104,104,367.353626600001,,,,,,,368.8533310000057,368.3555200999981,368.35908959999506,368.35908959999506,368.8477069000073,369.9385289000056,369.9385289000056,z,0.33820050000213087,None,368.8533310000057,368.8533310000057,,,,,,,,,SS_en,001,2025-03-11_22h47.35.642,MainFlow,2024.2.4,143.97314038429627,2025-03-11 22h47.56.196844 +0700,
2,59,0,word/worden0591.png,image/False/imgf59.png,105,105,0,x,2.4837871000054292,None,0,105,105,105,370.2835988000006,,,,,,,371.7764920000045,371.28183480000007,371.2851765999949,371.2851765999949,371.7711319000082,372.8444107999967,372.8444107999967,x,2.4837871000054292,None,371.7764920000045,371.7764920000045,372.8444107999967,,,,,,,,SS_en,001,2025-03-11_22h47.35.642,MainFlow,2024.2.4,143.97314038429627,2025-03-11 22h47.56.196844 +0700,
2,24,0,word/worden0241.png,image/False/imgf24.png,106,106,0,x,0.565246300000581,None,0,106,106,106,375.3394496999972,,,,,,,376.84486159999506,376.3499840000004,376.3533252000052,376.3533252000052,376.8386352999951,377.94250000000466,377.94250000000466,x,0.565246300000581,None,,,,,,,,,,,SS_en,001,2025-03-11_22h47.35.642,MainFlow,2024.2.4,143.97314038429627,2025-03-11 22h47.56.196844 +0700,
2,28,0,word/worden0281.png,image/False/imgf28.png,107,107,0,x,0.5035422000073595,None,0,107,107,107,378.5182608000032,,,,,,,380.0109051000036,379.5136594000069,379.51690410000447,379.51690410000447,380.0052859999996,381.1202103999967,381.1202103999967,x,0.5035422000073595,None,380.0109051000036,380.0109051000036,381.1202103999967,,,,,,,,SS_en,001,2025-03-11_22h47.35.642,MainFlow,2024.2.4,143.97314038429627,2025-03-11 22h47.56.196844 +0700,
2,15,0,word/worden0151.png,image/False/imgf15.png,108,108,0,x,0.5866634999983944,None,0,108,108,108,381.6355728000053,,,,,,,383.1425232000038,382.64570500000264,382.6489852999948,382.6489852999948,383.1359398000059,384.23563229999854,384.23563229999854,x,0.5866634999983944,None,,,,,,,,,,,SS_en,001,2025-03-11_22h47.35.642,MainFlow,2024.2.4,143.97314038429627,2025-03-11 22h47.56.196844 +0700,
2,30,1,word/worden0301.png,image/True/img30.png,109,109,0,z,0.7190696999896318,None,0,109,109,109,384.83140910000657,,,,,,,386.3292860000074,385.8354585000052,385.83822040000814,385.83822040000814,386.3235111999966,387.4261971000087,387.4261971000087,z,0.7190696999896318,None,386.3292860000074,386.3292860000074,,,,,,,,,SS_en,001,2025-03-11_22h47.35.642,MainFlow,2024.2.4,143.97314038429627,2025-03-11 22h47.56.196844 +0700,
2,64,1,word/worden0641.png,image/True/img64.png,110,110,0,z,0.33520380000118166,None,0,110,110,110,388.15578950000054,,,,,,,389.6549034000054,389.15648180000426,389.1598834000033,389.1598834000033,389.6496795999992,390.7311123999971,390.7311123999971,z,0.33520380000118166,None,389.6549034000054,389.6549034000054,,,,,,,,,SS_en,001,2025-03-11_22h47.35.642,MainFlow,2024.2.4,143.97314038429627,2025-03-11 22h47.56.196844 +0700,
2,52,0,word/worden0521.png,image/False/imgf52.png,111,111,0,x,0.4340556000097422,None,0,111,111,111,391.0783272999979,,,,,,,392.5710260000051,392.0744504000031,392.07783650000056,392.07783650000056,392.56568379999953,393.657352299997,393.657352299997,x,0.4340556000097422,None,392.5710260000051,392.5710260000051,393.657352299997,,,,,,,,SS_en,001,2025-03-11_22h47.35.642,MainFlow,2024.2.4,143.97314038429627,2025-03-11 22h47.56.196844 +0700,
2,33,1,word/worden0331.png,image/True/img33.png,112,112,0,z,0.38818940000783186,None,0,112,112,112,394.09848529999726,,,,,,,395.5981030999974,395.1006406000088,395.10440409999865,395.10440409999865,395.59223389999534,396.70708020000893,396.70708020000893,z,0.38818940000783186,None,395.5981030999974,395.5981030999974,,,,,,,,,SS_en,001,2025-03-11_22h47.35.642,MainFlow,2024.2.4,143.97314038429627,2025-03-11 22h47.56.196844 +0700,
2,23,1,word/worden0231.png,image/True/img23.png,113,113,0,z,0.30858789999911096,None,0,113,113,113,397.10479959999793,,,,,,,398.5977505000046,398.1032329000009,398.1065566000034,398.1065566000034,398.5919525000063,399.7128250999958,399.7128250999958,z,0.30858789999911096,None,398.5977505000046,398.5977505000046,399.7128250999958,,,,,,,,SS_en,001,2025-03-11_22h47.35.642,MainFlow,2024.2.4,143.97314038429627,2025-03-11 22h47.56.196844 +0700,
2,11,1,word/worden0111.png,image/True/img11.png,114,114,0,z,0.41758280000067316,None,0,114,114,114,400.02775819999806,,,,,,,401.527505200007,401.03017450000334,401.0336830000015,401.0336830000015,401.5215662999981,402.66477780000423,402.66477780000423,z,0.41758280000067316,None,401.527505200007,401.527505200007,,,,,,,,,SS_en,001,2025-03-11_22h47.35.642,MainFlow,2024.2.4,143.97314038429627,2025-03-11 22h47.56.196844 +0700,
2,22,1,word/worden0221.png,image/True/img22.png,115,115,0,z,0.873438199996599,None,0,115,115,115,403.0898529999977,,,,,,,404.58933879999677,404.0914649000042,404.0953464000049,404.0953464000049,404.5834341000009,405.72846169999684,405.72846169999684,z,0.873438199996599,None,404.58933879999677,404.58933879999677,,,,,,,,,SS_en,001,2025-03-11_22h47.35.642,MainFlow,2024.2.4,143.97314038429627,2025-03-11 22h47.56.196844 +0700,
2,37,0,word/worden0371.png,image/False/imgf37.png,116,116,0,x,12.421584299998358,None,0,116,116,116,406.6119639999961,,,,,,,408.10967099999834,407.6142405999999,407.6175041999959,407.6175041999959,408.10393789999944,409.253884500009,409.253884500009,x,12.421584299998358,None,408.10967099999834,408.10967099999834,409.253884500009,,,,,,,,SS_en,001,2025-03-11_22h47.35.642,MainFlow,2024.2.4,143.97314038429627,2025-03-11 22h47.56.196844 +0700,
2,79,0,word/worden0791.png,image/False/imgf79.png,117,117,0,x,1.9638017999968724,None,0,117,117,117,421.6833695999958,,,,,,,423.17605740000727,422.68205099999614,422.6857447000075,422.6857447000075,423.17014349999954,424.3011222000059,424.3011222000059,x,1.9638017999968724,None,423.17605740000727,423.17605740000727,424.3011222000059,,,,,,,,SS_en,001,2025-03-11_22h47.35.642,MainFlow,2024.2.4,143.97314038429627,2025-03-11 22h47.56.196844 +0700,
2,56,1,word/worden0561.png,image/True/img56.png,118,118,0,z,0.4956170999939786,None,0,118,118,118,426.2726832000044,,,,,,,427.765527800002,427.27003450000484,427.2732367999997,427.2732367999997,427.7598403000011,428.8636183000053,428.8636183000053,z,0.4956170999939786,None,427.765527800002,427.765527800002,428.8636183000053,,,,,,,,SS_en,001,2025-03-11_22h47.35.642,MainFlow,2024.2.4,143.97314038429627,2025-03-11 22h47.56.196844 +0700,
2,68,1,word/worden0681.png,image/True/img68.png,119,119,0,z,0.6218596999970032,None,0,119,119,119,429.3697747999977,,,,,,,430.8623748999962,430.3689594000025,430.37256410000555,430.37256410000555,430.8572881,431.94782630000554,431.94782630000554,z,0.6218596999970032,None,430.8623748999962,430.8623748999962,431.94782630000554,,,,,,,,SS_en,001,2025-03-11_22h47.35.642,MainFlow,2024.2.4,143.97314038429627,2025-03-11 22h47.56.196844 +0700,
2,27,0,word/worden0271.png,image/False/imgf27.png,120,120,0,x,0.636754800012568,None,0,120,120,120,432.5770274999959,,,,,,,434.07673729999806,433.5777075000078,433.5812780999986,433.5812780999986,434.07090239999525,435.1831683000055,435.1831683000055,x,0.636754800012568,None,434.07673729999806,434.07673729999806,,,,,,,,,SS_en,001,2025-03-11_22h47.35.642,MainFlow,2024.2.4,143.97314038429627,2025-03-11 22h47.56.196844 +0700,
2,3,1,word/worden0031.png,image/True/img03.png,121,121,0,z,0.47005540000100154,None,0,121,121,121,435.8265156999987,,,,,,,437.3192249999993,436.8210933000082,436.8244015999953,436.8244015999953,437.31370810000226,438.4329684999975,438.4329684999975,z,0.47005540000100154,None,437.3192249999993,437.3192249999993,438.4329684999975,,,,,,,,SS_en,001,2025-03-11_22h47.35.642,MainFlow,2024.2.4,143.97314038429627,2025-03-11 22h47.56.196844 +0700,
2,38,0,word/worden0381.png,image/False/imgf38.png,122,122,0,x,0.6156507999985479,None,0,122,122,122,438.9120610999962,,,,,,,440.40902130000177,439.91153090000444,439.91489430000365,439.91489430000365,440.4037064000004,441.55662990000565,441.55662990000565,x,0.6156507999985479,None,440.40902130000177,440.40902130000177,441.55662990000565,,,,,,,,SS_en,001,2025-03-11_22h47.35.642,MainFlow,2024.2.4,143.97314038429627,2025-03-11 22h47.56.196844 +0700,
2,59,1,word/worden0591.png,image/True/img59.png,123,123,0,z,0.6227593999938108,None,0,123,123,123,442.17937900000834,,,,,,,443.6719359999988,443.17548240000906,443.17870309999853,443.17870309999853,443.66579020000063,444.7727933999995,444.7727933999995,z,0.6227593999938108,None,443.6719359999988,443.6719359999988,444.7727933999995,,,,,,,,SS_en,001,2025-03-11_22h47.35.642,MainFlow,2024.2.4,143.97314038429627,2025-03-11 22h47.56.196844 +0700,
2,18,1,word/worden0181.png,image/True/img18.png,124,124,0,z,0.4358378999895649,None,0,124,124,124,445.4078201999946,,,,,,,446.9147498999955,446.4167382000014,446.41995619999943,446.41995619999943,446.90837030000694,447.9965782000072,447.9965782000072,z,0.4358378999895649,None,,,,,,,,,,,SS_en,001,2025-03-11_22h47.35.642,MainFlow,2024.2.4,143.97314038429627,2025-03-11 22h47.56.196844 +0700,
2,60,1,word/worden0601.png,image/True/img60.png,125,125,0,z,0.49923410000337753,None,0,125,125,125,448.4419692000083,,,,,,,449.93496690000757,449.43703810000443,449.4403420000017,449.4403420000017,449.92956820000836,451.0488483000081,451.0488483000081,z,0.49923410000337753,None,449.93496690000757,449.93496690000757,451.0488483000081,,,,,,,,SS_en,001,2025-03-11_22h47.35.642,MainFlow,2024.2.4,143.97314038429627,2025-03-11 22h47.56.196844 +0700,
2,9,1,word/worden0091.png,image/True/img09.png,126,126,0,x,1.793655999994371,None,0,126,126,126,451.56157600000734,,,,,,,453.06612479999603,452.57534559999476,452.57845570000063,452.57845570000063,453.05964530000347,454.1307500999974,454.1307500999974,x,1.793655999994371,None,,,,,,,,,,,SS_en,001,2025-03-11_22h47.35.642,MainFlow,2024.2.4,143.97314038429627,2025-03-11 22h47.56.196844 +0700,
2,9,0,word/worden0091.png,image/False/imgf09.png,127,127,0,x,1.5484557000017958,None,0,127,127,127,455.9335878999991,,,,,,,457.43326190000516,456.9367581999977,456.94030499999644,456.94030499999644,457.4273331000004,458.5178337999969,458.5178337999969,x,1.5484557000017958,None,457.43326190000516,457.43326190000516,,,,,,,,,SS_en,001,2025-03-11_22h47.35.642,MainFlow,2024.2.4,143.97314038429627,2025-03-11 22h47.56.196844 +0700,
2,94,0,word/worden0941.png,image/False/imgf94.png,128,128,0,x,0.5436773999972502,None,0,128,128,128,460.07856890000403,,,,,,,461.5853455000033,461.0962961000041,461.0994630000059,461.0994630000059,461.57898049999494,462.7191090999986,462.7191090999986,x,0.5436773999972502,None,,,,,,,,,,,SS_en,001,2025-03-11_22h47.35.642,MainFlow,2024.2.4,143.97314038429627,2025-03-11 22h47.56.196844 +0700,
2,66,1,word/worden0661.png,image/True/img66.png,129,129,0,z,0.3885889999946812,None,0,129,129,129,463.2723837000085,,,,,,,464.765278100007,464.2685394,464.2719547000015,464.2719547000015,464.7599990000017,465.8713762999978,465.8713762999978,z,0.3885889999946812,None,464.765278100007,464.765278100007,465.8713762999978,,,,,,,,SS_en,001,2025-03-11_22h47.35.642,MainFlow,2024.2.4,143.97314038429627,2025-03-11 22h47.56.196844 +0700,
2,1,0,word/worden0011.png,image/False/imgf01.png,130,130,0,x,0.5837126999977045,None,0,130,130,130,466.2727909999958,,,,,,,467.7715814999974,467.2740893000009,467.27741189999506,467.27741189999506,467.76646820000315,468.8686802000011,468.8686802000011,x,0.5837126999977045,None,467.7715814999974,467.7715814999974,468.8686802000011,,,,,,,,SS_en,001,2025-03-11_22h47.35.642,MainFlow,2024.2.4,143.97314038429627,2025-03-11 22h47.56.196844 +0700,
2,89,0,word/worden0891.png,image/False/imgf89.png,131,131,0,x,0.862966000000597,None,0,131,131,131,469.45873110000684,,,,,,,470.95216600000276,470.45851350000885,470.4620722999971,470.4620722999971,470.9458042000042,472.06291550000606,472.06291550000606,x,0.862966000000597,None,470.95216600000276,470.95216600000276,472.06291550000606,,,,,,,,SS_en,001,2025-03-11_22h47.35.642,MainFlow,2024.2.4,143.97314038429627,2025-03-11 22h47.56.196844 +0700,
2,48,1,word/worden0481.png,image/True/img48.png,132,132,0,z,0.5301655000075698,None,0,132,132,132,472.9371803999966,,,,,,,474.4232939000067,473.9300472000032,473.93338190000213,473.93338190000213,474.41817970000557,475.54830039999797,475.54830039999797,z,0.5301655000075698,None,474.4232939000067,474.4232939000067,475.54830039999797,,,,,,,,SS_en,001,2025-03-11_22h47.35.642,MainFlow,2024.2.4,143.97314038429627,2025-03-11 22h47.56.196844 +0700,
2,63,0,word/worden0631.png,image/False/imgf63.png,133,133,0,x,0.5729452000086894,None,0,133,133,133,476.08985720000055,,,,,,,477.59618890000274,477.10350169999583,477.1065366999974,477.1065366999974,477.58992139999464,478.70322559999477,478.70322559999477,x,0.5729452000086894,None,,,,,,,,,,,SS_en,001,2025-03-11_22h47.35.642,MainFlow,2024.2.4,143.97314038429627,2025-03-11 22h47.56.196844 +0700,
2,23,1,word/worden0231.png,image/True/img23.png,134,134,0,z,0.4999843000114197,None,0,134,134,134,479.2850715999957,,,,,,,480.78293040000426,480.28627860000415,480.2897699000023,480.2897699000023,480.77753069999744,481.89610379999795,481.89610379999795,z,0.4999843000114197,None,480.78293040000426,480.78293040000426,481.89610379999795,,,,,,,,SS_en,001,2025-03-11_22h47.35.642,MainFlow,2024.2.4,143.97314038429627,2025-03-11 22h47.56.196844 +0700,
2,40,0,word/worden0401.png,image/False/imgf40.png,135,135,0,x,0.49018700000306126,None,0,135,135,135,482.4077115999971,,,,,,,483.90051649999805,483.4049620000005,483.4083333000017,483.4083333000017,483.89523239999835,485.02071440000145,485.02071440000145,x,0.49018700000306126,None,483.90051649999805,483.90051649999805,485.02071440000145,,,,,,,,SS_en,001,2025-03-11_22h47.35.642,MainFlow,2024.2.4,143.97314038429627,2025-03-11 22h47.56.196844 +0700,
2,52,1,word/worden0521.png,image/True/img52.png,136,136,0,z,0.5874673999933293,None,0,136,136,136,485.51990290000685,,,,,,,487.01119659999677,486.51742250000825,486.5210611000075,486.5210611000075,487.00522289999935,488.133688300004,488.133688300004,z,0.5874673999933293,None,487.01119659999677,487.01119659999677,488.133688300004,,,,,,,,SS_en,001,2025-03-11_22h47.35.642,MainFlow,2024.2.4,143.97314038429627,2025-03-11 22h47.56.196844 +0700,
2,30,1,word/worden0301.png,image/True/img30.png,137,137,0,x,0.6925472000002628,None,0,137,137,137,488.73276830000395,,,,,,,490.22562769999786,489.7275813000015,489.730902700001,489.730902700001,490.21987070000614,491.3248653000046,491.3248653000046,x,0.6925472000002628,None,490.22562769999786,490.22562769999786,491.3248653000046,,,,,,,,SS_en,001,2025-03-11_22h47.35.642,MainFlow,2024.2.4,143.97314038429627,2025-03-11 22h47.56.196844 +0700,
2,15,1,word/worden0151.png,image/True/img15.png,138,138,0,z,0.5396424999926239,None,0,138,138,138,492.02374570000393,,,,,,,493.5234941999952,493.0261543000088,493.0297630999994,493.0297630999994,493.5177677000029,494.6514332000079,494.6514332000079,z,0.5396424999926239,None,493.5234941999952,493.5234941999952,,,,,,,,,SS_en,001,2025-03-11_22h47.35.642,MainFlow,2024.2.4,143.97314038429627,2025-03-11 22h47.56.196844 +0700,
2,46,1,word/worden0461.png,image/True/img46.png,139,139,0,z,0.43879880000895355,None,0,139,139,139,495.1968674999953,,,,,,,496.6896410000045,496.1911109000066,496.1943915000011,496.1943915000011,496.68396540000685,497.82895870000357,497.82895870000357,z,0.43879880000895355,None,496.6896410000045,496.6896410000045,497.82895870000357,,,,,,,,SS_en,001,2025-03-11_22h47.35.642,MainFlow,2024.2.4,143.97314038429627,2025-03-11 22h47.56.196844 +0700,
2,14,1,word/worden0141.png,image/True/img14.png,140,140,0,z,0.47665159999451134,None,0,140,140,140,498.2806300999946,,,,,,,499.779328500008,499.28515219999827,499.28836880000017,499.28836880000017,499.77401120000286,500.89466570000513,500.89466570000513,z,0.47665159999451134,None,499.779328500008,499.779328500008,500.89466570000513,,,,,,,,SS_en,001,2025-03-11_22h47.35.642,MainFlow,2024.2.4,143.97314038429627,2025-03-11 22h47.56.196844 +0700,
2,66,0,word/worden0661.png,image/False/imgf66.png,141,141,0,z,0.36378610000247136,None,0,141,141,141,501.3830425000051,,,,,,,502.87605770000664,502.3831726000062,502.3868288999947,502.3868288999947,502.87040899999556,503.9886269999988,503.9886269999988,z,0.36378610000247136,None,502.87605770000664,502.87605770000664,503.9886269999988,,,,,,,,SS_en,001,2025-03-11_22h47.35.642,MainFlow,2024.2.4,143.97314038429627,2025-03-11 22h47.56.196844 +0700,
2,46,0,word/worden0461.png,image/False/imgf46.png,142,142,0,x,0.5998390000022482,None,0,142,142,142,504.36165880000044,,,,,,,505.86149530000694,505.36529339999834,505.3688639000029,505.3688639000029,505.85561230000167,506.98988010000903,506.98988010000903,x,0.5998390000022482,None,505.86149530000694,505.86149530000694,,,,,,,,,SS_en,001,2025-03-11_22h47.35.642,MainFlow,2024.2.4,143.97314038429627,2025-03-11 22h47.56.196844 +0700,
2,18,1,word/worden0181.png,image/True/img18.png,143,143,0,z,0.31896340000093915,None,0,143,143,143,507.59716770000523,,,,,,,509.08299130000523,508.5851202000049,508.5878220000013,508.5878220000013,509.07716329999676,510.1759197000065,510.1759197000065,z,0.31896340000093915,None,509.08299130000523,509.08299130000523,510.1759197000065,,,,,,,,SS_en,001,2025-03-11_22h47.35.642,MainFlow,2024.2.4,143.97314038429627,2025-03-11 22h47.56.196844 +0700,
2,51,0,word/worden0511.png,image/False/imgf51.png,144,144,0,x,0.605336399996304,None,0,144,144,144,510.5065506999963,,,,,,,511.9990680000046,511.5020349999977,511.5055713000038,511.5055713000038,511.99335129999963,513.1010766999971,513.1010766999971,x,0.605336399996304,None,511.9990680000046,511.9990680000046,513.1010766999971,,,,,,,,SS_en,001,2025-03-11_22h47.35.642,MainFlow,2024.2.4,143.97314038429627,2025-03-11 22h47.56.196844 +0700,
2,76,1,word/worden0761.png,image/True/img76.png,145,145,0,z,0.38601780000317376,None,0,145,145,145,513.7161594000063,,,,,,,515.2068866000045,514.7136933000002,514.7171745000087,514.7171745000087,515.2017153000052,516.3283673999977,516.3283673999977,z,0.38601780000317376,None,515.2068866000045,515.2068866000045,516.3283673999977,,,,,,,,SS_en,001,2025-03-11_22h47.35.642,MainFlow,2024.2.4,143.97314038429627,2025-03-11 22h47.56.196844 +0700,
2,57,1,word/worden0571.png,image/True/img57.png,146,146,0,z,0.31704129998979624,None,0,146,146,146,516.7203310000041,,,,,,,518.2132539000013,517.7196785999986,517.7230148999952,517.7230148999952,518.207166799999,519.3324643000087,519.3324643000087,z,0.31704129998979624,None,518.2132539000013,518.2132539000013,519.3324643000087,,,,,,,,SS_en,001,2025-03-11_22h47.35.642,MainFlow,2024.2.4,143.97314038429627,2025-03-11 22h47.56.196844 +0700,
2,48,0,word/worden0481.png,image/False/imgf48.png,147,147,0,x,0.7246386999904644,None,0,147,147,147,519.6573166000016,,,,,,,521.1501705999981,520.6539842000057,520.6573575000075,520.6573575000075,521.1448687999946,522.2799611000082,522.2799611000082,x,0.7246386999904644,None,521.1501705999981,521.1501705999981,522.2799611000082,,,,,,,,SS_en,001,2025-03-11_22h47.35.642,MainFlow,2024.2.4,143.97314038429627,2025-03-11 22h47.56.196844 +0700,
2,37,0,word/worden0371.png,image/False/imgf37.png,148,148,0,x,0.833082099998137,None,0,148,148,148,523.0128938999987,,,,,,,524.5175130999996,524.0209422000044,524.0244432000036,524.0244432000036,524.5113258000056,525.663140500008,525.663140500008,x,0.833082099998137,None,,,524.0244432000036,,,,,,,,SS_en,001,2025-03-11_22h47.35.642,MainFlow,2024.2.4,143.97314038429627,2025-03-11 22h47.56.196844 +0700,
2,60,0,word/worden0601.png,image/False/imgf60.png,149,149,0,x,0.6892978000105359,None,0,149,149,149,526.5033185000066,,,,,,,527.9960504000046,527.5034194000036,527.5067973999976,527.5067973999976,527.9903612000053,529.1090761999949,529.1090761999949,x,0.6892978000105359,None,527.9960504000046,527.9960504000046,529.1090761999949,,,,,,,,SS_en,001,2025-03-11_22h47.35.642,MainFlow,2024.2.4,143.97314038429627,2025-03-11 22h47.56.196844 +0700,
2,24,1,word/worden0241.png,image/True/img24.png,150,150,0,z,0.573503299994627,None,0,150,150,150,529.8082125000074,,,,,,,531.3008811000036,530.8034122999961,530.8068638999976,530.8068638999976,531.2950118000008,532.3834408999974,532.3834408999974,z,0.573503299994627,None,531.3008811000036,531.3008811000036,532.3834408999974,,,,,,,,SS_en,001,2025-03-11_22h47.35.642,MainFlow,2024.2.4,143.97314038429627,2025-03-11 22h47.56.196844 +0700,
2,40,1,word/worden0401.png,image/True/img40.png,151,151,0,z,0.5048654999991413,None,0,151,151,151,532.9672485000046,,,,,,,534.4602404000034,533.9643351999985,533.9676668000029,533.9676668000029,534.4549348,535.6096085000027,535.6096085000027,z,0.5048654999991413,None,534.4602404000034,534.4602404000034,535.6096085000027,,,,,,,,SS_en,001,2025-03-11_22h47.35.642,MainFlow,2024.2.4,143.97314038429627,2025-03-11 22h47.56.196844 +0700,
2,54,1,word/worden0541.png,image/True/img54.png,152,152,0,z,0.5098728000011761,None,0,152,152,152,536.126314299996,,,,,,,537.6121521000023,537.1173844000004,537.1200979999994,537.1200979999994,537.6061284000025,538.7530537999992,538.7530537999992,z,0.5098728000011761,None,537.6121521000023,537.6121521000023,538.7530537999992,,,,,,,,SS_en,001,2025-03-11_22h47.35.642,MainFlow,2024.2.4,143.97314038429627,2025-03-11 22h47.56.196844 +0700,
2,44,0,word/worden0441.png,image/False/imgf44.png,153,153,0,x,0.9299113999877591,None,0,153,153,153,539.2745298000082,,,,,,,540.7644112999988,540.266388899996,540.2696697000065,540.2696697000065,540.7591586000053,541.9014936000021,541.9014936000021,x,0.9299113999877591,None,540.7644112999988,540.7644112999988,541.9014936000021,,,,,,,,SS_en,001,2025-03-11_22h47.35.642,MainFlow,2024.2.4,143.97314038429627,2025-03-11 22h47.56.196844 +0700,
2,79,1,word/worden0791.png,image/True/img79.png,154,154,0,z,1.315337299995008,None,0,154,154,154,542.8404054999992,,,,,,,544.3261933000031,543.8294970999996,543.8322544999974,543.8322544999974,544.3208871999959,545.4498437000002,545.4498437000002,z,1.315337299995008,None,544.3261933000031,544.3261933000031,545.4498437000002,,,,,,,,SS_en,001,2025-03-11_22h47.35.642,MainFlow,2024.2.4,143.97314038429627,2025-03-11 22h47.56.196844 +0700,
2,95,1,word/worden0951.png,image/True/img95.png,155,155,0,z,1.0562842000072123,None,0,155,155,155,546.7777968000009,,,,,,,548.2630079000082,547.7708645999955,547.7735003999987,547.7735003999987,548.2576899999985,549.3967168999952,549.3967168999952,z,1.0562842000072123,None,548.2630079000082,548.2630079000082,549.3967168999952,,,,,,,,SS_en,001,2025-03-11_22h47.35.642,MainFlow,2024.2.4,143.97314038429627,2025-03-11 22h47.56.196844 +0700,
2,37,1,word/worden0371.png,image/True/img37.png,156,156,0,z,2.4475930000044173,None,0,156,156,156,550.4639259999967,,,,,,,551.9565099000029,551.4608005000046,551.4641034000088,551.4641034000088,551.9504330000054,553.1011372000066,553.1011372000066,z,2.4475930000044173,None,551.9565099000029,551.9565099000029,553.1011372000066,,,,,,,,SS_en,001,2025-03-11_22h47.35.642,MainFlow,2024.2.4,143.97314038429627,2025-03-11 22h47.56.196844 +0700,
2,70,1,word/worden0701.png,image/True/img70.png,157,157,0,z,2.033745499997167,None,0,157,157,157,555.560103900003,,,,,,,557.0529460999969,556.5568666000036,556.5602821000066,556.5602821000066,557.0475618000055,558.1671615999949,558.1671615999949,z,2.033745499997167,None,557.0529460999969,557.0529460999969,558.1671615999949,,,,,,,,SS_en,001,2025-03-11_22h47.35.642,MainFlow,2024.2.4,143.97314038429627,2025-03-11 22h47.56.196844 +0700,
2,40,1,word/worden0401.png,image/True/img40.png,158,158,0,z,0.7155563999986043,None,0,158,158,158,560.2117741999973,,,,,,,561.7049163000047,561.2099569999991,561.213210300004,561.213210300004,561.6996115000074,562.8586553000059,562.8586553000059,z,0.7155563999986043,None,561.7049163000047,561.7049163000047,562.8586553000059,,,,,,,,SS_en,001,2025-03-11_22h47.35.642,MainFlow,2024.2.4,143.97314038429627,2025-03-11 22h47.56.196844 +0700,
2,30,0,word/worden0301.png,image/False/imgf30.png,159,159,0,x,0.575907799997367,None,0,159,159,159,563.5862519000075,,,,,,,565.0791712000064,564.5809502000047,564.5842071000079,564.5842071000079,565.0738463000016,566.185307000007,566.185307000007,x,0.575907799997367,None,565.0791712000064,565.0791712000064,566.185307000007,,,,,,,,SS_en,001,2025-03-11_22h47.35.642,MainFlow,2024.2.4,143.97314038429627,2025-03-11 22h47.56.196844 +0700,
2,88,1,word/worden0881.png,image/True/img88.png,160,160,0,z,0.5473611000052188,None,0,160,160,160,566.7732640000031,,,,,,,568.265940199999,567.7699869000062,567.773274200008,567.773274200008,568.2601308000012,569.393699200009,569.393699200009,z,0.5473611000052188,None,568.265940199999,568.265940199999,569.393699200009,,,,,,,,SS_en,001,2025-03-11_22h47.35.642,MainFlow,2024.2.4,143.97314038429627,2025-03-11 22h47.56.196844 +0700,
2,15,1,word/worden0151.png,image/True/img15.png,161,161,0,z,0.5741549000085797,None,0,161,161,161,569.953198800009,,,,,,,571.445896899997,570.9495044000068,570.9532213000057,570.9532213000057,571.4406675000064,572.5769852000085,572.5769852000085,z,0.5741549000085797,None,571.445896899997,571.445896899997,572.5769852000085,,,,,,,,SS_en,001,2025-03-11_22h47.35.642,MainFlow,2024.2.4,143.97314038429627,2025-03-11 22h47.56.196844 +0700,
2,54,1,word/worden0541.png,image/True/img54.png,162,162,0,z,0.35802630000398494,None,0,162,162,162,573.1607363000076,,,,,,,574.6538188999984,574.1560481000051,574.1594634000066,574.1594634000066,574.6482724000089,575.7971547000052,575.7971547000052,z,0.35802630000398494,None,574.6538188999984,574.6538188999984,575.7971547000052,,,,,,,,SS_en,001,2025-03-11_22h47.35.642,MainFlow,2024.2.4,143.97314038429627,2025-03-11 22h47.56.196844 +0700,
2,11,0,word/worden0111.png,image/False/imgf11.png,163,163,0,x,0.6578733999922406,None,0,163,163,163,576.1671123999986,,,,,,,577.6668862000079,577.1687295000011,577.1721290999994,577.1721290999994,577.6610873000027,578.8053744000063,578.8053744000063,x,0.6578733999922406,None,577.6668862000079,577.6668862000079,,,,,,,,,SS_en,001,2025-03-11_22h47.35.642,MainFlow,2024.2.4,143.97314038429627,2025-03-11 22h47.56.196844 +0700,
2,16,1,word/worden0161.png,image/True/img16.png,164,164,0,z,0.6653061999968486,None,0,164,164,164,579.4720214999979,,,,,,,580.9578266000026,580.4592762999964,580.4619547000038,580.4619547000038,580.9449858000007,582.1021308000054,582.1021308000054,z,0.6653061999968486,None,580.9508675999969,580.9508675999969,582.1021308000054,,,,,,,,SS_en,001,2025-03-11_22h47.35.642,MainFlow,2024.2.4,143.97314038429627,2025-03-11 22h47.56.196844 +0700,
2,1,1,word/worden0011.png,image/True/img01.png,165,165,0,z,0.3657860000093933,None,0,165,165,165,582.7770309000043,,,,,,,584.2628837000084,583.7643844999984,583.7670520999964,583.7670520999964,584.2508908000018,585.373731300002,585.373731300002,z,0.3657860000093933,None,584.2559583999973,584.2559583999973,585.373731300002,,,,,,,,SS_en,001,2025-03-11_22h47.35.642,MainFlow,2024.2.4,143.97314038429627,2025-03-11 22h47.56.196844 +0700,
2,22,0,word/worden0221.png,image/False/imgf22.png,166,166,0,x,0.44962820000364445,None,0,166,166,166,585.7509830000054,,,,,,,587.2415781000018,586.7481151999964,586.751728800009,586.751728800009,587.2356489000085,588.3677717999963,588.3677717999963,x,0.44962820000364445,None,587.2415781000018,587.2415781000018,588.3677717999963,,,,,,,,SS_en,001,2025-03-11_22h47.35.642,MainFlow,2024.2.4,143.97314038429627,2025-03-11 22h47.56.196844 +0700,
2,63,1,word/worden0631.png,image/True/img63.png,167,167,0,z,0.5158300000039162,None,0,167,167,167,588.8259085000027,,,,,,,590.324192,589.826585200004,589.8301911000017,589.8301911000017,590.3184266000026,591.435381400006,591.435381400006,z,0.5158300000039162,None,590.324192,590.324192,,,,,,,,,SS_en,001,2025-03-11_22h47.35.642,MainFlow,2024.2.4,143.97314038429627,2025-03-11 22h47.56.196844 +0700,
2,87,1,word/worden0871.png,image/True/img87.png,168,168,0,x,1.2497818999981973,None,0,168,168,168,591.9629066000052,,,,,,,593.455423899999,592.9571894999972,592.960439500006,592.960439500006,593.4495126999973,594.5817559999996,594.5817559999996,x,1.2497818999981973,None,593.455423899999,593.455423899999,594.5817559999996,,,,,,,,SS_en,001,2025-03-11_22h47.35.642,MainFlow,2024.2.4,143.97314038429627,2025-03-11 22h47.56.196844 +0700,
2,57,0,word/worden0571.png,image/False/imgf57.png,169,169,0,x,0.6557842000038363,None,0,169,169,169,595.8438556000037,,,,,,,597.3436006999982,596.8495556999987,596.8530813999969,596.8530813999969,597.3380911999993,598.4649633000081,598.4649633000081,x,0.6557842000038363,None,597.3436006999982,597.3436006999982,,,,,,,,,SS_en,001,2025-03-11_22h47.35.642,MainFlow,2024.2.4,143.97314038429627,2025-03-11 22h47.56.196844 +0700,
2,94,0,word/worden0941.png,image/False/imgf94.png,170,170,0,x,0.7661934000061592,None,0,170,170,170,599.1281277000089,,,,,,,600.6208713999949,600.1242199999979,600.1275238000089,600.1275238000089,600.6149103000062,601.7678424000042,601.7678424000042,x,0.7661934000061592,None,600.6208713999949,600.6208713999949,601.7678424000042,,,,,,,,SS_en,001,2025-03-11_22h47.35.642,MainFlow,2024.2.4,143.97314038429627,2025-03-11 22h47.56.196844 +0700,
2,93,0,word/worden0931.png,image/False/imgf93.png,171,171,0,x,1.7911760000133654,None,0,171,171,171,602.5440938999964,,,,,,,604.0297565000074,603.5309477999981,603.5336357000051,603.5336357000051,604.0170016000047,605.1301614999975,605.1301614999975,x,1.7911760000133654,None,604.0228279000003,604.0228279000003,605.1301614999975,,,,,,,,SS_en,001,2025-03-11_22h47.35.642,MainFlow,2024.2.4,143.97314038429627,2025-03-11 22h47.56.196844 +0700,
2,61,1,word/worden0611.png,image/True/img61.png,172,172,0,z,0.8174272000032943,None,0,172,172,172,606.9321305000049,,,,,,,608.4247820000019,607.9300484999985,607.9333110000007,607.9333110000007,608.418978200003,609.5425308999984,609.5425308999984,z,0.8174272000032943,None,608.4247820000019,608.4247820000019,609.5425308999984,,,,,,,,SS_en,001,2025-03-11_22h47.35.642,MainFlow,2024.2.4,143.97314038429627,2025-03-11 22h47.56.196844 +0700,
2,28,1,word/worden0281.png,image/True/img28.png,173,173,0,z,0.8948748999973759,None,0,173,173,173,610.3714962999948,,,,,,,611.868693700002,611.3721365999954,611.375770300001,611.375770300001,611.8634263999993,612.9986360000039,612.9986360000039,z,0.8948748999973759,None,611.868693700002,611.868693700002,612.9986360000039,,,,,,,,SS_en,001,2025-03-11_22h47.35.642,MainFlow,2024.2.4,143.97314038429627,2025-03-11 22h47.56.196844 +0700,
2,46,1,word/worden0461.png,image/True/img46.png,174,174,0,z,1.1805614000040805,None,0,174,174,174,613.9033923999959,,,,,,,615.395837300006,614.8975729000085,614.9010492000089,614.9010492000089,615.3906328000012,616.5436327000061,616.5436327000061,z,1.1805614000040805,None,615.395837300006,615.395837300006,616.5436327000061,,,,,,,,SS_en,001,2025-03-11_22h47.35.642,MainFlow,2024.2.4,143.97314038429627,2025-03-11 22h47.56.196844 +0700,
2,22,1,word/worden0221.png,image/True/img22.png,175,175,0,z,0.5879540000023553,None,0,175,175,175,617.7355809000001,,,,,,,619.2282171999977,618.7339734999987,618.737329399999,618.737329399999,619.2223080999975,620.3616435000004,620.3616435000004,z,0.5879540000023553,None,619.2282171999977,619.2282171999977,620.3616435000004,,,,,,,,SS_en,001,2025-03-11_22h47.35.642,MainFlow,2024.2.4,143.97314038429627,2025-03-11 22h47.56.196844 +0700,
2,93,1,word/worden0931.png,image/True/img93.png,176,176,0,z,0.567195299998275,None,0,176,176,176,620.9570340000064,,,,,,,622.449992599999,621.9542352999997,621.9575572000031,621.9575572000031,622.4441316000011,623.5509809000068,623.5509809000068,z,0.567195299998275,None,622.449992599999,622.449992599999,623.5509809000068,,,,,,,,SS_en,001,2025-03-11_22h47.35.642,MainFlow,2024.2.4,143.97314038429627,2025-03-11 22h47.56.196844 +0700,
2,95,1,word/worden0951.png,image/True/img95.png,177,177,0,z,0.5741529000079026,None,0,177,177,177,624.1301363999955,,,,,,,625.6158896999987,625.1233229000063,625.1264738000027,625.1264738000027,625.609921299998,626.754326299997,626.754326299997,z,0.5741529000079026,None,625.6158896999987,625.6158896999987,626.754326299997,,,,,,,,SS_en,001,2025-03-11_22h47.35.642,MainFlow,2024.2.4,143.97314038429627,2025-03-11 22h47.56.196844 +0700,
2,17,0,word/worden0171.png,image/False/imgf17.png,178,178,0,z,1.053624200008926,None,0,178,178,178,627.3376889000065,,,,,,,628.830681899999,628.3346062000055,628.3378018000076,628.3378018000076,628.824674500007,629.9570572999946,629.9570572999946,z,1.053624200008926,None,628.830681899999,628.830681899999,629.9570572999946,,,,,,,,SS_en,001,2025-03-11_22h47.35.642,MainFlow,2024.2.4,143.97314038429627,2025-03-11 22h47.56.196844 +0700,
2,26,1,word/worden0261.png,image/True/img26.png,179,179,0,z,0.6659386000101222,None,0,179,179,179,631.0176253999962,,,,,,,632.5172331000067,632.0175337999972,632.0215860000026,632.0215860000026,632.5113491000084,633.6426359000034,633.6426359000034,z,0.6659386000101222,None,632.5172331000067,632.5172331000067,,,,,,,,,SS_en,001,2025-03-11_22h47.35.642,MainFlow,2024.2.4,143.97314038429627,2025-03-11 22h47.56.196844 +0700,
2,27,1,word/worden0271.png,image/True/img27.png,180,180,0,z,0.4613272999995388,None,0,180,180,180,634.3181313999958,,,,,,,635.8223156000022,635.3256028000033,635.3290675000026,635.3290675000026,635.8158874000073,636.9129020999972,636.9129020999972,z,0.4613272999995388,None,,,635.3290675000026,,,,,,,,SS_en,001,2025-03-11_22h47.35.642,MainFlow,2024.2.4,143.97314038429627,2025-03-11 22h47.56.196844 +0700,
2,31,1,word/worden0311.png,image/True/img31.png,181,181,0,z,1.1538733000052162,None,0,181,181,181,637.3845560000045,,,,,,,638.8705427999957,638.3770657999994,638.3804893000051,638.3804893000051,638.8653160999966,639.9777049999975,639.9777049999975,z,1.1538733000052162,None,638.8705427999957,638.8705427999957,639.9777049999975,,,,,,,,SS_en,001,2025-03-11_22h47.35.642,MainFlow,2024.2.4,143.97314038429627,2025-03-11 22h47.56.196844 +0700,
2,33,0,word/worden0331.png,image/False/imgf33.png,182,182,0,x,1.912774399999762,None,0,182,182,182,641.1425755999953,,,,,,,642.6337071000016,642.1388971999986,642.1422904000065,642.1422904000065,642.628391899998,643.7429705999966,643.7429705999966,x,1.912774399999762,None,642.6337071000016,642.6337071000016,643.7429705999966,,,,,,,,SS_en,001,2025-03-11_22h47.35.642,MainFlow,2024.2.4,143.97314038429627,2025-03-11 22h47.56.196844 +0700,
2,59,1,word/worden0591.png,image/True/img59.png,183,183,0,z,0.6741955000034068,None,0,183,183,183,645.6675618000008,,,,,,,647.1674228000047,646.6709132999968,646.6746944000042,646.6746944000042,647.1616101999971,648.2554595999973,648.2554595999973,z,0.6741955000034068,None,647.1674228000047,647.1674228000047,,,,,,,,,SS_en,001,2025-03-11_22h47.35.642,MainFlow,2024.2.4,143.97314038429627,2025-03-11 22h47.56.196844 +0700,
2,8,1,word/worden0081.png,image/True/img08.png,184,184,0,z,1.4161363000021083,None,0,184,184,184,648.9377387999994,,,,,,,650.4306996999949,649.9331628000073,649.9365536999976,649.9365536999976,650.4254330999975,651.522987999997,651.522987999997,z,1.4161363000021083,None,650.4306996999949,650.4306996999949,651.522987999997,,,,,,,,SS_en,001,2025-03-11_22h47.35.642,MainFlow,2024.2.4,143.97314038429627,2025-03-11 22h47.56.196844 +0700,
2,63,0,word/worden0631.png,image/False/imgf63.png,185,185,0,x,0.7059150999994017,None,0,185,185,185,652.9509168000077,,,,,,,654.4507096000016,653.9553026000067,653.9588906999998,653.9588906999998,654.4451274000021,655.572144699996,655.572144699996,x,0.7059150999994017,None,654.4507096000016,654.4507096000016,,,,,,,,,SS_en,001,2025-03-11_22h47.35.642,MainFlow,2024.2.4,143.97314038429627,2025-03-11 22h47.56.196844 +0700,
2,30,0,word/worden0301.png,image/False/imgf30.png,186,186,0,x,0.7283538000046974,None,0,186,186,186,656.2904880999995,,,,,,,657.783254000009,657.284859300009,657.2875645000022,657.2875645000022,657.7774994000065,658.8817634000006,658.8817634000006,x,0.7283538000046974,None,657.783254000009,657.783254000009,658.8817634000006,,,,,,,,SS_en,001,2025-03-11_22h47.35.642,MainFlow,2024.2.4,143.97314038429627,2025-03-11 22h47.56.196844 +0700,
2,15,0,word/worden0151.png,image/False/imgf15.png,187,187,0,x,0.54601749998983,None,0,187,187,187,659.616171600006,,,,,,,661.1159863000066,660.6168995000044,660.6203419000085,660.6203419000085,661.1107874000008,662.2275801000069,662.2275801000069,x,0.54601749998983,None,661.1159863000066,661.1159863000066,,,,,,,,,SS_en,001,2025-03-11_22h47.35.642,MainFlow,2024.2.4,143.97314038429627,2025-03-11 22h47.56.196844 +0700,
2,71,0,word/worden0711.png,image/False/imgf71.png,188,188,0,x,0.9980792999995174,None,0,188,188,188,662.7823411999998,,,,,,,664.2682254999963,663.7749652000057,663.7782353000075,663.7782353000075,664.262942100002,665.4029639000073,665.4029639000073,x,0.9980792999995174,None,664.2682254999963,664.2682254999963,665.4029639000073,,,,,,,,SS_en,001,2025-03-11_22h47.35.642,MainFlow,2024.2.4,143.97314038429627,2025-03-11 22h47.56.196844 +0700,
2,10,0,word/worden0101.png,image/False/imgf10.png,189,189,0,x,0.5117973000014899,None,0,189,189,189,666.4135285000084,,,,,,,667.9063162999955,667.4135133000091,667.4168523999979,667.4168523999979,667.9008403000043,669.0287087000033,669.0287087000033,x,0.5117973000014899,None,667.9063162999955,667.9063162999955,669.0287087000033,,,,,,,,SS_en,001,2025-03-11_22h47.35.642,MainFlow,2024.2.4,143.97314038429627,2025-03-11 22h47.56.196844 +0700,
2,54,0,word/worden0541.png,image/False/imgf54.png,190,190,0,x,0.49293399999442045,None,0,190,190,190,669.5517773000029,,,,,,,671.0378001000063,670.5386182000075,670.5416113999963,670.5416113999963,671.0256049000018,672.1412836999953,672.1412836999953,x,0.49293399999442045,None,671.0310038000025,671.0310038000025,672.1412836999953,,,,,,,,SS_en,001,2025-03-11_22h47.35.642,MainFlow,2024.2.4,143.97314038429627,2025-03-11 22h47.56.196844 +0700,
2,60,0,word/worden0601.png,image/False/imgf60.png,191,191,0,x,0.41267669999797363,None,0,191,191,191,672.6413166999992,,,,,,,674.1412818999961,673.6427052000072,673.6462243999995,673.6462243999995,674.1361977000051,675.2542933000077,675.2542933000077,x,0.41267669999797363,None,674.1412818999961,674.1412818999961,,,,,,,,,SS_en,001,2025-03-11_22h47.35.642,MainFlow,2024.2.4,143.97314038429627,2025-03-11 22h47.56.196844 +0700,
2,16,0,word/worden0161.png,image/False/imgf16.png,192,192,0,x,0.5079609999957029,None,0,192,192,192,675.6757130000042,,,,,,,677.1752875999955,676.6797233999969,676.6832776000083,676.6832776000083,677.1694335000066,678.2956930000073,678.2956930000073,x,0.5079609999957029,None,677.1752875999955,677.1752875999955,,,,,,,,,SS_en,001,2025-03-11_22h47.35.642,MainFlow,2024.2.4,143.97314038429627,2025-03-11 22h47.56.196844 +0700,
2,50,1,word/worden0501.png,image/True/img50.png,193,193,0,z,4.0760374999954365,None,0,193,193,193,678.8139190000074,,,,,,,680.2998529000033,679.804579100004,679.8072886000009,679.8072886000009,680.2945064999949,681.414740200009,681.414740200009,z,4.0760374999954365,None,680.2998529000033,680.2998529000033,681.414740200009,,,,,,,,SS_en,001,2025-03-11_22h47.35.642,MainFlow,2024.2.4,143.97314038429627,2025-03-11 22h47.56.196844 +0700,
2,63,1,word/worden0631.png,image/True/img63.png,194,194,0,z,0.61953120000544,None,0,194,194,194,685.5000698000076,,,,,,,686.9930104999949,686.4979801000009,686.5019160999946,686.5019160999946,686.9872259999975,688.1117120999988,688.1117120999988,z,0.61953120000544,None,686.9930104999949,686.9930104999949,688.1117120999988,,,,,,,,SS_en,001,2025-03-11_22h47.35.642,MainFlow,2024.2.4,143.97314038429627,2025-03-11 22h47.56.196844 +0700,
2,24,0,word/worden0241.png,image/False/imgf24.png,195,195,0,x,0.6415144999918994,None,0,195,195,195,688.7424601999955,,,,,,,690.2424649000022,689.7486014000024,689.7522600000084,689.7522600000084,690.2372462000058,691.339207099998,691.339207099998,x,0.6415144999918994,None,690.2424649000022,690.2424649000022,,,,,,,,,SS_en,001,2025-03-11_22h47.35.642,MainFlow,2024.2.4,143.97314038429627,2025-03-11 22h47.56.196844 +0700,
2,89,0,word/worden0891.png,image/False/imgf89.png,196,196,0,x,0.696765000000596,None,0,196,196,196,691.9918117000052,,,,,,,693.4914848000044,692.9926048000052,692.9961874,692.9961874,693.4852830000018,694.6002034999983,694.6002034999983,x,0.696765000000596,None,693.4914848000044,693.4914848000044,,,,,,,,,SS_en,001,2025-03-11_22h47.35.642,MainFlow,2024.2.4,143.97314038429627,2025-03-11 22h47.56.196844 +0700,
2,6,0,word/worden0061.png,image/False/imgf06.png,197,197,0,x,0.7030443000112427,None,0,197,197,197,695.3036871000077,,,,,,,696.7964925999986,696.3006950999988,696.3040376999998,696.3040376999998,696.7906464999978,697.901253700009,697.901253700009,x,0.7030443000112427,None,696.7964925999986,696.7964925999986,697.901253700009,,,,,,,,SS_en,001,2025-03-11_22h47.35.642,MainFlow,2024.2.4,143.97314038429627,2025-03-11 22h47.56.196844 +0700,
2,41,0,word/worden0411.png,image/False/imgf41.png,198,198,0,x,0.4385712999937823,None,0,198,198,198,698.6157179000002,,,,,,,700.1014205999963,699.6051933999988,699.6085899000027,699.6085899000027,700.0961366999982,701.1914112999948,701.1914112999948,x,0.4385712999937823,None,700.1014205999963,700.1014205999963,701.1914112999948,,,,,,,,SS_en,001,2025-03-11_22h47.35.642,MainFlow,2024.2.4,143.97314038429627,2025-03-11 22h47.56.196844 +0700,
2,79,0,word/worden0791.png,image/False/imgf79.png,199,199,0,x,0.517378499993356,None,0,199,199,199,701.6428310000047,,,,,,,703.1286280000058,702.6347561000002,702.637633899998,702.637633899998,703.1228106000053,704.2623114000016,704.2623114000016,x,0.517378499993356,None,703.1286280000058,703.1286280000058,704.2623114000016,,,,,,,,SS_en,001,2025-03-11_22h47.35.642,MainFlow,2024.2.4,143.97314038429627,2025-03-11 22h47.56.196844 +0700,
2,70,1,word/worden0701.png,image/True/img70.png,200,200,0,z,0.35107209999114275,None,0,200,200,200,704.787989000004,,,,,,,706.2809391000046,705.7822652000032,705.7856848000083,705.7856848000083,706.2756904999987,707.4005227000016,707.4005227000016,z,0.35107209999114275,None,706.2809391000046,706.2809391000046,707.4005227000016,,,,,,,,SS_en,001,2025-03-11_22h47.35.642,MainFlow,2024.2.4,143.97314038429627,2025-03-11 22h47.56.196844 +0700,
2,31,1,word/worden0311.png,image/True/img31.png,201,201,0,z,0.46169860000372864,None,0,201,201,201,707.7596491000004,,,,,,,709.2456596999982,708.7529877000052,708.7562051999994,708.7562051999994,709.2396900000022,710.3488235999976,710.3488235999976,z,0.46169860000372864,None,709.2456596999982,709.2456596999982,710.3488235999976,,,,,,,,SS_en,001,2025-03-11_22h47.35.642,MainFlow,2024.2.4,143.97314038429627,2025-03-11 22h47.56.196844 +0700,
2,9,1,word/worden0091.png,image/True/img09.png,202,202,0,z,0.5684417999873403,None,0,202,202,202,710.8217304999998,,,,,,,712.3213791000016,711.8250742999953,711.8287579000025,711.8287579000025,712.3160009999992,713.3913593000034,713.3913593000034,z,0.5684417999873403,None,712.3213791000016,712.3213791000016,,,,,,,,,SS_en,001,2025-03-11_22h47.35.642,MainFlow,2024.2.4,143.97314038429627,2025-03-11 22h47.56.196844 +0700,
2,27,1,word/worden0271.png,image/True/img27.png,203,203,0,z,0.3898014000005787,None,0,203,203,203,713.966774200002,,,,,,,715.4664387000084,714.9672050000081,714.970753600006,714.970753600006,715.4604533999955,716.5669039000059,716.5669039000059,z,0.3898014000005787,None,715.4664387000084,715.4664387000084,,,,,,,,,SS_en,001,2025-03-11_22h47.35.642,MainFlow,2024.2.4,143.97314038429627,2025-03-11 22h47.56.196844 +0700,
2,75,0,word/worden0751.png,image/False/imgf75.png,204,204,0,x,0.48096330001135357,None,0,204,204,204,716.9661295999977,,,,,,,718.4588995999948,717.9617537000013,717.9650984000036,717.9650984000036,718.4527631999954,719.5724808000086,719.5724808000086,x,0.48096330001135357,None,718.4588995999948,718.4588995999948,719.5724808000086,,,,,,,,SS_en,001,2025-03-11_22h47.35.642,MainFlow,2024.2.4,143.97314038429627,2025-03-11 22h47.56.196844 +0700,
2,87,0,word/worden0871.png,image/False/imgf87.png,205,205,0,x,0.5146280999906594,None,0,205,205,205,720.0628477999999,,,,,,,721.5557783999975,721.0614255999972,721.0650393999967,721.0650393999967,721.5501963999995,722.6595185000042,722.6595185000042,x,0.5146280999906594,None,721.5557783999975,721.5557783999975,722.6595185000042,,,,,,,,SS_en,001,2025-03-11_22h47.35.642,MainFlow,2024.2.4,143.97314038429627,2025-03-11 22h47.56.196844 +0700,
2,8,0,word/worden0081.png,image/False/imgf08.png,206,206,0,x,0.5590298000024632,None,0,206,206,206,723.180795200009,,,,,,,724.6799322000006,724.1817660000088,724.1859798000078,724.1859798000078,724.6741792999965,725.7760332000034,725.7760332000034,x,0.5590298000024632,None,724.6799322000006,724.6799322000006,,,,,,,,,SS_en,001,2025-03-11_22h47.35.642,MainFlow,2024.2.4,143.97314038429627,2025-03-11 22h47.56.196844 +0700,
2,24,1,word/worden0241.png,image/True/img24.png,207,207,0,z,0.38617349999549333,None,0,207,207,207,726.3463770000089,,,,,,,727.8320680000033,727.3392539000051,727.3423355999985,727.3423355999985,727.8261539000086,728.9134970000014,728.9134970000014,z,0.38617349999549333,None,727.8320680000033,727.8320680000033,728.9134970000014,,,,,,,,SS_en,001,2025-03-11_22h47.35.642,MainFlow,2024.2.4,143.97314038429627,2025-03-11 22h47.56.196844 +0700,
2,14,1,word/worden0141.png,image/True/img14.png,208,208,0,z,0.527191800007131,None,0,208,208,208,729.3109944000025,,,,,,,730.8038860000088,730.3066022999992,730.3099935000064,730.3099935000064,730.7980103000009,731.9212385999999,731.9212385999999,z,0.527191800007131,None,730.8038860000088,730.8038860000088,731.9212385999999,,,,,,,,SS_en,001,2025-03-11_22h47.35.642,MainFlow,2024.2.4,143.97314038429627,2025-03-11 22h47.56.196844 +0700,
2,87,1,word/worden0871.png,image/True/img87.png,209,209,0,x,0.795581599988509,None,0,209,209,209,732.4562087000086,,,,,,,733.9561366999988,733.4600011000002,733.463573400004,733.463573400004,733.9508216999966,735.0776756999985,735.0776756999985,x,0.795581599988509,None,733.9561366999988,733.9561366999988,,,,,,,,,SS_en,001,2025-03-11_22h47.35.642,MainFlow,2024.2.4,143.97314038429627,2025-03-11 22h47.56.196844 +0700,
2,42,0,word/worden0421.png,image/False/imgf42.png,210,210,0,x,0.4579195999976946,None,0,210,210,210,735.879285300005,,,,,,,737.3788747000071,736.8805408000044,736.884292200004,736.884292200004,737.373004100009,738.4998934000032,738.4998934000032,x,0.4579195999976946,None,737.3788747000071,737.3788747000071,,,,,,,,,SS_en,001,2025-03-11_22h47.35.642,MainFlow,2024.2.4,143.97314038429627,2025-03-11 22h47.56.196844 +0700,
2,48,0,word/worden0481.png,image/False/imgf48.png,211,211,0,x,0.5976290999969933,None,0,211,211,211,738.9689800000051,,,,,,,740.4616077999963,739.9632459999993,739.9663981000049,739.9663981000049,740.4555888000032,741.5950347000035,741.5950347000035,x,0.5976290999969933,None,740.4616077999963,740.4616077999963,741.5950347000035,,,,,,,,SS_en,001,2025-03-11_22h47.35.642,MainFlow,2024.2.4,143.97314038429627,2025-03-11 22h47.56.196844 +0700,
2,56,0,word/worden0561.png,image/False/imgf56.png,212,212,0,x,0.5233612000010908,None,0,212,212,212,742.2047987999977,,,,,,,743.7040011000063,743.2048123999994,743.2082902999973,743.2082902999973,743.6981880999956,744.843374300006,744.843374300006,x,0.5233612000010908,None,743.7040011000063,743.7040011000063,744.843374300006,,,,,,,,SS_en,001,2025-03-11_22h47.35.642,MainFlow,2024.2.4,143.97314038429627,2025-03-11 22h47.56.196844 +0700,
2,18,0,word/worden0181.png,image/False/imgf18.png,213,213,0,x,0.4600704000040423,None,0,213,213,213,745.3773094000062,,,,,,,746.8701812000072,746.3778358999989,746.381317300009,746.381317300009,746.8643791000068,747.9895586000057,747.9895586000057,x,0.4600704000040423,None,746.8701812000072,746.8701812000072,747.9895586000057,,,,,,,,SS_en,001,2025-03-11_22h47.35.642,MainFlow,2024.2.4,143.97314038429627,2025-03-11 22h47.56.196844 +0700,
2,18,0,word/worden0181.png,image/False/imgf18.png,214,214,0,x,0.4764220000070054,None,0,214,214,214,748.4600486999989,,,,,,,749.9530057000084,749.4557305000053,749.4590016000002,749.4590016000002,749.9477114000038,751.064838499995,751.064838499995,x,0.4764220000070054,None,749.9530057000084,749.9530057000084,751.064838499995,,,,,,,,SS_en,001,2025-03-11_22h47.35.642,MainFlow,2024.2.4,143.97314038429627,2025-03-11 22h47.56.196844 +0700,
2,9,0,word/worden0091.png,image/False/imgf09.png,215,215,0,x,0.5103458000085084,None,0,215,215,215,751.5517854000063,,,,,,,753.0495096000086,752.5511630999972,752.5547898000077,752.5547898000077,753.0443736000016,754.1355591000029,754.1355591000029,x,0.5103458000085084,None,753.0495096000086,753.0495096000086,754.1355591000029,,,,,,,,SS_en,001,2025-03-11_22h47.35.642,MainFlow,2024.2.4,143.97314038429627,2025-03-11 22h47.56.196844 +0700,
2,55,0,word/worden0551.png,image/False/imgf55.png,216,216,0,x,0.7083296999917366,None,0,216,216,216,754.6533793999988,,,,,,,756.1460728999955,755.6530299000005,755.6564378000039,755.6564378000039,756.1403769000026,757.2620456000004,757.2620456000004,x,0.7083296999917366,None,756.1460728999955,756.1460728999955,757.2620456000004,,,,,,,,SS_en,001,2025-03-11_22h47.35.642,MainFlow,2024.2.4,143.97314038429627,2025-03-11 22h47.56.196844 +0700,
2,17,0,word/worden0171.png,image/False/imgf17.png,217,217,0,x,0.6571231999987504,None,0,217,217,217,757.9792058000021,,,,,,,759.4717649000086,758.9775966000016,758.9810725999996,758.9810725999996,759.4660268000007,760.6045613000024,760.6045613000024,x,0.6571231999987504,None,759.4717649000086,759.4717649000086,760.6045613000024,,,,,,,,SS_en,001,2025-03-11_22h47.35.642,MainFlow,2024.2.4,143.97314038429627,2025-03-11 22h47.56.196844 +0700,
2,50,1,word/worden0501.png,image/True/img50.png,218,218,0,z,0.49850239999068435,None,0,218,218,218,761.2700583999977,,,,,,,762.7629942000058,762.2654251000058,762.2688701000006,762.2688701000006,762.7572273999976,763.8827772000077,763.8827772000077,z,0.49850239999068435,None,762.7629942000058,762.7629942000058,763.8827772000077,,,,,,,,SS_en,001,2025-03-11_22h47.35.642,MainFlow,2024.2.4,143.97314038429627,2025-03-11 22h47.56.196844 +0700,
2,20,0,word/worden0201.png,image/False/imgf20.png,219,219,0,x,0.4617617999901995,None,0,219,219,219,764.3874531000038,,,,,,,765.8733458000061,765.3809230000043,765.3837585000001,765.3837585000001,765.8672059999953,767.0316672000044,767.0316672000044,x,0.4617617999901995,None,765.8733458000061,765.8733458000061,767.0316672000044,,,,,,,,SS_en,001,2025-03-11_22h47.35.642,MainFlow,2024.2.4,143.97314038429627,2025-03-11 22h47.56.196844 +0700,
2,36,0,word/worden0361.png,image/False/imgf36.png,220,220,0,x,0.5611800999904517,None,0,220,220,220,767.5048513000074,,,,,,,768.9908305999998,768.4920824000001,768.4947492000065,768.4947492000065,768.9783147999988,770.0973807999981,770.0973807999981,x,0.5611800999904517,None,768.9838629000005,768.9838629000005,770.0973807999981,,,,,,,,SS_en,001,2025-03-11_22h47.35.642,MainFlow,2024.2.4,143.97314038429627,2025-03-11 22h47.56.196844 +0700,
2,7,0,word/worden0071.png,image/False/imgf07.png,221,221,0,x,0.5510724000050686,None,0,221,221,221,770.6713634000043,,,,,,,772.1636563000066,771.6685862000013,771.6719471999968,771.6719471999968,772.1576314999984,773.2599011999991,773.2599011999991,x,0.5510724000050686,None,772.1636563000066,772.1636563000066,773.2599011999991,,,,,,,,SS_en,001,2025-03-11_22h47.35.642,MainFlow,2024.2.4,143.97314038429627,2025-03-11 22h47.56.196844 +0700,
2,7,1,word/worden0071.png,image/True/img07.png,222,222,0,z,0.4474138000077801,None,0,222,222,222,773.8242870999966,,,,,,,775.3160373999999,774.8232371000049,774.8266961000045,774.8266961000045,775.3107517000026,776.4374575999973,776.4374575999973,z,0.4474138000077801,None,775.3160373999999,775.3160373999999,776.4374575999973,,,,,,,,SS_en,001,2025-03-11_22h47.35.642,MainFlow,2024.2.4,143.97314038429627,2025-03-11 22h47.56.196844 +0700,
2,70,0,word/worden0701.png,image/False/imgf70.png,223,223,0,x,2.218637199999648,None,0,223,223,223,776.8918879999983,,,,,,,778.391909900005,777.8926576999947,777.8961982000037,777.8961982000037,778.3864265000011,779.4902426000044,779.4902426000044,x,2.218637199999648,None,778.391909900005,778.391909900005,,,,,,,,,SS_en,001,2025-03-11_22h47.35.642,MainFlow,2024.2.4,143.97314038429627,2025-03-11 22h47.56.196844 +0700,
2,68,0,word/worden0681.png,image/False/imgf68.png,224,224,0,x,0.7981644999963464,None,0,224,224,224,781.7175314000051,,,,,,,783.2102942000056,782.7123867000046,782.7158872,782.7158872,783.2049211999984,784.3046161999955,784.3046161999955,x,0.7981644999963464,None,783.2102942000056,783.2102942000056,784.3046161999955,,,,,,,,SS_en,001,2025-03-11_22h47.35.642,MainFlow,2024.2.4,143.97314038429627,2025-03-11 22h47.56.196844 +0700,
2,23,0,word/worden0231.png,image/False/imgf23.png,225,225,0,x,0.6918657999922289,None,0,225,225,225,785.1126053000044,,,,,,,786.6055428999971,786.1129084999993,786.1164909000072,786.1164909000072,786.5993210000015,787.7531956000021,787.7531956000021,x,0.6918657999922289,None,786.6055428999971,786.6055428999971,787.7531956000021,,,,,,,,SS_en,001,2025-03-11_22h47.35.642,MainFlow,2024.2.4,143.97314038429627,2025-03-11 22h47.56.196844 +0700,
2,56,0,word/worden0561.png,image/False/imgf56.png,226,226,0,x,0.4125978999945801,None,0,226,226,226,788.4522676000051,,,,,,,789.9451337000064,789.4468752999965,789.450636900001,789.450636900001,789.9393239000055,791.094609599997,791.094609599997,x,0.4125978999945801,None,789.9451337000064,789.9451337000064,791.094609599997,,,,,,,,SS_en,001,2025-03-11_22h47.35.642,MainFlow,2024.2.4,143.97314038429627,2025-03-11 22h47.56.196844 +0700,
2,17,1,word/worden0171.png,image/True/img17.png,227,227,0,z,0.3935787999944296,None,0,227,227,227,791.5142616000085,,,,,,,793.0068867000082,792.5109326999955,792.5141694000049,792.5141694000049,793.0007712000079,794.1229813999962,794.1229813999962,z,0.3935787999944296,None,793.0068867000082,793.0068867000082,794.1229813999962,,,,,,,,SS_en,001,2025-03-11_22h47.35.642,MainFlow,2024.2.4,143.97314038429627,2025-03-11 22h47.56.196844 +0700,
2,94,1,word/worden0941.png,image/True/img94.png,228,228,0,x,0.4685388999932911,None,0,228,228,228,794.5274983999989,,,,,,,796.0270759999985,795.5298582999967,795.5331898000004,795.5331898000004,796.020958299996,797.1327810000075,797.1327810000075,x,0.4685388999932911,None,796.0270759999985,796.0270759999985,,,,,,,,,SS_en,001,2025-03-11_22h47.35.642,MainFlow,2024.2.4,143.97314038429627,2025-03-11 22h47.56.196844 +0700,
2,96,0,word/worden0961.png,image/False/imgf96.png,229,229,0,x,2.8114222000003792,None,0,229,229,229,797.6101567000005,,,,,,,799.0960043999949,798.5978536000039,798.6005231000017,798.6005231000017,799.090166000009,800.2194898000016,800.2194898000016,x,2.8114222000003792,None,799.0960043999949,799.0960043999949,800.2194898000016,,,,,,,,SS_en,001,2025-03-11_22h47.35.642,MainFlow,2024.2.4,143.97314038429627,2025-03-11 22h47.56.196844 +0700,
2,82,0,word/worden0821.png,image/False/imgf82.png,230,230,0,x,0.5267842000030214,None,0,230,230,230,803.0397647000063,,,,,,,804.5325075000001,804.0399059000047,804.0431405999989,804.0431405999989,804.5266512000089,805.6447856000013,805.6447856000013,x,0.5267842000030214,None,804.5325075000001,804.5325075000001,805.6447856000013,,,,,,,,SS_en,001,2025-03-11_22h47.35.642,MainFlow,2024.2.4,143.97314038429627,2025-03-11 22h47.56.196844 +0700,
2,36,1,word/worden0361.png,image/True/img36.png,231,231,0,z,0.5109432000026572,None,0,231,231,231,806.1806241000013,,,,,,,807.6776845999993,807.1785019999952,807.181995100007,807.181995100007,807.6719231000025,808.7741628000076,808.7741628000076,z,0.5109432000026572,None,807.6776845999993,807.6776845999993,808.7741628000076,,,,,,,,SS_en,001,2025-03-11_22h47.35.642,MainFlow,2024.2.4,143.97314038429627,2025-03-11 22h47.56.196844 +0700,
