lang,wordid,truestate,worddir,imgdir,thisN,thisTrialN,thisRepN,key_resp.keys,key_resp.rt,key_resp.duration,trials.thisRepN,trials.thisTrialN,trials.thisN,trials.thisIndex,thisRow.t,notes,tutorial.started,tutorial.stopped,key_instruct.keys,key_instruct.rt,key_instruct.duration,plusblank.started,wordshow.started,image.started,plsuer.started,wordshow.stopped,imageword.started,key_resp.started,trials.key_resp.keys,trials.key_resp.rt,trials.key_resp.duration,image.stopped,plsuer.stopped,plusblank.stopped,ending.started,text_3.started,ending_key.started,ending.stopped,ending_key.keys,ending_key.rt,ending_key.duration,participant,session,date,expName,psychopyVersion,frameRate,expStart,
,,,,,,,,,,,,,,,,,0.0035483999963616952,1.7638028999936068,space,1.657884300002479,None,,,,,,,,,,,,,,,,,,,,,SS_th,001,2025-03-11_22h33.02.862,MainFlow,2024.2.4,143.49940520870794,2025-03-11 22h33.13.886300 +0700,
1,51,0,word/wordth0511.png,image/False/imgf51.png,0,0,0,x,1.0366920999949798,None,0,0,0,0,1.8109395999927074,,,,,,,3.2752032999997027,2.7904086999915307,2.816287099994952,2.816287099994952,3.2691167000011774,4.431769499991788,4.431769499991788,x,1.0366920999949798,None,,,,,,,,,,,SS_th,001,2025-03-11_22h33.02.862,MainFlow,2024.2.4,143.49940520870794,2025-03-11 22h33.13.886300 +0700,
1,66,1,word/wordth0661.png,image/True/img66.png,1,1,0,z,0.56280390000029,None,0,1,1,1,5.476192000001902,,,,,,,6.982873100001598,6.489565900003072,6.492921899989597,6.492921899989597,6.9769931999908295,8.102075799994054,8.102075799994054,z,0.56280390000029,None,,,,,,,,,,,SS_th,001,2025-03-11_22h33.02.862,MainFlow,2024.2.4,143.49940520870794,2025-03-11 22h33.13.886300 +0700,
1,60,1,word/wordth0601.png,image/True/img60.png,2,2,0,z,0.4253430999960983,None,0,2,2,2,8.677567899998394,,,,,,,10.183583199992427,9.686077799997292,9.689405500001158,9.689405500001158,10.177173599993694,11.295258600002853,11.295258600002853,z,0.4253430999960983,None,,,,,,,,,,,SS_th,001,2025-03-11_22h33.02.862,MainFlow,2024.2.4,143.49940520870794,2025-03-11 22h33.13.886300 +0700,
1,46,0,word/wordth0461.png,image/False/imgf46.png,3,3,0,z,1.4157668999978341,None,0,3,3,3,11.731778100001975,,,,,,,13.238367300000391,12.746647399995709,12.750276799997664,12.750276799997664,13.232038399990415,14.389962000001105,14.389962000001105,z,1.4157668999978341,None,,,,,,,,,,,SS_th,001,2025-03-11_22h33.02.862,MainFlow,2024.2.4,143.49940520870794,2025-03-11 22h33.13.886300 +0700,
1,24,1,word/wordth0241.png,image/True/img24.png,4,4,0,z,0.3472107999987202,None,0,4,4,4,15.814353199995821,,,,,,,17.313915499995346,16.815209499996854,16.818167899997206,16.818167899997206,17.30782360000012,18.416583700003684,18.416583700003684,z,0.3472107999987202,None,17.313915499995346,17.313915499995346,,,,,,,,,SS_th,001,2025-03-11_22h33.02.862,MainFlow,2024.2.4,143.49940520870794,2025-03-11 22h33.13.886300 +0700,
1,68,1,word/wordth0681.png,image/True/img68.png,5,5,0,z,0.4274606999970274,None,0,5,5,5,18.773360199993476,,,,,,,20.27902349999931,19.78733099999954,19.79065029999765,19.79065029999765,20.272783399996115,21.38322769998922,21.38322769998922,z,0.4274606999970274,None,,,,,,,,,,,SS_th,001,2025-03-11_22h33.02.862,MainFlow,2024.2.4,143.49940520870794,2025-03-11 22h33.13.886300 +0700,
1,22,0,word/wordth0221.png,image/False/imgf22.png,6,6,0,x,0.7033901999966474,None,0,6,6,6,21.819978699990315,,,,,,,23.32689529999334,22.830217199996696,22.833314799994696,22.833314799994696,23.320521399989957,24.46225470000354,24.46225470000354,x,0.7033901999966474,None,,,,,,,,,,,SS_th,001,2025-03-11_22h33.02.862,MainFlow,2024.2.4,143.49940520870794,2025-03-11 22h33.13.886300 +0700,
1,36,1,word/wordth0361.png,image/True/img36.png,7,7,0,z,0.5935472999990452,None,0,7,7,7,25.17355150000367,,,,,,,26.680312199998298,26.18445939999947,26.18765870000061,26.18765870000061,26.674064299993915,27.77577079999901,27.77577079999901,z,0.5935472999990452,None,,,,,,,,,,,SS_th,001,2025-03-11_22h33.02.862,MainFlow,2024.2.4,143.49940520870794,2025-03-11 22h33.13.886300 +0700,
1,68,0,word/wordth0681.png,image/False/imgf68.png,8,8,0,x,0.6640674000082072,None,0,8,8,8,28.38136269999086,,,,,,,29.875135399997816,29.37922659999458,29.382607699997607,29.382607699997607,29.868761599995196,30.981306899993797,30.981306899993797,x,0.6640674000082072,None,29.875135399997816,29.875135399997816,30.981306899993797,,,,,,,,SS_th,001,2025-03-11_22h33.02.862,MainFlow,2024.2.4,143.49940520870794,2025-03-11 22h33.13.886300 +0700,
1,16,1,word/wordth0161.png,image/True/img16.png,9,9,0,z,0.4151629999978468,None,0,9,9,9,31.651549499991233,,,,,,,33.1583549999923,32.67216729999927,32.67540629999712,32.67540629999712,33.152152199996635,34.288020799998776,34.288020799998776,z,0.4151629999978468,None,,,,,,,,,,,SS_th,001,2025-03-11_22h33.02.862,MainFlow,2024.2.4,143.49940520870794,2025-03-11 22h33.13.886300 +0700,
1,94,1,word/wordth0941.png,image/True/img94.png,10,10,0,z,0.3351590000092983,None,0,10,10,10,34.71337969999877,,,,,,,36.220362499996554,35.72486049999134,35.728352899997844,35.728352899997844,36.214061399994534,37.33113289999892,37.33113289999892,z,0.3351590000092983,None,,,,,,,,,,,SS_th,001,2025-03-11_22h33.02.862,MainFlow,2024.2.4,143.49940520870794,2025-03-11 22h33.13.886300 +0700,
1,95,0,word/wordth0951.png,image/False/imgf95.png,11,11,0,x,0.7072312999953283,None,0,11,11,11,37.67806189999101,,,,,,,39.17806069999642,38.681692999991355,38.68485669999791,38.68485669999791,39.17202329999418,40.33003959999769,40.33003959999769,x,0.7072312999953283,None,39.17806069999642,39.17806069999642,,,,,,,,,SS_th,001,2025-03-11_22h33.02.862,MainFlow,2024.2.4,143.49940520870794,2025-03-11 22h33.13.886300 +0700,
1,30,0,word/wordth0301.png,image/False/imgf30.png,12,12,0,x,0.833683300006669,None,0,12,12,12,41.0461123999994,,,,,,,42.55236849999346,42.057761699994444,42.06110500000068,42.06110500000068,42.546056299994234,43.64034630000242,43.64034630000242,x,0.833683300006669,None,,,,,,,,,,,SS_th,001,2025-03-11_22h33.02.862,MainFlow,2024.2.4,143.49940520870794,2025-03-11 22h33.13.886300 +0700,
1,20,1,word/wordth0201.png,image/True/img20.png,13,13,0,z,0.5848523000022396,None,0,13,13,13,44.48252119999961,,,,,,,45.98903339999379,45.49331099999836,45.49690079998982,45.49690079998982,45.98290190000262,47.11652100000356,47.11652100000356,z,0.5848523000022396,None,,,,,,,,,,,SS_th,001,2025-03-11_22h33.02.862,MainFlow,2024.2.4,143.49940520870794,2025-03-11 22h33.13.886300 +0700,
1,42,0,word/wordth0421.png,image/False/imgf42.png,14,14,0,x,0.6022281999903498,None,0,14,14,14,47.71089849999407,,,,,,,49.21753589999571,48.7201619999978,48.723562599989236,48.723562599989236,49.21125269999902,50.35345419999794,50.35345419999794,x,0.6022281999903498,None,,,,,,,,,,,SS_th,001,2025-03-11_22h33.02.862,MainFlow,2024.2.4,143.49940520870794,2025-03-11 22h33.13.886300 +0700,
1,31,1,word/wordth0311.png,image/True/img31.png,15,15,0,z,0.497002899996005,None,0,15,15,15,50.96720509999432,,,,,,,52.4740587999986,51.9857847999956,51.98913580000226,51.98913580000226,52.46814149999409,53.59135209998931,53.59135209998931,z,0.497002899996005,None,,,,,,,,,,,SS_th,001,2025-03-11_22h33.02.862,MainFlow,2024.2.4,143.49940520870794,2025-03-11 22h33.13.886300 +0700,
1,55,1,word/wordth0551.png,image/True/img55.png,16,16,0,z,0.5655331000016304,None,0,16,16,16,54.10067210000125,,,,,,,55.605297899994184,55.11696569999913,55.120315899999696,55.120315899999696,55.59894329999224,56.73913950000133,56.73913950000133,z,0.5655331000016304,None,,,,,,,,,,,SS_th,001,2025-03-11_22h33.02.862,MainFlow,2024.2.4,143.49940520870794,2025-03-11 22h33.13.886300 +0700,
1,36,1,word/wordth0361.png,image/True/img36.png,17,17,0,z,0.38462739999522455,None,0,17,17,17,57.31316140000126,,,,,,,58.81281219999073,58.31419979999191,58.3175576999929,58.3175576999929,58.80699640000239,59.910173600001144,59.910173600001144,z,0.38462739999522455,None,58.81281219999073,58.81281219999073,,,,,,,,,SS_th,001,2025-03-11_22h33.02.862,MainFlow,2024.2.4,143.49940520870794,2025-03-11 22h33.13.886300 +0700,
1,9,1,word/wordth0091.png,image/True/img09.png,18,18,0,z,0.47932420000142884,None,0,18,18,18,60.305663799998,,,,,,,61.81250939999882,61.328068999995594,61.33142819999193,61.33142819999193,61.806018399991444,62.87912489999144,62.87912489999144,z,0.47932420000142884,None,,,,,,,,,,,SS_th,001,2025-03-11_22h33.02.862,MainFlow,2024.2.4,143.49940520870794,2025-03-11 22h33.13.886300 +0700,
1,64,1,word/wordth0641.png,image/True/img64.png,19,19,0,z,0.3157324000057997,None,0,19,19,19,63.367625200000475,,,,,,,64.87427200000093,64.38192899999558,64.38557519999449,64.38557519999449,64.8679312000022,65.96213729999727,65.96213729999727,z,0.3157324000057997,None,,,,,,,,,,,SS_th,001,2025-03-11_22h33.02.862,MainFlow,2024.2.4,143.49940520870794,2025-03-11 22h33.13.886300 +0700,
1,95,1,word/wordth0951.png,image/True/img95.png,20,20,0,z,0.5656176999909803,None,0,20,20,20,66.28367920000164,,,,,,,67.77655419999792,67.27919839999231,67.28244179999456,67.28244179999456,67.77080189999833,68.92951619999076,68.92951619999076,z,0.5656176999909803,None,67.77655419999792,67.77655419999792,68.92951619999076,,,,,,,,SS_th,001,2025-03-11_22h33.02.862,MainFlow,2024.2.4,143.49940520870794,2025-03-11 22h33.13.886300 +0700,
1,41,1,word/wordth0411.png,image/True/img41.png,21,21,0,z,0.43863380000402685,None,0,21,21,21,69.50522690000071,,,,,,,71.00505880000128,70.51278499999898,70.51621159999922,70.51621159999922,70.99963669999852,72.14125980000244,72.14125980000244,z,0.43863380000402685,None,71.00505880000128,71.00505880000128,,,,,,,,,SS_th,001,2025-03-11_22h33.02.862,MainFlow,2024.2.4,143.49940520870794,2025-03-11 22h33.13.886300 +0700,
1,8,1,word/wordth0081.png,image/True/img08.png,22,22,0,z,0.5459429999900749,None,0,22,22,22,72.58908939998946,,,,,,,74.09482469999057,73.6089987000014,73.61223990000144,73.61223990000144,74.08864249999169,75.18642450000334,75.18642450000334,z,0.5459429999900749,None,,,,,,,,,,,SS_th,001,2025-03-11_22h33.02.862,MainFlow,2024.2.4,143.49940520870794,2025-03-11 22h33.13.886300 +0700,
1,60,1,word/wordth0601.png,image/True/img60.png,23,23,0,z,0.3324337999947602,None,0,23,23,23,75.74012459999358,,,,,,,77.23301769999671,76.73474220000207,76.7379224000033,76.7379224000033,77.22733549999248,78.34207259998948,78.34207259998948,z,0.3324337999947602,None,77.23301769999671,77.23301769999671,78.34207259998948,,,,,,,,SS_th,001,2025-03-11_22h33.02.862,MainFlow,2024.2.4,143.49940520870794,2025-03-11 22h33.13.886300 +0700,
1,48,0,word/wordth0481.png,image/False/imgf48.png,24,24,0,x,0.5070811000041431,None,0,24,24,24,78.68403689999832,,,,,,,80.19097509999119,79.69287250000343,79.69616389999283,79.69616389999283,80.18465629999992,81.33413920000021,81.33413920000021,x,0.5070811000041431,None,,,,,,,,,,,SS_th,001,2025-03-11_22h33.02.862,MainFlow,2024.2.4,143.49940520870794,2025-03-11 22h33.13.886300 +0700,
1,41,0,word/wordth0411.png,image/False/imgf41.png,25,25,0,x,0.7776076000009198,None,0,25,25,25,81.85040260000096,,,,,,,83.34296999999788,82.84569609999016,82.8490873999981,82.8490873999981,83.33764699999301,84.43643419998989,84.43643419998989,x,0.7776076000009198,None,83.34296999999788,83.34296999999788,84.43643419998989,,,,,,,,SS_th,001,2025-03-11_22h33.02.862,MainFlow,2024.2.4,143.49940520870794,2025-03-11 22h33.13.886300 +0700,
1,54,0,word/wordth0541.png,image/False/imgf54.png,26,26,0,x,0.7588701000058791,None,0,26,26,26,85.22437899999204,,,,,,,86.73125660000369,86.2384466999938,86.24128879999625,86.24128879999625,86.7248988999927,87.84310729999561,87.84310729999561,x,0.7588701000058791,None,,,,,,,,,,,SS_th,001,2025-03-11_22h33.02.862,MainFlow,2024.2.4,143.49940520870794,2025-03-11 22h33.13.886300 +0700,
1,54,1,word/wordth0541.png,image/True/img54.png,27,27,0,z,2.0704501000000164,None,0,27,27,27,88.61260209999455,,,,,,,90.10561849999067,89.60986070000217,89.61350120000134,89.61350120000134,90.10035379999317,91.27194549998967,91.27194549998967,z,2.0704501000000164,None,90.10561849999067,90.10561849999067,91.27194549998967,,,,,,,,SS_th,001,2025-03-11_22h33.02.862,MainFlow,2024.2.4,143.49940520870794,2025-03-11 22h33.13.886300 +0700,
1,63,0,word/wordth0631.png,image/False/imgf63.png,28,28,0,z,0.3445281000022078,None,0,28,28,28,93.35073169998941,,,,,,,94.85472999999183,94.3648463999998,94.36795919999713,94.36795919999713,94.84855029999744,96.00173899999936,96.00173899999936,z,0.3445281000022078,None,,,94.36795919999713,,,,,,,,SS_th,001,2025-03-11_22h33.02.862,MainFlow,2024.2.4,143.49940520870794,2025-03-11 22h33.13.886300 +0700,
1,37,0,word/wordth0371.png,image/False/imgf37.png,29,29,0,x,0.6129951000039,None,0,29,29,29,96.35439819999738,,,,,,,97.86101999999664,97.37034629999835,97.37357909999264,97.37357909999264,97.85483399999794,99.02048029999423,99.02048029999423,x,0.6129951000039,None,,,,,,,,,,,SS_th,001,2025-03-11_22h33.02.862,MainFlow,2024.2.4,143.49940520870794,2025-03-11 22h33.13.886300 +0700,
1,54,0,word/wordth0541.png,image/False/imgf54.png,30,30,0,x,1.7326237999950536,None,0,30,30,30,99.64518989999488,,,,,,,101.13803339999868,100.64449779999268,100.64812959999836,100.64812959999836,101.1323154999991,102.2617498000036,102.2617498000036,x,1.7326237999950536,None,101.13803339999868,101.13803339999868,102.2617498000036,,,,,,,,SS_th,001,2025-03-11_22h33.02.862,MainFlow,2024.2.4,143.49940520870794,2025-03-11 22h33.13.886300 +0700,
1,48,1,word/wordth0481.png,image/True/img48.png,31,31,0,z,0.327970499987714,None,0,31,31,31,104.00683369999751,,,,,,,105.49827099998947,105.00005449999298,105.00278280000202,105.00278280000202,105.48663699999452,106.64600449999853,106.64600449999853,z,0.327970499987714,None,105.49146209999162,105.49146209999162,106.64600449999853,,,,,,,,SS_th,001,2025-03-11_22h33.02.862,MainFlow,2024.2.4,143.49940520870794,2025-03-11 22h33.13.886300 +0700,
1,26,0,word/wordth0261.png,image/False/imgf26.png,32,32,0,x,1.3084363999951165,None,0,32,32,32,106.98557720000099,,,,,,,108.49111719999928,108.0048756999895,108.00835639999423,108.00835639999423,108.484701399997,109.64871139999013,109.64871139999013,x,1.3084363999951165,None,,,,,,,,,,,SS_th,001,2025-03-11_22h33.02.862,MainFlow,2024.2.4,143.49940520870794,2025-03-11 22h33.13.886300 +0700,
1,59,0,word/wordth0591.png,image/False/imgf59.png,33,33,0,x,0.6111116000101902,None,0,33,33,33,110.96933969999372,,,,,,,112.47641109999677,111.97836959999404,111.98179350000282,111.98179350000282,112.4702738999913,113.55358120000164,113.55358120000164,x,0.6111116000101902,None,,,,,,,,,,,SS_th,001,2025-03-11_22h33.02.862,MainFlow,2024.2.4,143.49940520870794,2025-03-11 22h33.13.886300 +0700,
1,8,1,word/wordth0081.png,image/True/img08.png,34,34,0,z,0.3517458999995142,None,0,34,34,34,114.1770239000034,,,,,,,115.66998279999825,115.1715000999975,115.17488890000095,115.17488890000095,115.6643422999914,116.7700438000029,116.7700438000029,z,0.3517458999995142,None,115.66998279999825,115.66998279999825,116.7700438000029,,,,,,,,SS_th,001,2025-03-11_22h33.02.862,MainFlow,2024.2.4,143.49940520870794,2025-03-11 22h33.13.886300 +0700,
1,66,1,word/wordth0661.png,image/True/img66.png,35,35,0,z,0.42823499999940395,None,0,35,35,35,117.13012809999054,,,,,,,118.63478739999118,118.13686990000133,118.14066489999823,118.14066489999823,118.62863999999536,119.75044879999768,119.75044879999768,z,0.42823499999940395,None,,,118.14066489999823,,,,,,,,SS_th,001,2025-03-11_22h33.02.862,MainFlow,2024.2.4,143.49940520870794,2025-03-11 22h33.13.886300 +0700,
1,24,0,word/wordth0241.png,image/False/imgf24.png,36,36,0,x,2.488706499992986,None,0,36,36,36,120.19049559999257,,,,,,,121.68255549999594,121.18969939999806,121.19302069999685,121.19302069999685,121.67646590000368,122.80914230000053,122.80914230000053,x,2.488706499992986,None,121.68255549999594,121.68255549999594,122.80914230000053,,,,,,,,SS_th,001,2025-03-11_22h33.02.862,MainFlow,2024.2.4,143.49940520870794,2025-03-11 22h33.13.886300 +0700,
1,14,1,word/wordth0141.png,image/True/img14.png,37,37,0,z,0.30275930000061635,None,0,37,37,37,125.30693150000297,,,,,,,126.81356539999251,126.32598049999797,126.32914370000071,126.32914370000071,126.80723679999937,127.98006689999602,127.98006689999602,z,0.30275930000061635,None,,,,,,,,,,,SS_th,001,2025-03-11_22h33.02.862,MainFlow,2024.2.4,143.49940520870794,2025-03-11 22h33.13.886300 +0700,
1,20,0,word/wordth0201.png,image/False/imgf20.png,38,38,0,x,0.583340600001975,None,0,38,38,38,128.29248519999965,,,,,,,129.78542099999322,129.29063639999367,129.2943421999953,129.2943421999953,129.78015109999978,130.95289210000192,130.95289210000192,x,0.583340600001975,None,129.78542099999322,129.78542099999322,130.95289210000192,,,,,,,,SS_th,001,2025-03-11_22h33.02.862,MainFlow,2024.2.4,143.49940520870794,2025-03-11 22h33.13.886300 +0700,
1,89,0,word/wordth0891.png,image/False/imgf89.png,39,39,0,x,0.6325581999990391,None,0,39,39,39,131.5451066999958,,,,,,,133.04848869999114,132.56481090000307,132.56844350000028,132.56844350000028,133.04225519999454,134.16382370000065,134.16382370000065,x,0.6325581999990391,None,,,132.56844350000028,,,,,,,,SS_th,001,2025-03-11_22h33.02.862,MainFlow,2024.2.4,143.49940520870794,2025-03-11 22h33.13.886300 +0700,
1,64,0,word/wordth0641.png,image/False/imgf64.png,40,40,0,x,0.5829770999989705,None,0,40,40,40,134.80509519999032,,,,,,,136.29800270000123,135.80537390000245,135.80839049999486,135.80839049999486,136.29229460000352,137.4059447000036,137.4059447000036,x,0.5829770999989705,None,136.29800270000123,136.29800270000123,137.4059447000036,,,,,,,,SS_th,001,2025-03-11_22h33.02.862,MainFlow,2024.2.4,143.49940520870794,2025-03-11 22h33.13.886300 +0700,
1,56,1,word/wordth0561.png,image/True/img56.png,41,41,0,z,0.4812433000042802,None,0,41,41,41,137.9987720999925,,,,,,,139.49192289999337,138.9974799999909,139.00034509999387,139.00034509999387,139.48588909998944,140.60265169999911,140.60265169999911,z,0.4812433000042802,None,139.49192289999337,139.49192289999337,140.60265169999911,,,,,,,,SS_th,001,2025-03-11_22h33.02.862,MainFlow,2024.2.4,143.49940520870794,2025-03-11 22h33.13.886300 +0700,
1,15,1,word/wordth0151.png,image/True/img15.png,42,42,0,z,0.5546715999953449,None,0,42,42,42,141.0953986999957,,,,,,,142.6023009999917,142.11152089999814,142.1146740999975,142.1146740999975,142.59611909999512,143.75148269999772,143.75148269999772,z,0.5546715999953449,None,,,,,,,,,,,SS_th,001,2025-03-11_22h33.02.862,MainFlow,2024.2.4,143.49940520870794,2025-03-11 22h33.13.886300 +0700,
1,88,0,word/wordth0881.png,image/False/imgf88.png,43,43,0,x,0.848465999995824,None,0,43,43,43,144.31831599998986,,,,,,,145.82394000000204,145.33746759999485,145.34079940000083,145.34079940000083,145.817713299999,146.93025520000083,146.93025520000083,x,0.848465999995824,None,,,145.34079940000083,,,,,,,,SS_th,001,2025-03-11_22h33.02.862,MainFlow,2024.2.4,143.49940520870794,2025-03-11 22h33.13.886300 +0700,
1,94,1,word/wordth0941.png,image/True/img94.png,44,44,0,z,0.3071337000001222,None,0,44,44,44,147.78863249999995,,,,,,,149.281596300003,148.78678619999846,148.79014519999328,148.79014519999328,149.2765742999909,150.38878009999462,150.38878009999462,z,0.3071337000001222,None,149.281596300003,149.281596300003,150.38878009999462,,,,,,,,SS_th,001,2025-03-11_22h33.02.862,MainFlow,2024.2.4,143.49940520870794,2025-03-11 22h33.13.886300 +0700,
1,40,0,word/wordth0401.png,image/False/imgf40.png,45,45,0,x,0.5404745999985607,None,0,45,45,45,150.70506169999135,,,,,,,152.20460979999916,151.7092363999982,151.71220209999592,151.71220209999592,152.1989128999994,153.33185940000112,153.33185940000112,x,0.5404745999985607,None,152.20460979999916,152.20460979999916,,,,,,,,,SS_th,001,2025-03-11_22h33.02.862,MainFlow,2024.2.4,143.49940520870794,2025-03-11 22h33.13.886300 +0700,
1,41,0,word/wordth0411.png,image/False/imgf41.png,46,46,0,x,0.5127015000034589,None,0,46,46,46,153.88466129999142,,,,,,,155.37755999999354,154.88101309999183,154.88440399999672,154.88440399999672,155.37182499999471,156.4545233999961,156.4545233999961,x,0.5127015000034589,None,155.37755999999354,155.37755999999354,156.4545233999961,,,,,,,,SS_th,001,2025-03-11_22h33.02.862,MainFlow,2024.2.4,143.49940520870794,2025-03-11 22h33.13.886300 +0700,
1,7,1,word/wordth0071.png,image/True/img07.png,47,47,0,z,0.4830969000031473,None,0,47,47,47,156.97632349999913,,,,,,,158.48127409999142,157.985251399994,157.98855310000363,157.98855310000363,158.4750531000027,159.58787059999304,159.58787059999304,z,0.4830969000031473,None,,,,,,,,,,,SS_th,001,2025-03-11_22h33.02.862,MainFlow,2024.2.4,143.49940520870794,2025-03-11 22h33.13.886300 +0700,
1,60,0,word/wordth0601.png,image/False/imgf60.png,48,48,0,x,0.9465443999943091,None,0,48,48,48,160.07807449999382,,,,,,,161.5706887999986,161.0738973999978,161.07728029999998,161.07728029999998,161.5651887999993,162.70377670000016,162.70377670000016,x,0.9465443999943091,None,161.5706887999986,161.5706887999986,162.70377670000016,,,,,,,,SS_th,001,2025-03-11_22h33.02.862,MainFlow,2024.2.4,143.49940520870794,2025-03-11 22h33.13.886300 +0700,
1,23,0,word/wordth0231.png,image/False/imgf23.png,49,49,0,x,3.390943399994285,None,0,49,49,49,163.66048500000034,,,,,,,165.16747800000303,164.70481209999707,164.7081038999895,164.7081038999895,165.1609405999916,166.3081220000022,166.3081220000022,x,3.390943399994285,None,,,,,,,,,,,SS_th,001,2025-03-11_22h33.02.862,MainFlow,2024.2.4,143.49940520870794,2025-03-11 22h33.13.886300 +0700,
1,68,0,word/wordth0681.png,image/False/imgf68.png,50,50,0,z,0.35433000000193715,None,0,50,50,50,169.70801010000287,,,,,,,171.20099990000017,170.70596369999112,170.70935859999736,170.70935859999736,171.1951407000015,172.28986459999578,172.28986459999578,z,0.35433000000193715,None,171.20099990000017,171.20099990000017,172.28986459999578,,,,,,,,SS_th,001,2025-03-11_22h33.02.862,MainFlow,2024.2.4,143.49940520870794,2025-03-11 22h33.13.886300 +0700,
1,26,1,word/wordth0261.png,image/True/img26.png,51,51,0,z,0.918728500008001,None,0,51,51,51,172.6538550999976,,,,,,,174.14478869999584,173.64721209999698,173.65051049999602,173.65051049999602,174.13918899999408,175.31601209999644,175.31601209999644,z,0.918728500008001,None,174.14478869999584,174.14478869999584,175.31601209999644,,,,,,,,SS_th,001,2025-03-11_22h33.02.862,MainFlow,2024.2.4,143.49940520870794,2025-03-11 22h33.13.886300 +0700,
1,89,0,word/wordth0891.png,image/False/imgf89.png,52,52,0,x,0.6325804999942193,None,0,52,52,52,176.24291610000364,,,,,,,177.73421199999575,177.23826939999708,177.2415927999973,177.2415927999973,177.72848229999363,178.83337759999267,178.83337759999267,x,0.6325804999942193,None,177.73421199999575,177.73421199999575,178.83337759999267,,,,,,,,SS_th,001,2025-03-11_22h33.02.862,MainFlow,2024.2.4,143.49940520870794,2025-03-11 22h33.13.886300 +0700,
1,3,0,word/wordth0031.png,image/False/imgf03.png,53,53,0,x,0.7499222999904305,None,0,53,53,53,179.4769193999964,,,,,,,180.98366279999027,180.49081699999806,180.49441879999358,180.49441879999358,180.97740609999164,182.0909379999939,182.0909379999939,x,0.7499222999904305,None,,,,,,,,,,,SS_th,001,2025-03-11_22h33.02.862,MainFlow,2024.2.4,143.49940520870794,2025-03-11 22h33.13.886300 +0700,
1,55,1,word/wordth0551.png,image/True/img55.png,54,54,0,z,1.2094486999994842,None,0,54,54,54,182.85128069999337,,,,,,,184.34429239999736,183.8465825000021,183.85004799999297,183.85004799999297,184.33919369999785,185.47429739999643,185.47429739999643,z,1.2094486999994842,None,184.34429239999736,184.34429239999736,185.47429739999643,,,,,,,,SS_th,001,2025-03-11_22h33.02.862,MainFlow,2024.2.4,143.49940520870794,2025-03-11 22h33.13.886300 +0700,
1,46,1,word/wordth0461.png,image/True/img46.png,55,55,0,z,0.6109188999980688,None,0,55,55,55,186.69075129998964,,,,,,,188.1837913999916,187.6860744000005,187.6895063999982,187.6895063999982,188.17841310000222,189.3399924999976,189.3399924999976,z,0.6109188999980688,None,188.1837913999916,188.1837913999916,189.3399924999976,,,,,,,,SS_th,001,2025-03-11_22h33.02.862,MainFlow,2024.2.4,143.49940520870794,2025-03-11 22h33.13.886300 +0700,
1,1,1,word/wordth0011.png,image/True/img01.png,56,56,0,z,0.6231221999914851,None,0,56,56,56,189.96143689999008,,,,,,,191.46081720000075,190.96794239999144,190.97076229999948,190.97076229999948,191.45532919999096,192.61098389999825,192.61098389999825,z,0.6231221999914851,None,191.46081720000075,191.46081720000075,192.61098389999825,,,,,,,,SS_th,001,2025-03-11_22h33.02.862,MainFlow,2024.2.4,143.49940520870794,2025-03-11 22h33.13.886300 +0700,
1,3,1,word/wordth0031.png,image/True/img03.png,57,57,0,z,0.6628440000058617,None,0,57,57,57,193.2451122999919,,,,,,,194.73797449999256,194.2409784999909,194.2443185000011,194.2443185000011,194.73283549999178,195.8773868999997,195.8773868999997,z,0.6628440000058617,None,194.73797449999256,194.73797449999256,195.8773868999997,,,,,,,,SS_th,001,2025-03-11_22h33.02.862,MainFlow,2024.2.4,143.49940520870794,2025-03-11 22h33.13.886300 +0700,
1,76,1,word/wordth0761.png,image/True/img76.png,58,58,0,z,0.7647758000093745,None,0,58,58,58,196.55014039999514,,,,,,,198.04977759999747,197.5570083999919,197.560235500001,197.560235500001,198.04367639998964,199.16934209999454,199.16934209999454,z,0.7647758000093745,None,198.04977759999747,198.04977759999747,,,,,,,,,SS_th,001,2025-03-11_22h33.02.862,MainFlow,2024.2.4,143.49940520870794,2025-03-11 22h33.13.886300 +0700,
1,52,0,word/wordth0521.png,image/False/imgf52.png,59,59,0,x,1.7806472999945981,None,0,59,59,59,199.9451784999983,,,,,,,201.43818789999932,200.94296519999625,200.9457129999937,200.9457129999937,201.43299309999566,202.5616827999911,202.5616827999911,x,1.7806472999945981,None,201.43818789999932,201.43818789999932,202.5616827999911,,,,,,,,SS_th,001,2025-03-11_22h33.02.862,MainFlow,2024.2.4,143.49940520870794,2025-03-11 22h33.13.886300 +0700,
1,14,0,word/wordth0141.png,image/False/imgf14.png,60,60,0,x,1.168946899997536,None,0,60,60,60,204.35408979999193,,,,,,,205.84679539999343,205.35439169999154,205.3577285999927,205.3577285999927,205.84084029999212,206.97916629999236,206.97916629999236,x,1.168946899997536,None,205.84679539999343,205.84679539999343,206.97916629999236,,,,,,,,SS_th,001,2025-03-11_22h33.02.862,MainFlow,2024.2.4,143.49940520870794,2025-03-11 22h33.13.886300 +0700,
1,61,1,word/wordth0611.png,image/True/img61.png,61,61,0,z,0.5966326000052504,None,0,61,61,61,208.1613101999974,,,,,,,209.65860409999732,209.16403139999602,209.166727799995,209.166727799995,209.65287989999342,210.80680089999805,210.80680089999805,z,0.5966326000052504,None,209.65860409999732,209.65860409999732,210.80680089999805,,,,,,,,SS_th,001,2025-03-11_22h33.02.862,MainFlow,2024.2.4,143.49940520870794,2025-03-11 22h33.13.886300 +0700,
1,93,0,word/wordth0931.png,image/False/imgf93.png,62,62,0,x,0.7714707999984967,None,0,62,62,62,211.4151375999936,,,,,,,212.90810119999514,212.4096384000004,212.41276700000162,212.41276700000162,212.90260639999178,214.01296510000248,214.01296510000248,x,0.7714707999984967,None,212.90810119999514,212.90810119999514,214.01296510000248,,,,,,,,SS_th,001,2025-03-11_22h33.02.862,MainFlow,2024.2.4,143.49940520870794,2025-03-11 22h33.13.886300 +0700,
1,37,1,word/wordth0371.png,image/True/img37.png,63,63,0,z,1.5161318000027677,None,0,63,63,63,214.79637519999233,,,,,,,216.28937149999547,215.7946179999999,215.79815360000066,215.79815360000066,216.28379249999125,217.44908069999656,217.44908069999656,z,1.5161318000027677,None,216.28937149999547,216.28937149999547,217.44908069999656,,,,,,,,SS_th,001,2025-03-11_22h33.02.862,MainFlow,2024.2.4,143.49940520870794,2025-03-11 22h33.13.886300 +0700,
1,79,0,word/wordth0791.png,image/False/imgf79.png,64,64,0,x,0.8211939000029815,None,0,64,64,64,218.97623929999827,,,,,,,220.4830520999967,219.98869839998952,219.99212959999568,219.99212959999568,220.47675479999452,221.6018075000029,221.6018075000029,x,0.8211939000029815,None,,,,,,,,,,,SS_th,001,2025-03-11_22h33.02.862,MainFlow,2024.2.4,143.49940520870794,2025-03-11 22h33.13.886300 +0700,
1,37,0,word/wordth0371.png,image/False/imgf37.png,65,65,0,x,1.0989724000100978,None,0,65,65,65,222.43375899999228,,,,,,,223.92690759999095,223.4326352999924,223.43630139999732,223.43630139999732,223.9215334999899,225.07817480000085,225.07817480000085,x,1.0989724000100978,None,223.92690759999095,223.92690759999095,225.07817480000085,,,,,,,,SS_th,001,2025-03-11_22h33.02.862,MainFlow,2024.2.4,143.49940520870794,2025-03-11 22h33.13.886300 +0700,
1,3,1,word/wordth0031.png,image/True/img03.png,66,66,0,x,0.7628253000002587,None,0,66,66,66,226.1830428999965,,,,,,,227.6691143999924,227.17618019999645,227.17953179999313,227.17953179999313,227.66339519999747,228.78520969999954,228.78520969999954,x,0.7628253000002587,None,227.6691143999924,227.6691143999924,228.78520969999954,,,,,,,,SS_th,001,2025-03-11_22h33.02.862,MainFlow,2024.2.4,143.49940520870794,2025-03-11 22h33.13.886300 +0700,
1,93,0,word/wordth0931.png,image/False/imgf93.png,67,67,0,x,0.7993950999953086,None,0,67,67,67,229.55747030000202,,,,,,,231.0501893999899,230.55575859999226,230.55941099999472,230.55941099999472,231.04426319999038,232.1456712999934,232.1456712999934,x,0.7993950999953086,None,231.0501893999899,231.0501893999899,232.1456712999934,,,,,,,,SS_th,001,2025-03-11_22h33.02.862,MainFlow,2024.2.4,143.49940520870794,2025-03-11 22h33.13.886300 +0700,
1,30,1,word/wordth0301.png,image/True/img30.png,68,68,0,z,0.7286319999984698,None,0,68,68,68,232.95457859999442,,,,,,,234.45257379999384,233.95993830000225,233.963571100001,233.963571100001,234.4472631999961,235.57447919998958,235.57447919998958,z,0.7286319999984698,None,234.45257379999384,234.45257379999384,235.57447919998958,,,,,,,,SS_th,001,2025-03-11_22h33.02.862,MainFlow,2024.2.4,143.49940520870794,2025-03-11 22h33.13.886300 +0700,
1,46,0,word/wordth0461.png,image/False/imgf46.png,69,69,0,x,0.6712573999975575,None,0,69,69,69,236.31315659999382,,,,,,,237.80605549999746,237.31379499999457,237.31718030000047,237.31718030000047,237.80078299999877,238.9368334000028,238.9368334000028,x,0.6712573999975575,None,237.80605549999746,237.80605549999746,238.9368334000028,,,,,,,,SS_th,001,2025-03-11_22h33.02.862,MainFlow,2024.2.4,143.49940520870794,2025-03-11 22h33.13.886300 +0700,
1,27,0,word/wordth0271.png,image/False/imgf27.png,70,70,0,x,1.2462276000005659,None,0,70,70,70,239.61802549999265,,,,,,,241.12476589999278,240.62570649999543,240.62901859999693,240.62901859999693,241.11837640000158,242.2316942000034,242.2316942000034,x,1.2462276000005659,None,,,,,,,,,,,SS_th,001,2025-03-11_22h33.02.862,MainFlow,2024.2.4,143.49940520870794,2025-03-11 22h33.13.886300 +0700,
1,37,1,word/wordth0371.png,image/True/img37.png,71,71,0,z,0.4792483000055654,None,0,71,71,71,243.48574469999585,,,,,,,244.97804409998935,244.4833695999987,244.48696670000209,244.48696670000209,244.9720789999992,246.11721589999797,246.11721589999797,z,0.4792483000055654,None,244.97804409998935,244.97804409998935,246.11721589999797,,,,,,,,SS_th,001,2025-03-11_22h33.02.862,MainFlow,2024.2.4,143.49940520870794,2025-03-11 22h33.13.886300 +0700,
1,20,1,word/wordth0201.png,image/True/img20.png,72,72,0,z,0.5689094999979716,None,0,72,72,72,246.6027008999954,,,,,,,248.09582010000304,247.5986653,247.60192619998998,247.60192619998998,248.0900377999933,249.2189825999958,249.2189825999958,z,0.5689094999979716,None,248.09582010000304,248.09582010000304,249.2189825999958,,,,,,,,SS_th,001,2025-03-11_22h33.02.862,MainFlow,2024.2.4,143.49940520870794,2025-03-11 22h33.13.886300 +0700,
1,17,1,word/wordth0171.png,image/True/img17.png,73,73,0,z,0.5781702999956906,None,0,73,73,73,249.79654840000148,,,,,,,251.28967009999906,250.79716639999242,250.79996540000138,250.79996540000138,251.28469809998933,252.42729379999219,252.42729379999219,z,0.5781702999956906,None,251.28967009999906,251.28967009999906,252.42729379999219,,,,,,,,SS_th,001,2025-03-11_22h33.02.862,MainFlow,2024.2.4,143.49940520870794,2025-03-11 22h33.13.886300 +0700,
1,10,0,word/wordth0101.png,image/False/imgf10.png,74,74,0,x,0.5937638000032166,None,0,74,74,74,253.018124299997,,,,,,,254.51794649999647,254.0256606999901,254.028636499992,254.028636499992,254.5120978999912,255.66093060000276,255.66093060000276,x,0.5937638000032166,None,254.51794649999647,254.51794649999647,,,,,,,,,SS_th,001,2025-03-11_22h33.02.862,MainFlow,2024.2.4,143.49940520870794,2025-03-11 22h33.13.886300 +0700,
1,68,1,word/wordth0681.png,image/True/img68.png,75,75,0,z,0.461000299997977,None,0,75,75,75,256.263695200003,,,,,,,257.7673269999941,257.26847439999983,257.2719270999951,257.2719270999951,257.7610580000037,258.82755709999765,258.82755709999765,z,0.461000299997977,None,,,257.2719270999951,,,,,,,,SS_th,001,2025-03-11_22h33.02.862,MainFlow,2024.2.4,143.49940520870794,2025-03-11 22h33.13.886300 +0700,
1,82,0,word/wordth0821.png,image/False/imgf82.png,76,76,0,x,0.6671038999920711,None,0,76,76,76,259.29474479999044,,,,,,,260.8015909999958,260.3138442999916,260.31716089999827,260.31716089999827,260.79512329999125,261.91371339999023,261.91371339999023,x,0.6671038999920711,None,,,,,,,,,,,SS_th,001,2025-03-11_22h33.02.862,MainFlow,2024.2.4,143.49940520870794,2025-03-11 22h33.13.886300 +0700,
1,42,1,word/wordth0421.png,image/True/img42.png,77,77,0,z,0.9812837000063155,None,0,77,77,77,262.59263959999953,,,,,,,264.09264339999936,263.5980637999892,263.60158570000203,263.60158570000203,264.0872398999927,265.2218666999979,265.2218666999979,z,0.9812837000063155,None,264.09264339999936,264.09264339999936,265.2218666999979,,,,,,,,SS_th,001,2025-03-11_22h33.02.862,MainFlow,2024.2.4,143.49940520870794,2025-03-11 22h33.13.886300 +0700,
1,59,1,word/wordth0591.png,image/True/img59.png,78,78,0,z,0.40353440000035334,None,0,78,78,78,266.2100516999926,,,,,,,267.70312350000313,267.209844099998,267.21336569999403,267.21336569999403,267.69799760000024,268.80545689999417,268.80545689999417,z,0.40353440000035334,None,267.70312350000313,267.70312350000313,268.80545689999417,,,,,,,,SS_th,001,2025-03-11_22h33.02.862,MainFlow,2024.2.4,143.49940520870794,2025-03-11 22h33.13.886300 +0700,
1,18,1,word/wordth0181.png,image/True/img18.png,79,79,0,z,0.35177439999824855,None,0,79,79,79,269.2164424999937,,,,,,,270.7163429999928,270.2244056999916,270.22716959999525,270.22716959999525,270.7111212000018,271.80839439999545,271.80839439999545,z,0.35177439999824855,None,270.7163429999928,270.7163429999928,,,,,,,,,SS_th,001,2025-03-11_22h33.02.862,MainFlow,2024.2.4,143.49940520870794,2025-03-11 22h33.13.886300 +0700,
1,63,1,word/wordth0631.png,image/True/img63.png,80,80,0,z,0.5039427000010619,None,0,80,80,80,272.1673369999917,,,,,,,273.66005789999326,273.1619576999947,273.16530709998915,273.16530709998915,273.65452240000013,274.81066829999327,274.81066829999327,z,0.5039427000010619,None,273.66005789999326,273.66005789999326,274.81066829999327,,,,,,,,SS_th,001,2025-03-11_22h33.02.862,MainFlow,2024.2.4,143.49940520870794,2025-03-11 22h33.13.886300 +0700,
1,40,0,word/wordth0401.png,image/False/imgf40.png,81,81,0,x,0.5579471999953967,None,0,81,81,81,275.32628079999995,,,,,,,276.8191536999948,276.3236296999967,276.32724009999947,276.32724009999947,276.8134566999943,277.9371434999921,277.9371434999921,x,0.5579471999953967,None,276.8191536999948,276.8191536999948,277.9371434999921,,,,,,,,SS_th,001,2025-03-11_22h33.02.862,MainFlow,2024.2.4,143.49940520870794,2025-03-11 22h33.13.886300 +0700,
1,55,0,word/wordth0551.png,image/False/imgf55.png,82,82,0,x,0.8430531999911182,None,0,82,82,82,278.50626749999356,,,,,,,280.0060095999943,279.50807850000274,279.5117170000012,279.5117170000012,279.9999414999911,281.1317810000037,281.1317810000037,x,0.8430531999911182,None,280.0060095999943,280.0060095999943,,,,,,,,,SS_th,001,2025-03-11_22h33.02.862,MainFlow,2024.2.4,143.49940520870794,2025-03-11 22h33.13.886300 +0700,
1,26,1,word/wordth0261.png,image/True/img26.png,83,83,0,z,0.8015266000002157,None,0,83,83,83,281.9847943999921,,,,,,,283.4777241999982,282.9809225999925,282.98437120000017,282.98437120000017,283.47257149999496,284.6141094999912,284.6141094999912,z,0.8015266000002157,None,283.4777241999982,283.4777241999982,284.6141094999912,,,,,,,,SS_th,001,2025-03-11_22h33.02.862,MainFlow,2024.2.4,143.49940520870794,2025-03-11 22h33.13.886300 +0700,
1,28,0,word/wordth0281.png,image/False/imgf28.png,84,84,0,x,0.7785629999998491,None,0,84,84,84,285.42249689999153,,,,,,,286.92147859999386,286.42625709999993,286.4291411000013,286.4291411000013,286.916387499994,288.04087840000284,288.04087840000284,x,0.7785629999998491,None,286.92147859999386,286.92147859999386,,,,,,,,,SS_th,001,2025-03-11_22h33.02.862,MainFlow,2024.2.4,143.49940520870794,2025-03-11 22h33.13.886300 +0700,
1,8,0,word/wordth0081.png,image/False/imgf08.png,85,85,0,x,0.8524585999984993,None,0,85,85,85,288.8306314999936,,,,,,,290.3303975000017,289.83290809999744,289.8364227999991,289.8364227999991,290.3246730999963,291.4346947000013,291.4346947000013,x,0.8524585999984993,None,290.3303975000017,290.3303975000017,,,,,,,,,SS_th,001,2025-03-11_22h33.02.862,MainFlow,2024.2.4,143.49940520870794,2025-03-11 22h33.13.886300 +0700,
1,9,1,word/wordth0091.png,image/True/img09.png,86,86,0,x,1.4089750999992248,None,0,86,86,86,292.2953325999988,,,,,,,293.7880981999915,293.29500440000265,293.2983058999962,293.2983058999962,293.7825809999922,294.85072489999584,294.85072489999584,x,1.4089750999992248,None,293.7880981999915,293.7880981999915,294.85072489999584,,,,,,,,SS_th,001,2025-03-11_22h33.02.862,MainFlow,2024.2.4,143.49940520870794,2025-03-11 22h33.13.886300 +0700,
1,78,1,word/wordth0781.png,image/True/img78.png,87,87,0,z,0.747404199995799,None,0,87,87,87,296.2668502000015,,,,,,,297.7733799999987,297.2815234000009,297.28490800000145,297.28490800000145,297.7670977999951,298.8932654999953,298.8932654999953,z,0.747404199995799,None,,,,,,,,,,,SS_th,001,2025-03-11_22h33.02.862,MainFlow,2024.2.4,143.49940520870794,2025-03-11 22h33.13.886300 +0700,
1,1,0,word/wordth0011.png,image/False/imgf01.png,88,88,0,x,0.6580649000097765,None,0,88,88,88,299.6502105999971,,,,,,,301.1408412000019,300.6451662999898,300.6484715999977,300.6484715999977,301.13510109999334,302.2607490999944,302.2607490999944,x,0.6580649000097765,None,301.1408412000019,301.1408412000019,302.2607490999944,,,,,,,,SS_th,001,2025-03-11_22h33.02.862,MainFlow,2024.2.4,143.49940520870794,2025-03-11 22h33.13.886300 +0700,
1,71,1,word/wordth0711.png,image/True/img71.png,89,89,0,z,0.6530135000066366,None,0,89,89,89,302.9251784999942,,,,,,,304.4320798999979,303.93456629999855,303.93800309998915,303.93800309998915,304.4259602999955,305.58688869999605,305.58688869999605,z,0.6530135000066366,None,,,,,,,,,,,SS_th,001,2025-03-11_22h33.02.862,MainFlow,2024.2.4,143.49940520870794,2025-03-11 22h33.13.886300 +0700,
1,93,1,word/wordth0931.png,image/True/img93.png,90,90,0,z,0.3697080999991158,None,0,90,90,90,306.25087730000087,,,,,,,307.7439560999919,307.24911319999956,307.2526100999967,307.2526100999967,307.73865430000296,308.8672555999947,308.8672555999947,z,0.3697080999991158,None,307.7439560999919,307.7439560999919,308.8672555999947,,,,,,,,SS_th,001,2025-03-11_22h33.02.862,MainFlow,2024.2.4,143.49940520870794,2025-03-11 22h33.13.886300 +0700,
1,78,0,word/wordth0781.png,image/False/imgf78.png,91,91,0,x,0.581870699999854,None,0,91,91,91,309.2434080999956,,,,,,,310.73633379999956,310.23811379999097,310.2413940999977,310.2413940999977,310.73113580000063,311.83754469999985,311.83754469999985,x,0.581870699999854,None,310.73633379999956,310.73633379999956,311.83754469999985,,,,,,,,SS_th,001,2025-03-11_22h33.02.862,MainFlow,2024.2.4,143.49940520870794,2025-03-11 22h33.13.886300 +0700,
1,8,0,word/wordth0081.png,image/False/imgf08.png,92,92,0,x,0.5173148000030778,None,0,92,92,92,312.43207419999817,,,,,,,313.937007200002,313.44251149999036,313.4461222999962,313.4461222999962,313.9307107999921,315.0346354999929,315.0346354999929,x,0.5173148000030778,None,,,313.4461222999962,,,,,,,,SS_th,001,2025-03-11_22h33.02.862,MainFlow,2024.2.4,143.49940520870794,2025-03-11 22h33.13.886300 +0700,
1,9,0,word/wordth0091.png,image/False/imgf09.png,93,93,0,x,0.5823065000004135,None,0,93,93,93,315.56163689999084,,,,,,,317.0543830999959,316.56054669999867,316.56414029998996,316.56414029998996,317.04866929999844,318.1620996999991,318.1620996999991,x,0.5823065000004135,None,317.0543830999959,317.0543830999959,318.1620996999991,,,,,,,,SS_th,001,2025-03-11_22h33.02.862,MainFlow,2024.2.4,143.49940520870794,2025-03-11 22h33.13.886300 +0700,
1,75,1,word/wordth0751.png,image/True/img75.png,94,94,0,z,0.5997857000038493,None,0,94,94,94,318.7553992999892,,,,,,,320.26227419999486,319.7742436999979,319.77757599999313,319.77757599999313,320.25596919999225,321.39328429999296,321.39328429999296,z,0.5997857000038493,None,,,,,,,,,,,SS_th,001,2025-03-11_22h33.02.862,MainFlow,2024.2.4,143.49940520870794,2025-03-11 22h33.13.886300 +0700,
1,95,0,word/wordth0951.png,image/False/imgf95.png,95,95,0,x,1.0144144000078086,None,0,95,95,95,322.0046857999987,,,,,,,323.50483879999956,323.01162019999174,323.01500639998994,323.01500639998994,323.49951589999546,324.631541499999,324.631541499999,x,1.0144144000078086,None,323.50483879999956,323.50483879999956,324.631541499999,,,,,,,,SS_th,001,2025-03-11_22h33.02.862,MainFlow,2024.2.4,143.49940520870794,2025-03-11 22h33.13.886300 +0700,
1,70,1,word/wordth0701.png,image/True/img70.png,96,96,0,z,2.439298699988285,None,0,96,96,96,325.6568520000001,,,,,,,327.1635716000019,326.674798299995,326.6778787999938,326.6778787999938,327.1573017999908,328.30722829999286,328.30722829999286,z,2.439298699988285,None,,,,,,,,,,,SS_th,001,2025-03-11_22h33.02.862,MainFlow,2024.2.4,143.49940520870794,2025-03-11 22h33.13.886300 +0700,
1,94,0,word/wordth0941.png,image/False/imgf94.png,97,97,0,x,0.895982100002584,None,0,97,97,97,330.75554399999965,,,,,,,332.2529854000022,331.75464820000343,331.758121699997,331.758121699997,332.24748890000046,333.41684659999737,333.41684659999737,x,0.895982100002584,None,332.2529854000022,332.2529854000022,333.41684659999737,,,,,,,,SS_th,001,2025-03-11_22h33.02.862,MainFlow,2024.2.4,143.49940520870794,2025-03-11 22h33.13.886300 +0700,
1,9,0,word/wordth0091.png,image/False/imgf09.png,98,98,0,x,4.511702099989634,None,0,98,98,98,334.32310799999686,,,,,,,335.82182369999646,335.3235003000009,335.32703929999843,335.32703929999843,335.81652659999963,336.8934695999924,336.8934695999924,x,4.511702099989634,None,335.82182369999646,335.82182369999646,336.8934695999924,,,,,,,,SS_th,001,2025-03-11_22h33.02.862,MainFlow,2024.2.4,143.49940520870794,2025-03-11 22h33.13.886300 +0700,
1,18,0,word/wordth0181.png,image/False/imgf18.png,99,99,0,x,1.1754564000002574,None,0,99,99,99,341.41262629999255,,,,,,,342.9106707000028,342.4126485000015,342.41600359999575,342.41600359999575,342.90551539999433,344.0510890000005,344.0510890000005,x,1.1754564000002574,None,342.9106707000028,342.9106707000028,344.0510890000005,,,,,,,,SS_th,001,2025-03-11_22h33.02.862,MainFlow,2024.2.4,143.49940520870794,2025-03-11 22h33.13.886300 +0700,
1,28,1,word/wordth0281.png,image/True/img28.png,100,100,0,z,0.5834665000002133,None,0,100,100,100,345.2363897000032,,,,,,,346.7221331999899,346.22759110000334,346.23108939999656,346.23108939999656,346.71610389999114,347.88219799999206,347.88219799999206,z,0.5834665000002133,None,346.7221331999899,346.7221331999899,347.88219799999206,,,,,,,,SS_th,001,2025-03-11_22h33.02.862,MainFlow,2024.2.4,143.49940520870794,2025-03-11 22h33.13.886300 +0700,
1,23,1,word/wordth0231.png,image/True/img23.png,101,101,0,z,0.9886726999975508,None,0,101,101,101,348.4719092000014,,,,,,,349.9647724999959,349.4684430999914,349.4717884999991,349.4717884999991,349.95973049999157,351.08530969999265,351.08530969999265,z,0.9886726999975508,None,349.9647724999959,349.9647724999959,351.08530969999265,,,,,,,,SS_th,001,2025-03-11_22h33.02.862,MainFlow,2024.2.4,143.49940520870794,2025-03-11 22h33.13.886300 +0700,
1,30,0,word/wordth0301.png,image/False/imgf30.png,102,102,0,x,0.573006799997529,None,0,102,102,102,352.0824188999977,,,,,,,353.58211380000284,353.08567519999633,353.0894150999957,353.0894150999957,353.5765468000027,354.6804045000026,354.6804045000026,x,0.573006799997529,None,353.58211380000284,353.58211380000284,,,,,,,,,SS_th,001,2025-03-11_22h33.02.862,MainFlow,2024.2.4,143.49940520870794,2025-03-11 22h33.13.886300 +0700,
1,11,1,word/wordth0111.png,image/True/img11.png,103,103,0,z,0.3511253000033321,None,0,103,103,103,355.2622839999967,,,,,,,356.7690306000004,356.2788584999944,356.282205800002,356.282205800002,356.762897099994,357.9313972999953,357.9313972999953,z,0.3511253000033321,None,,,,,,,,,,,SS_th,001,2025-03-11_22h33.02.862,MainFlow,2024.2.4,143.49940520870794,2025-03-11 22h33.13.886300 +0700,
1,75,0,word/wordth0751.png,image/False/imgf75.png,104,104,0,x,0.5794902999914484,None,0,104,104,104,358.29116009999416,,,,,,,359.7755061999924,359.2804827999935,359.2835621999984,359.2835621999984,359.77043499999854,360.92114669999864,360.92114669999864,x,0.5794902999914484,None,359.7755061999924,359.7755061999924,360.92114669999864,,,,,,,,SS_th,001,2025-03-11_22h33.02.862,MainFlow,2024.2.4,143.49940520870794,2025-03-11 22h33.13.886300 +0700,
1,6,0,word/wordth0061.png,image/False/imgf06.png,105,105,0,x,1.674016400007531,None,0,105,105,105,361.5111465999944,,,,,,,363.010938899999,362.51896419998957,362.5218479999894,362.5218479999894,363.00577409999096,364.1251462999935,364.1251462999935,x,1.674016400007531,None,363.010938899999,363.010938899999,,,,,,,,,SS_th,001,2025-03-11_22h33.02.862,MainFlow,2024.2.4,143.49940520870794,2025-03-11 22h33.13.886300 +0700,
1,27,1,word/wordth0271.png,image/True/img27.png,106,106,0,z,0.4677735000004759,None,0,106,106,106,365.80876040000294,,,,,,,367.30180099999416,366.80386439998983,366.80709839999327,366.80709839999327,367.2965467999893,368.427093899998,368.427093899998,z,0.4677735000004759,None,367.30180099999416,367.30180099999416,368.427093899998,,,,,,,,SS_th,001,2025-03-11_22h33.02.862,MainFlow,2024.2.4,143.49940520870794,2025-03-11 22h33.13.886300 +0700,
1,1,1,word/wordth0011.png,image/True/img01.png,107,107,0,z,1.2158292999956757,None,0,107,107,107,368.905445700002,,,,,,,370.39814819999447,369.9051441999909,369.908376899999,369.908376899999,370.39229049999267,371.52191309999034,371.52191309999034,z,1.2158292999956757,None,370.39814819999447,370.39814819999447,371.52191309999034,,,,,,,,SS_th,001,2025-03-11_22h33.02.862,MainFlow,2024.2.4,143.49940520870794,2025-03-11 22h33.13.886300 +0700,
1,44,0,word/wordth0441.png,image/False/imgf44.png,108,108,0,x,0.6118431999930181,None,0,108,108,108,372.7449278999993,,,,,,,374.2515984999918,373.7559040999913,373.75906450000184,373.75906450000184,374.2454318999953,375.38614839999354,375.38614839999354,x,0.6118431999930181,None,,,,,,,,,,,SS_th,001,2025-03-11_22h33.02.862,MainFlow,2024.2.4,143.49940520870794,2025-03-11 22h33.13.886300 +0700,
1,48,0,word/wordth0481.png,image/False/imgf48.png,109,109,0,x,0.6233942000108073,None,0,109,109,109,376.00826279999455,,,,,,,377.5078985,377.01194229999965,377.01559139999154,377.01559139999154,377.502064100001,378.63778530000127,378.63778530000127,x,0.6233942000108073,None,377.5078985,377.5078985,,,,,,,,,SS_th,001,2025-03-11_22h33.02.862,MainFlow,2024.2.4,143.49940520870794,2025-03-11 22h33.13.886300 +0700,
1,60,0,word/wordth0601.png,image/False/imgf60.png,110,110,0,x,0.5291446000046562,None,0,110,110,110,379.2714297999919,,,,,,,380.77115400000184,380.2760220999917,380.2797989999963,380.2797989999963,380.76569869999366,381.88271609999356,381.88271609999356,x,0.5291446000046562,None,380.77115400000184,380.77115400000184,,,,,,,,,SS_th,001,2025-03-11_22h33.02.862,MainFlow,2024.2.4,143.49940520870794,2025-03-11 22h33.13.886300 +0700,
1,96,1,word/wordth0961.png,image/True/img96.png,111,111,0,z,0.5754297999956179,None,0,111,111,111,382.4252131999965,,,,,,,383.93043300000136,383.4381291000027,383.44150909999735,383.44150909999735,383.9240841999999,385.06669059999695,385.06669059999695,z,0.5754297999956179,None,,,383.44150909999735,,,,,,,,SS_th,001,2025-03-11_22h33.02.862,MainFlow,2024.2.4,143.49940520870794,2025-03-11 22h33.13.886300 +0700,
1,79,0,word/wordth0791.png,image/False/imgf79.png,112,112,0,x,0.6375177000008989,None,0,112,112,112,385.6521705999912,,,,,,,387.14503949999926,386.65027649998956,386.65357460000087,386.65357460000087,387.1397195000027,388.27223740000045,388.27223740000045,x,0.6375177000008989,None,387.14503949999926,387.14503949999926,388.27223740000045,,,,,,,,SS_th,001,2025-03-11_22h33.02.862,MainFlow,2024.2.4,143.49940520870794,2025-03-11 22h33.13.886300 +0700,
1,7,0,word/wordth0071.png,image/False/imgf07.png,113,113,0,x,0.8222987000044668,None,0,113,113,113,388.9169303999952,,,,,,,390.40821699998924,389.91421190000256,389.91745219999575,389.91745219999575,390.4026384000026,391.56675610000093,391.56675610000093,x,0.8222987000044668,None,390.40821699998924,390.40821699998924,391.56675610000093,,,,,,,,SS_th,001,2025-03-11_22h33.02.862,MainFlow,2024.2.4,143.49940520870794,2025-03-11 22h33.13.886300 +0700,
1,36,0,word/wordth0361.png,image/False/imgf36.png,114,114,0,x,1.3439846000110265,None,0,114,114,114,392.4009756000014,,,,,,,393.8936767999985,393.39655479999783,393.3998506999924,393.3998506999924,393.8881073999946,395.0186307999975,395.0186307999975,x,1.3439846000110265,None,393.8936767999985,393.8936767999985,395.0186307999975,,,,,,,,SS_th,001,2025-03-11_22h33.02.862,MainFlow,2024.2.4,143.49940520870794,2025-03-11 22h33.13.886300 +0700,
1,71,0,word/wordth0711.png,image/False/imgf71.png,115,115,0,x,0.831190199998673,None,0,115,115,115,396.37253090000013,,,,,,,397.86510070000077,397.3686044999922,397.3723555000033,397.3723555000033,397.85937219999323,399.03399369999534,399.03399369999534,x,0.831190199998673,None,397.86510070000077,397.86510070000077,399.03399369999534,,,,,,,,SS_th,001,2025-03-11_22h33.02.862,MainFlow,2024.2.4,143.49940520870794,2025-03-11 22h33.13.886300 +0700,
1,20,0,word/wordth0201.png,image/False/imgf20.png,116,116,0,x,0.5084969000017736,None,0,116,116,116,399.87178980000317,,,,,,,401.3575920000003,400.8594704999996,400.8625631000032,400.8625631000032,401.35270960000344,402.5121275999991,402.5121275999991,x,0.5084969000017736,None,401.3575920000003,401.3575920000003,402.5121275999991,,,,,,,,SS_th,001,2025-03-11_22h33.02.862,MainFlow,2024.2.4,143.49940520870794,2025-03-11 22h33.13.886300 +0700,
1,87,1,word/wordth0871.png,image/True/img87.png,117,117,0,z,0.7751659999921685,None,0,117,117,117,403.0308023999969,,,,,,,404.53744030000234,404.0406950000033,404.0440619000001,404.0440619000001,404.5313484999933,405.6952781,405.6952781,z,0.7751659999921685,None,,,,,,,,,,,SS_th,001,2025-03-11_22h33.02.862,MainFlow,2024.2.4,143.49940520870794,2025-03-11 22h33.13.886300 +0700,
1,50,0,word/wordth0501.png,image/False/imgf50.png,118,118,0,x,0.6783367000025464,None,0,118,118,118,406.4815538999974,,,,,,,407.9881921999913,407.5034603999957,407.5069880999945,407.5069880999945,407.9820525999967,409.10357599999406,409.10357599999406,x,0.6783367000025464,None,,,,,,,,,,,SS_th,001,2025-03-11_22h33.02.862,MainFlow,2024.2.4,143.49940520870794,2025-03-11 22h33.13.886300 +0700,
1,18,1,word/wordth0181.png,image/True/img18.png,119,119,0,z,0.36042350000934675,None,0,119,119,119,409.79354969999986,,,,,,,411.28633399998944,410.79080180000165,410.7941964999918,410.7941964999918,411.2810366999911,412.3891539000033,412.3891539000033,z,0.36042350000934675,None,411.28633399998944,411.28633399998944,412.3891539000033,,,,,,,,SS_th,001,2025-03-11_22h33.02.862,MainFlow,2024.2.4,143.49940520870794,2025-03-11 22h33.13.886300 +0700,
1,71,0,word/wordth0711.png,image/False/imgf71.png,120,120,0,x,0.5903249999973923,None,0,120,120,120,412.7580050999968,,,,,,,414.25094709999394,413.7566645999905,413.76038320000225,413.76038320000225,414.24500699999044,415.394601299995,415.394601299995,x,0.5903249999973923,None,414.25094709999394,414.25094709999394,415.394601299995,,,,,,,,SS_th,001,2025-03-11_22h33.02.862,MainFlow,2024.2.4,143.49940520870794,2025-03-11 22h33.13.886300 +0700,
1,46,1,word/wordth0461.png,image/True/img46.png,121,121,0,z,0.38686569999845233,None,0,121,121,121,415.9936752999929,,,,,,,417.49306459999934,416.99435609999637,416.99764299999515,416.99764299999515,417.48699959999067,418.6450205000001,418.6450205000001,z,0.38686569999845233,None,417.49306459999934,417.49306459999934,,,,,,,,,SS_th,001,2025-03-11_22h33.02.862,MainFlow,2024.2.4,143.49940520870794,2025-03-11 22h33.13.886300 +0700,
1,10,1,word/wordth0101.png,image/True/img10.png,122,122,0,z,0.5076386000000639,None,0,122,122,122,419.04349099998944,,,,,,,420.5342496999947,420.0364348000003,420.03988969999773,420.03988969999773,420.5284574999969,421.6567994999932,421.6567994999932,z,0.5076386000000639,None,420.5342496999947,420.5342496999947,421.6567994999932,,,,,,,,SS_th,001,2025-03-11_22h33.02.862,MainFlow,2024.2.4,143.49940520870794,2025-03-11 22h33.13.886300 +0700,
1,16,0,word/wordth0161.png,image/False/imgf16.png,123,123,0,x,0.5821812999929534,None,0,123,123,123,422.17284759999893,,,,,,,423.66597419999016,423.1700631999993,423.1735520999937,423.1735520999937,423.66065069999604,424.81859739999345,424.81859739999345,x,0.5821812999929534,None,423.66597419999016,423.66597419999016,424.81859739999345,,,,,,,,SS_th,001,2025-03-11_22h33.02.862,MainFlow,2024.2.4,143.49940520870794,2025-03-11 22h33.13.886300 +0700,
1,15,0,word/wordth0151.png,image/False/imgf15.png,124,124,0,x,0.6844959000009112,None,0,124,124,124,425.4083327999979,,,,,,,426.90128900000127,426.40275599999586,426.4060674999928,426.4060674999928,426.8960897999932,428.037361900002,428.037361900002,x,0.6844959000009112,None,426.90128900000127,426.90128900000127,428.037361900002,,,,,,,,SS_th,001,2025-03-11_22h33.02.862,MainFlow,2024.2.4,143.49940520870794,2025-03-11 22h33.13.886300 +0700,
1,59,0,word/wordth0591.png,image/False/imgf59.png,125,125,0,x,0.8861152000026777,None,0,125,125,125,428.7340341999952,,,,,,,430.2267804000003,429.7341085999942,429.73743280000053,429.73743280000053,430.2208710999985,431.3174358999968,431.3174358999968,x,0.8861152000026777,None,430.2267804000003,430.2267804000003,431.3174358999968,,,,,,,,SS_th,001,2025-03-11_22h33.02.862,MainFlow,2024.2.4,143.49940520870794,2025-03-11 22h33.13.886300 +0700,
1,11,0,word/wordth0111.png,image/False/imgf11.png,126,126,0,x,0.815795699993032,None,0,126,126,126,432.212744199991,,,,,,,433.7053886999929,433.2105615999899,433.214164399993,433.214164399993,433.70036309999705,434.86177019999013,434.86177019999013,x,0.815795699993032,None,433.7053886999929,433.7053886999929,434.86177019999013,,,,,,,,SS_th,001,2025-03-11_22h33.02.862,MainFlow,2024.2.4,143.49940520870794,2025-03-11 22h33.13.886300 +0700,
1,75,1,word/wordth0751.png,image/True/img75.png,127,127,0,x,2.31584880000446,None,0,127,127,127,435.6843097999954,,,,,,,437.1839037000027,436.68672060000245,436.6903367999912,436.6903367999912,437.1784159999952,438.29943129999447,438.29943129999447,x,2.31584880000446,None,437.1839037000027,437.1839037000027,,,,,,,,,SS_th,001,2025-03-11_22h33.02.862,MainFlow,2024.2.4,143.49940520870794,2025-03-11 22h33.13.886300 +0700,
1,33,1,word/wordth0331.png,image/True/img33.png,128,128,0,z,3.19462600001134,None,0,128,128,128,440.62306149999495,,,,,,,442.12737010000274,441.6439315000025,441.6468648000009,441.6468648000009,442.12127289999626,443.2652425999986,443.2652425999986,z,3.19462600001134,None,,,441.6468648000009,,,,,,,,SS_th,001,2025-03-11_22h33.02.862,MainFlow,2024.2.4,143.49940520870794,2025-03-11 22h33.13.886300 +0700,
1,66,0,word/wordth0661.png,image/False/imgf66.png,129,129,0,x,2.718204999997397,None,0,129,129,129,446.4675838999974,,,,,,,447.95956319999823,447.4632876999967,447.4668429000012,447.4668429000012,447.95380750000186,449.1290327000024,449.1290327000024,x,2.718204999997397,None,447.95956319999823,447.95956319999823,449.1290327000024,,,,,,,,SS_th,001,2025-03-11_22h33.02.862,MainFlow,2024.2.4,143.49940520870794,2025-03-11 22h33.13.886300 +0700,
1,38,1,word/wordth0381.png,image/True/img38.png,130,130,0,z,0.6671099999948638,None,0,130,130,130,451.85612329999276,,,,,,,453.3473781999928,452.8529184999934,452.85573679998924,452.85573679998924,453.34187750000274,454.48041449999437,454.48041449999437,z,0.6671099999948638,None,453.3473781999928,453.3473781999928,454.48041449999437,,,,,,,,SS_th,001,2025-03-11_22h33.02.862,MainFlow,2024.2.4,143.49940520870794,2025-03-11 22h33.13.886300 +0700,
1,38,1,word/wordth0381.png,image/True/img38.png,131,131,0,z,1.0160497000033502,None,0,131,131,131,455.1566068999964,,,,,,,456.6524051000015,456.15722029999597,456.1607745999936,456.1607745999936,456.64738999999827,457.7598714999913,457.7598714999913,z,1.0160497000033502,None,456.6524051000015,456.6524051000015,457.7598714999913,,,,,,,,SS_th,001,2025-03-11_22h33.02.862,MainFlow,2024.2.4,143.49940520870794,2025-03-11 22h33.13.886300 +0700,
1,63,1,word/wordth0631.png,image/True/img63.png,132,132,0,z,1.315850800005137,None,0,132,132,132,458.7837851999939,,,,,,,460.27666649999446,459.7809206999955,459.7843802999996,459.7843802999996,460.27098410000326,461.42446290000225,461.42446290000225,z,1.315850800005137,None,460.27666649999446,460.27666649999446,461.42446290000225,,,,,,,,SS_th,001,2025-03-11_22h33.02.862,MainFlow,2024.2.4,143.49940520870794,2025-03-11 22h33.13.886300 +0700,
1,33,0,word/wordth0331.png,image/False/imgf33.png,133,133,0,x,1.472143100007088,None,0,133,133,133,462.7482569999993,,,,,,,464.2480806999956,463.7492685999896,463.75268449999567,463.75268449999567,464.2422777000029,465.38718700000027,465.38718700000027,x,1.472143100007088,None,464.2480806999956,464.2480806999956,,,,,,,,,SS_th,001,2025-03-11_22h33.02.862,MainFlow,2024.2.4,143.49940520870794,2025-03-11 22h33.13.886300 +0700,
1,52,1,word/wordth0521.png,image/True/img52.png,134,134,0,z,0.4794689000118524,None,0,134,134,134,466.866028199991,,,,,,,468.3654792000016,467.87105000000156,467.8748879999912,467.8748879999912,468.3599746999971,469.50646530000085,469.50646530000085,z,0.4794689000118524,None,468.3654792000016,468.3654792000016,,,,,,,,,SS_th,001,2025-03-11_22h33.02.862,MainFlow,2024.2.4,143.49940520870794,2025-03-11 22h33.13.886300 +0700,
1,11,0,word/wordth0111.png,image/False/imgf11.png,135,135,0,x,0.516028500001994,None,0,135,135,135,469.9968458999938,,,,,,,471.48274259999744,470.9847166999971,470.987469300002,470.987469300002,471.47724179999204,472.62882709999394,472.62882709999394,x,0.516028500001994,None,471.48274259999744,471.48274259999744,472.62882709999394,,,,,,,,SS_th,001,2025-03-11_22h33.02.862,MainFlow,2024.2.4,143.49940520870794,2025-03-11 22h33.13.886300 +0700,
1,1,0,word/wordth0011.png,image/False/imgf01.png,136,136,0,x,0.5570223999966402,None,0,136,136,136,473.156006899997,,,,,,,474.6489117000019,474.15469440000015,474.15800709999166,474.15800709999166,474.64359839999815,475.75295129998995,475.75295129998995,x,0.5570223999966402,None,474.6489117000019,474.6489117000019,475.75295129998995,,,,,,,,SS_th,001,2025-03-11_22h33.02.862,MainFlow,2024.2.4,143.49940520870794,2025-03-11 22h33.13.886300 +0700,
1,96,0,word/wordth0961.png,image/False/imgf96.png,137,137,0,x,0.9692138999962481,None,0,137,137,137,476.32210209999175,,,,,,,477.821741199994,477.3242670000036,477.3279216999945,477.3279216999945,477.81609029999527,478.9930935000011,478.9930935000011,x,0.9692138999962481,None,477.821741199994,477.821741199994,,,,,,,,,SS_th,001,2025-03-11_22h33.02.862,MainFlow,2024.2.4,143.49940520870794,2025-03-11 22h33.13.886300 +0700,
1,57,1,word/wordth0571.png,image/True/img57.png,138,138,0,z,0.9207940000051167,None,0,138,138,138,479.9741431000002,,,,,,,481.4808454000013,480.9937867999979,480.99688039999455,480.99688039999455,481.4746404999896,482.6069267999992,482.6069267999992,z,0.9207940000051167,None,,,,,,,,,,,SS_th,001,2025-03-11_22h33.02.862,MainFlow,2024.2.4,143.49940520870794,2025-03-11 22h33.13.886300 +0700,
1,30,1,word/wordth0301.png,image/True/img30.png,139,139,0,z,0.9290101000078721,None,0,139,139,139,483.53597929999523,,,,,,,485.02866879999056,484.53429869998945,484.5375964999985,484.5375964999985,485.0225863999949,486.1264136999962,486.1264136999962,z,0.9290101000078721,None,485.02866879999056,485.02866879999056,486.1264136999962,,,,,,,,SS_th,001,2025-03-11_22h33.02.862,MainFlow,2024.2.4,143.49940520870794,2025-03-11 22h33.13.886300 +0700,
1,41,1,word/wordth0411.png,image/True/img41.png,140,140,0,z,0.392326499990304,None,0,140,140,140,487.0630533999938,,,,,,,488.5628534999996,488.066221999994,488.07018080000125,488.07018080000125,488.55771059999825,489.6840254999988,489.6840254999988,z,0.392326499990304,None,488.5628534999996,488.5628534999996,,,,,,,,,SS_th,001,2025-03-11_22h33.02.862,MainFlow,2024.2.4,143.49940520870794,2025-03-11 22h33.13.886300 +0700,
1,50,1,word/wordth0501.png,image/True/img50.png,141,141,0,z,0.6505649000027915,None,0,141,141,141,490.08330159999605,,,,,,,491.57610269999714,491.08388930000365,491.0872842999961,491.0872842999961,491.5703945999994,492.69394849998935,492.69394849998935,z,0.6505649000027915,None,491.57610269999714,491.57610269999714,492.69394849998935,,,,,,,,SS_th,001,2025-03-11_22h33.02.862,MainFlow,2024.2.4,143.49940520870794,2025-03-11 22h33.13.886300 +0700,
1,3,0,word/wordth0031.png,image/False/imgf03.png,142,142,0,x,0.571983799993177,None,0,142,142,142,493.35548050000216,,,,,,,494.8463657999964,494.3519677000004,494.35557689999405,494.35557689999405,494.8412319999916,495.94196999999986,495.94196999999986,x,0.571983799993177,None,494.8463657999964,494.8463657999964,495.94196999999986,,,,,,,,SS_th,001,2025-03-11_22h33.02.862,MainFlow,2024.2.4,143.49940520870794,2025-03-11 22h33.13.886300 +0700,
1,78,1,word/wordth0781.png,image/True/img78.png,143,143,0,z,0.582673099997919,None,0,143,143,143,496.52633629999764,,,,,,,498.01930020000145,497.52489210000203,497.5282804000017,497.5282804000017,498.0140982000012,499.12282979999145,499.12282979999145,z,0.582673099997919,None,498.01930020000145,498.01930020000145,499.12282979999145,,,,,,,,SS_th,001,2025-03-11_22h33.02.862,MainFlow,2024.2.4,143.49940520870794,2025-03-11 22h33.13.886300 +0700,
1,76,0,word/wordth0761.png,image/False/imgf76.png,144,144,0,x,0.7353919000015594,None,0,144,144,144,499.7154332999926,,,,,,,501.2060940999945,500.7101885000011,500.71360429999186,500.71360429999186,501.20034899999155,502.36795279999205,502.36795279999205,x,0.7353919000015594,None,501.2060940999945,501.2060940999945,502.36795279999205,,,,,,,,SS_th,001,2025-03-11_22h33.02.862,MainFlow,2024.2.4,143.49940520870794,2025-03-11 22h33.13.886300 +0700,
1,6,1,word/wordth0061.png,image/True/img06.png,145,145,0,z,0.5374531999987084,None,0,145,145,145,503.1156970000011,,,,,,,504.60824180000054,504.1109632000007,504.1146156999894,504.1146156999894,504.6027800000011,505.71758859998954,505.71758859998954,z,0.5374531999987084,None,504.60824180000054,504.60824180000054,505.71758859998954,,,,,,,,SS_th,001,2025-03-11_22h33.02.862,MainFlow,2024.2.4,143.49940520870794,2025-03-11 22h33.13.886300 +0700,
1,31,0,word/wordth0311.png,image/False/imgf31.png,146,146,0,x,0.8289197999984026,None,0,146,146,146,506.2676349999965,,,,,,,507.76054429999203,507.2655662000034,507.2689386999991,507.2689386999991,507.7546996000019,508.8597910999961,508.8597910999961,x,0.8289197999984026,None,507.76054429999203,507.76054429999203,508.8597910999961,,,,,,,,SS_th,001,2025-03-11_22h33.02.862,MainFlow,2024.2.4,143.49940520870794,2025-03-11 22h33.13.886300 +0700,
1,22,0,word/wordth0221.png,image/False/imgf22.png,147,147,0,z,0.3446679999906337,None,0,147,147,147,509.69784079999954,,,,,,,511.1972877999942,510.69843709999986,510.7018742999935,510.7018742999935,511.1915339999978,512.3230631999904,512.3230631999904,z,0.3446679999906337,None,511.1972877999942,511.1972877999942,,,,,,,,,SS_th,001,2025-03-11_22h33.02.862,MainFlow,2024.2.4,143.49940520870794,2025-03-11 22h33.13.886300 +0700,
1,28,0,word/wordth0281.png,image/False/imgf28.png,148,148,0,x,0.5276139999914449,None,0,148,148,148,512.6760494999908,,,,,,,514.1689334999974,513.6743120000028,513.6776875999931,513.6776875999931,514.1634221999993,515.2856855999999,515.2856855999999,x,0.5276139999914449,None,514.1689334999974,514.1689334999974,515.2856855999999,,,,,,,,SS_th,001,2025-03-11_22h33.02.862,MainFlow,2024.2.4,143.49940520870794,2025-03-11 22h33.13.886300 +0700,
1,57,0,word/wordth0571.png,image/False/imgf57.png,149,149,0,x,0.6991053999954602,None,0,149,149,149,515.8215903999953,,,,,,,517.3072842999973,516.811789799991,516.8146023000008,516.8146023000008,517.3012337999971,518.444479999991,518.444479999991,x,0.6991053999954602,None,517.3072842999973,517.3072842999973,518.444479999991,,,,,,,,SS_th,001,2025-03-11_22h33.02.862,MainFlow,2024.2.4,143.49940520870794,2025-03-11 22h33.13.886300 +0700,
1,7,0,word/wordth0071.png,image/False/imgf07.png,150,150,0,x,0.5062523000087822,None,0,150,150,150,519.1541125999938,,,,,,,520.6398382999905,520.142245199997,520.145086199991,520.145086199991,520.6344389000005,521.748909899994,521.748909899994,x,0.5062523000087822,None,520.6398382999905,520.6398382999905,521.748909899994,,,,,,,,SS_th,001,2025-03-11_22h33.02.862,MainFlow,2024.2.4,143.49940520870794,2025-03-11 22h33.13.886300 +0700,
1,56,1,word/wordth0561.png,image/True/img56.png,151,151,0,z,0.3708467999967979,None,0,151,151,151,522.2653493999969,,,,,,,523.764354400002,523.2681594000023,523.2716543999995,523.2716543999995,523.7589444999903,524.8703157999989,524.8703157999989,z,0.3708467999967979,None,523.764354400002,523.764354400002,524.8703157999989,,,,,,,,SS_th,001,2025-03-11_22h33.02.862,MainFlow,2024.2.4,143.49940520870794,2025-03-11 22h33.13.886300 +0700,
1,6,0,word/wordth0061.png,image/False/imgf06.png,152,152,0,x,0.5423741999984486,None,0,152,152,152,525.2506091999967,,,,,,,526.7499177999998,526.2518469999923,526.2554664999916,526.2554664999916,526.7447121000005,527.8413509999955,527.8413509999955,x,0.5423741999984486,None,526.7499177999998,526.7499177999998,,,,,,,,,SS_th,001,2025-03-11_22h33.02.862,MainFlow,2024.2.4,143.49940520870794,2025-03-11 22h33.13.886300 +0700,
1,36,0,word/wordth0361.png,image/False/imgf36.png,153,153,0,x,0.4480641999980435,None,0,153,153,153,528.395549599998,,,,,,,529.8880092000036,529.3944327999925,529.3977424999903,529.3977424999903,529.8823528999928,531.0074349999923,531.0074349999923,x,0.4480641999980435,None,529.8880092000036,529.8880092000036,531.0074349999923,,,,,,,,SS_th,001,2025-03-11_22h33.02.862,MainFlow,2024.2.4,143.49940520870794,2025-03-11 22h33.13.886300 +0700,
1,79,1,word/wordth0791.png,image/True/img79.png,154,154,0,z,0.577817800003686,None,0,154,154,154,531.4641810999892,,,,,,,532.9568662999955,532.459901299997,532.4634017999924,532.4634017999924,532.9510444999905,534.0871054000017,534.0871054000017,z,0.577817800003686,None,532.9568662999955,532.9568662999955,534.0871054000017,,,,,,,,SS_th,001,2025-03-11_22h33.02.862,MainFlow,2024.2.4,143.49940520870794,2025-03-11 22h33.13.886300 +0700,
1,52,0,word/wordth0521.png,image/False/imgf52.png,155,155,0,x,0.5344561999954749,None,0,155,155,155,534.6717926999991,,,,,,,536.1647081999981,535.6696989999909,535.6732274999958,535.6732274999958,536.1590711000026,537.2680752000015,537.2680752000015,x,0.5344561999954749,None,536.1647081999981,536.1647081999981,537.2680752000015,,,,,,,,SS_th,001,2025-03-11_22h33.02.862,MainFlow,2024.2.4,143.49940520870794,2025-03-11 22h33.13.886300 +0700,
1,18,0,word/wordth0181.png,image/False/imgf18.png,156,156,0,x,0.6620349000004353,None,0,156,156,156,537.8101287000027,,,,,,,539.3031320000009,538.8046655999933,538.8078460999968,538.8078460999968,539.297986599995,540.413790999999,540.413790999999,x,0.6620349000004353,None,539.3031320000009,539.3031320000009,540.413790999999,,,,,,,,SS_th,001,2025-03-11_22h33.02.862,MainFlow,2024.2.4,143.49940520870794,2025-03-11 22h33.13.886300 +0700,
1,23,1,word/wordth0231.png,image/True/img23.png,157,157,0,z,0.4169813000044087,None,0,157,157,157,541.0872451999894,,,,,,,542.579859999998,542.08552529999,542.0894171999971,542.0894171999971,542.5739123999956,543.703703399995,543.703703399995,z,0.4169813000044087,None,542.579859999998,542.579859999998,543.703703399995,,,,,,,,SS_th,001,2025-03-11_22h33.02.862,MainFlow,2024.2.4,143.49940520870794,2025-03-11 22h33.13.886300 +0700,
1,61,1,word/wordth0611.png,image/True/img61.png,158,158,0,z,0.30712409999978263,None,0,158,158,158,544.1308782999986,,,,,,,545.628160799999,545.1351540999894,545.1384446000011,545.1384446000011,545.6231168999948,546.7545806999988,546.7545806999988,z,0.30712409999978263,None,545.628160799999,545.628160799999,546.7545806999988,,,,,,,,SS_th,001,2025-03-11_22h33.02.862,MainFlow,2024.2.4,143.49940520870794,2025-03-11 22h33.13.886300 +0700,
1,44,1,word/wordth0441.png,image/True/img44.png,159,159,0,z,0.715382900001714,None,0,159,159,159,547.0721745999908,,,,,,,548.5648986000015,548.0672322000028,548.0707598000008,548.0707598000008,548.5590580999997,549.6793711999926,549.6793711999926,z,0.715382900001714,None,548.5648986000015,548.5648986000015,549.6793711999926,,,,,,,,SS_th,001,2025-03-11_22h33.02.862,MainFlow,2024.2.4,143.49940520870794,2025-03-11 22h33.13.886300 +0700,
1,10,1,word/wordth0101.png,image/True/img10.png,160,160,0,z,0.3942957999970531,None,0,160,160,160,550.4048709999915,,,,,,,551.8977375999966,551.4014675999933,551.4052009000006,551.4052009000006,551.8919204999984,553.0074652999901,553.0074652999901,z,0.3942957999970531,None,551.8977375999966,551.8977375999966,553.0074652999901,,,,,,,,SS_th,001,2025-03-11_22h33.02.862,MainFlow,2024.2.4,143.49940520870794,2025-03-11 22h33.13.886300 +0700,
1,31,1,word/wordth0311.png,image/True/img31.png,161,161,0,z,0.4121286000008695,None,0,161,161,161,553.4112381000014,,,,,,,554.8971474999998,554.4028908999899,554.405708499995,554.405708499995,554.8916425999923,555.9945657999924,555.9945657999924,z,0.4121286000008695,None,554.8971474999998,554.8971474999998,555.9945657999924,,,,,,,,SS_th,001,2025-03-11_22h33.02.862,MainFlow,2024.2.4,143.49940520870794,2025-03-11 22h33.13.886300 +0700,
1,14,0,word/wordth0141.png,image/False/imgf14.png,162,162,0,x,0.56347029999597,None,0,162,162,162,556.4177257999982,,,,,,,557.9103678999963,557.4123470999912,557.4156449000002,557.4156449000002,557.9046839999937,559.0278165999916,559.0278165999916,x,0.56347029999597,None,557.9103678999963,557.9103678999963,559.0278165999916,,,,,,,,SS_th,001,2025-03-11_22h33.02.862,MainFlow,2024.2.4,143.49940520870794,2025-03-11 22h33.13.886300 +0700,
1,15,0,word/wordth0151.png,image/False/imgf15.png,163,163,0,x,0.7315099999977974,None,0,163,163,163,559.6005905999918,,,,,,,561.0972098999919,560.6002109999972,560.6035344999982,560.6035344999982,561.0918169999932,562.210723199998,562.210723199998,x,0.7315099999977974,None,561.0972098999919,561.0972098999919,562.210723199998,,,,,,,,SS_th,001,2025-03-11_22h33.02.862,MainFlow,2024.2.4,143.49940520870794,2025-03-11 22h33.13.886300 +0700,
1,51,1,word/wordth0511.png,image/True/img51.png,164,164,0,z,0.7503195000026608,None,0,164,164,164,562.951298999993,,,,,,,564.444133500001,563.9459826999955,563.9494670999993,563.9494670999993,564.4382783999899,565.595948000002,565.595948000002,z,0.7503195000026608,None,564.444133500001,564.444133500001,565.595948000002,,,,,,,,SS_th,001,2025-03-11_22h33.02.862,MainFlow,2024.2.4,143.49940520870794,2025-03-11 22h33.13.886300 +0700,
1,82,1,word/wordth0821.png,image/True/img82.png,165,165,0,z,0.6836304000025848,None,0,165,165,165,566.3532020999992,,,,,,,567.8459042000031,567.3486204999936,567.3520511999959,567.3520511999959,567.8398887999938,568.9428078999917,568.9428078999917,z,0.6836304000025848,None,567.8459042000031,567.8459042000031,568.9428078999917,,,,,,,,SS_th,001,2025-03-11_22h33.02.862,MainFlow,2024.2.4,143.49940520870794,2025-03-11 22h33.13.886300 +0700,
1,27,0,word/wordth0271.png,image/False/imgf27.png,166,166,0,x,0.8117632000066806,None,0,166,166,166,569.6372370000026,,,,,,,571.1230913000036,570.6276104999997,570.6303671999922,570.6303671999922,571.1177172000025,572.2266105000017,572.2266105000017,x,0.8117632000066806,None,571.1230913000036,571.1230913000036,572.2266105000017,,,,,,,,SS_th,001,2025-03-11_22h33.02.862,MainFlow,2024.2.4,143.49940520870794,2025-03-11 22h33.13.886300 +0700,
1,78,0,word/wordth0781.png,image/False/imgf78.png,167,167,0,x,1.14618129999144,None,0,167,167,167,573.0491480999917,,,,,,,574.5461028999998,574.0490040000004,574.0523612999968,574.0523612999968,574.5410388000018,575.63726209999,575.63726209999,x,1.14618129999144,None,574.5461028999998,574.5461028999998,575.63726209999,,,,,,,,SS_th,001,2025-03-11_22h33.02.862,MainFlow,2024.2.4,143.49940520870794,2025-03-11 22h33.13.886300 +0700,
1,89,1,word/wordth0891.png,image/True/img89.png,168,168,0,z,0.559761399999843,None,0,168,168,168,576.7956676000031,,,,,,,578.2883383000008,577.7940584000025,577.7974624999915,577.7974624999915,578.2829140999966,579.4079095999914,579.4079095999914,z,0.559761399999843,None,578.2883383000008,578.2883383000008,579.4079095999914,,,,,,,,SS_th,001,2025-03-11_22h33.02.862,MainFlow,2024.2.4,143.49940520870794,2025-03-11 22h33.13.886300 +0700,
1,76,1,word/wordth0761.png,image/True/img76.png,169,169,0,z,0.8525538999965647,None,0,169,169,169,579.9757112999941,,,,,,,581.4752409999928,580.977857299993,580.9813736999931,580.9813736999931,581.4694843999896,582.58198789999,582.58198789999,z,0.8525538999965647,None,581.4752409999928,581.4752409999928,,,,,,,,,SS_th,001,2025-03-11_22h33.02.862,MainFlow,2024.2.4,143.49940520870794,2025-03-11 22h33.13.886300 +0700,
1,17,0,word/wordth0171.png,image/False/imgf17.png,170,170,0,x,1.138872600000468,None,0,170,170,170,583.442423799992,,,,,,,584.9399262999941,584.4419077999919,584.4454882999999,584.4454882999999,584.9348019000026,586.0874943999952,586.0874943999952,x,1.138872600000468,None,584.9399262999941,584.9399262999941,586.0874943999952,,,,,,,,SS_th,001,2025-03-11_22h33.02.862,MainFlow,2024.2.4,143.49940520870794,2025-03-11 22h33.13.886300 +0700,
1,95,1,word/wordth0951.png,image/True/img95.png,171,171,0,z,0.4770518000004813,None,0,171,171,171,587.2381332999939,,,,,,,588.7307832999941,588.2352201999893,588.2387214999908,588.2387214999908,588.7251258999895,589.8758910000033,589.8758910000033,z,0.4770518000004813,None,588.7307832999941,588.7307832999941,589.8758910000033,,,,,,,,SS_th,001,2025-03-11_22h33.02.862,MainFlow,2024.2.4,143.49940520870794,2025-03-11 22h33.13.886300 +0700,
1,61,0,word/wordth0611.png,image/False/imgf61.png,172,172,0,x,1.2352812999888556,None,0,172,172,172,590.3623607999907,,,,,,,591.8553877999948,591.3606907999929,591.3639950999932,591.3639950999932,591.850159900001,593.0014261000033,593.0014261000033,x,1.2352812999888556,None,591.8553877999948,591.8553877999948,593.0014261000033,,,,,,,,SS_th,001,2025-03-11_22h33.02.862,MainFlow,2024.2.4,143.49940520870794,2025-03-11 22h33.13.886300 +0700,
1,82,1,word/wordth0821.png,image/True/img82.png,173,173,0,z,0.47895319999952335,None,0,173,173,173,594.2435804999986,,,,,,,595.7363744000031,595.2432486000034,595.2466695999901,595.2466695999901,595.7305181999982,596.8094892999943,596.8094892999943,z,0.47895319999952335,None,595.7363744000031,595.7363744000031,596.8094892999943,,,,,,,,SS_th,001,2025-03-11_22h33.02.862,MainFlow,2024.2.4,143.49940520870794,2025-03-11 22h33.13.886300 +0700,
1,14,1,word/wordth0141.png,image/True/img14.png,174,174,0,z,0.4131132000038633,None,0,174,174,174,597.2985542999959,,,,,,,598.7982248999906,598.2999216000026,598.303167399994,598.303167399994,598.7928534999955,599.9061505999998,599.9061505999998,z,0.4131132000038633,None,598.7982248999906,598.7982248999906,,,,,,,,,SS_th,001,2025-03-11_22h33.02.862,MainFlow,2024.2.4,143.49940520870794,2025-03-11 22h33.13.886300 +0700,
1,38,0,word/wordth0381.png,image/False/imgf38.png,175,175,0,x,0.47136690000479575,None,0,175,175,175,600.3258294999978,,,,,,,601.8184946999972,601.3245605999982,601.3278254999896,601.3278254999896,601.8130635999987,602.9807853999955,602.9807853999955,x,0.47136690000479575,None,601.8184946999972,601.8184946999972,602.9807853999955,,,,,,,,SS_th,001,2025-03-11_22h33.02.862,MainFlow,2024.2.4,143.49940520870794,2025-03-11 22h33.13.886300 +0700,
1,17,0,word/wordth0171.png,image/False/imgf17.png,176,176,0,x,0.646459000010509,None,0,176,176,176,603.4640688999934,,,,,,,604.9498295999947,604.4514112999896,604.4543459999986,604.4543459999986,604.9441002999956,606.082588499994,606.082588499994,x,0.646459000010509,None,604.9498295999947,604.9498295999947,606.082588499994,,,,,,,,SS_th,001,2025-03-11_22h33.02.862,MainFlow,2024.2.4,143.49940520870794,2025-03-11 22h33.13.886300 +0700,
1,42,0,word/wordth0421.png,image/False/imgf42.png,177,177,0,x,0.6533783999911975,None,0,177,177,177,606.7413222999894,,,,,,,608.2272564000014,607.7320076999895,607.7348387999955,607.7348387999955,608.2219714999956,609.3599164999905,609.3599164999905,x,0.6533783999911975,None,608.2272564000014,608.2272564000014,609.3599164999905,,,,,,,,SS_th,001,2025-03-11_22h33.02.862,MainFlow,2024.2.4,143.49940520870794,2025-03-11 22h33.13.886300 +0700,
1,24,1,word/wordth0241.png,image/True/img24.png,178,178,0,z,0.44441619999997783,None,0,178,178,178,610.0254454999958,,,,,,,611.5186423999985,611.0241361999942,611.0276597999909,611.0276597999909,611.5130684000032,612.6009026999964,612.6009026999964,z,0.44441619999997783,None,611.5186423999985,611.5186423999985,612.6009026999964,,,,,,,,SS_th,001,2025-03-11_22h33.02.862,MainFlow,2024.2.4,143.49940520870794,2025-03-11 22h33.13.886300 +0700,
1,51,1,word/wordth0511.png,image/True/img51.png,179,179,0,z,0.37109920001239516,None,0,179,179,179,613.0524167999974,,,,,,,614.5453758999938,614.049729899998,614.0530346000014,614.0530346000014,614.5400805999961,615.6614750000008,615.6614750000008,z,0.37109920001239516,None,614.5453758999938,614.5453758999938,615.6614750000008,,,,,,,,SS_th,001,2025-03-11_22h33.02.862,MainFlow,2024.2.4,143.49940520870794,2025-03-11 22h33.13.886300 +0700,
1,24,0,word/wordth0241.png,image/False/imgf24.png,180,180,0,x,0.612588300005882,None,0,180,180,180,616.0409220000001,,,,,,,617.5377953999996,617.0401128999947,617.0434789999999,617.0434789999999,617.5325780999992,618.6409659999917,618.6409659999917,x,0.612588300005882,None,617.5377953999996,617.5377953999996,618.6409659999917,,,,,,,,SS_th,001,2025-03-11_22h33.02.862,MainFlow,2024.2.4,143.49940520870794,2025-03-11 22h33.13.886300 +0700,
1,23,0,word/wordth0231.png,image/False/imgf23.png,181,181,0,x,0.7807737999974051,None,0,181,181,181,619.2595560999907,,,,,,,620.7523164000013,620.2538443999947,620.2571333999949,620.2571333999949,620.7465617999987,621.8878395999927,621.8878395999927,x,0.7807737999974051,None,620.7523164000013,620.7523164000013,621.8878395999927,,,,,,,,SS_th,001,2025-03-11_22h33.02.862,MainFlow,2024.2.4,143.49940520870794,2025-03-11 22h33.13.886300 +0700,
1,6,1,word/wordth0061.png,image/True/img06.png,182,182,0,z,0.44739770000160206,None,0,182,182,182,622.6755568999943,,,,,,,624.1686164999992,623.6738895000017,623.6773067999893,623.6773067999893,624.163472100001,625.2658662000031,625.2658662000031,z,0.44739770000160206,None,624.1686164999992,624.1686164999992,625.2658662000031,,,,,,,,SS_th,001,2025-03-11_22h33.02.862,MainFlow,2024.2.4,143.49940520870794,2025-03-11 22h33.13.886300 +0700,
1,93,1,word/wordth0931.png,image/True/img93.png,183,183,0,z,0.5065714999946067,None,0,183,183,183,625.7234456000006,,,,,,,627.2094996999949,626.7129744999984,626.7157919000019,626.7157919000019,627.2037655000022,628.3125,628.3125,z,0.5065714999946067,None,627.2094996999949,627.2094996999949,628.3125,,,,,,,,SS_th,001,2025-03-11_22h33.02.862,MainFlow,2024.2.4,143.49940520870794,2025-03-11 22h33.13.886300 +0700,
1,38,0,word/wordth0381.png,image/False/imgf38.png,184,184,0,x,0.5315858999965712,None,0,184,184,184,628.8302583999903,,,,,,,630.3268461999978,629.8344721999892,629.8377880999906,629.8377880999906,630.3210771000013,631.4778143000003,631.4778143000003,x,0.5315858999965712,None,630.3268461999978,630.3268461999978,631.4778143000003,,,,,,,,SS_th,001,2025-03-11_22h33.02.862,MainFlow,2024.2.4,143.49940520870794,2025-03-11 22h33.13.886300 +0700,
1,57,1,word/wordth0571.png,image/True/img57.png,185,185,0,z,1.0346978000015952,None,0,185,185,185,632.0210491999896,,,,,,,633.5067361999972,633.0084007999976,633.0111777999991,633.0111777999991,633.5011433000036,634.6311023000017,634.6311023000017,z,1.0346978000015952,None,633.5067361999972,633.5067361999972,634.6311023000017,,,,,,,,SS_th,001,2025-03-11_22h33.02.862,MainFlow,2024.2.4,143.49940520870794,2025-03-11 22h33.13.886300 +0700,
1,40,1,word/wordth0401.png,image/True/img40.png,186,186,0,z,0.5971570999972755,None,0,186,186,186,635.6729949,,,,,,,637.1587960000033,636.6647605999897,636.6678735000023,636.6678735000023,637.1532427999919,638.3447238999943,638.3447238999943,z,0.5971570999972755,None,637.1587960000033,637.1587960000033,638.3447238999943,,,,,,,,SS_th,001,2025-03-11_22h33.02.862,MainFlow,2024.2.4,143.49940520870794,2025-03-11 22h33.13.886300 +0700,
1,50,0,word/wordth0501.png,image/False/imgf50.png,187,187,0,x,0.7144534000108251,None,0,187,187,187,638.9501497000019,,,,,,,640.4499966000003,639.9554918999929,639.9592836999946,639.9592836999946,640.4443147999991,641.5525631999917,641.5525631999917,x,0.7144534000108251,None,640.4499966000003,640.4499966000003,,,,,,,,,SS_th,001,2025-03-11_22h33.02.862,MainFlow,2024.2.4,143.49940520870794,2025-03-11 22h33.13.886300 +0700,
1,66,0,word/wordth0661.png,image/False/imgf66.png,188,188,0,x,0.6113433999998961,None,0,188,188,188,642.2758315999963,,,,,,,643.7757692000014,643.2801476000022,643.2837919000012,643.2837919000012,643.7705687999987,644.8793603999948,644.8793603999948,x,0.6113433999998961,None,643.7757692000014,643.7757692000014,,,,,,,,,SS_th,001,2025-03-11_22h33.02.862,MainFlow,2024.2.4,143.49940520870794,2025-03-11 22h33.13.886300 +0700,
1,44,0,word/wordth0441.png,image/False/imgf44.png,189,189,0,x,0.5365575999894645,None,0,189,189,189,645.500112099995,,,,,,,646.9974514999922,646.5042132999952,646.5074712999922,646.5074712999922,646.9910604999895,648.1193696999981,648.1193696999981,x,0.5365575999894645,None,646.9974514999922,646.9974514999922,648.1193696999981,,,,,,,,SS_th,001,2025-03-11_22h33.02.862,MainFlow,2024.2.4,143.49940520870794,2025-03-11 22h33.13.886300 +0700,
1,75,0,word/wordth0751.png,image/False/imgf75.png,190,190,0,x,0.48725619999459013,None,0,190,190,190,648.6635091999924,,,,,,,650.1564611999929,649.6636693999899,649.6669701999926,649.6669701999926,650.1512374000013,651.2723670999985,651.2723670999985,x,0.48725619999459013,None,650.1564611999929,650.1564611999929,651.2723670999985,,,,,,,,SS_th,001,2025-03-11_22h33.02.862,MainFlow,2024.2.4,143.49940520870794,2025-03-11 22h33.13.886300 +0700,
1,31,0,word/wordth0311.png,image/False/imgf31.png,191,191,0,x,0.5919835999957286,None,0,191,191,191,651.7671514999965,,,,,,,653.2668027999898,652.7683325999969,652.7717435999948,652.7717435999948,653.261136599991,654.3403514999954,654.3403514999954,x,0.5919835999957286,None,653.2668027999898,653.2668027999898,,,,,,,,,SS_th,001,2025-03-11_22h33.02.862,MainFlow,2024.2.4,143.49940520870794,2025-03-11 22h33.13.886300 +0700,
1,87,1,word/wordth0871.png,image/True/img87.png,192,192,0,x,0.4606358999881195,None,0,192,192,192,654.9408293000015,,,,,,,656.4262076000014,655.9272476999904,655.9301354999916,655.9301354999916,656.4141357999906,657.5523465000006,657.5523465000006,x,0.4606358999881195,None,656.4192760000005,656.4192760000005,657.5523465000006,,,,,,,,SS_th,001,2025-03-11_22h33.02.862,MainFlow,2024.2.4,143.49940520870794,2025-03-11 22h33.13.886300 +0700,
1,33,1,word/wordth0331.png,image/True/img33.png,193,193,0,z,0.3768893999949796,None,0,193,193,193,658.0228529000015,,,,,,,659.522896399998,659.0290365999972,659.0327855999931,659.0327855999931,659.5175860000018,660.6320368000015,660.6320368000015,z,0.3768893999949796,None,659.522896399998,659.522896399998,,,,,,,,,SS_th,001,2025-03-11_22h33.02.862,MainFlow,2024.2.4,143.49940520870794,2025-03-11 22h33.13.886300 +0700,
1,70,0,word/wordth0701.png,image/False/imgf70.png,194,194,0,x,0.4998942999955034,None,0,194,194,194,661.0153648999985,,,,,,,662.515103999991,662.0174871999916,662.0210115999944,662.0210115999944,662.5103808999993,663.611825999993,663.611825999993,x,0.4998942999955034,None,662.515103999991,662.515103999991,,,,,,,,,SS_th,001,2025-03-11_22h33.02.862,MainFlow,2024.2.4,143.49940520870794,2025-03-11 22h33.13.886300 +0700,
1,27,1,word/wordth0271.png,image/True/img27.png,195,195,0,z,0.34429249999811873,None,0,195,195,195,664.1189939000033,,,,,,,665.6185914999951,665.1193838999898,665.1229998999916,665.1229998999916,665.6128691999911,666.7103772999981,666.7103772999981,z,0.34429249999811873,None,665.6185914999951,665.6185914999951,,,,,,,,,SS_th,001,2025-03-11_22h33.02.862,MainFlow,2024.2.4,143.49940520870794,2025-03-11 22h33.13.886300 +0700,
1,88,1,word/wordth0881.png,image/True/img88.png,196,196,0,z,0.787628300007782,None,0,196,196,196,667.0627240999893,,,,,,,668.5625502999901,668.0638508999982,668.0672227999894,668.0672227999894,668.556958599991,669.7059316999948,669.7059316999948,z,0.787628300007782,None,668.5625502999901,668.5625502999901,,,,,,,,,SS_th,001,2025-03-11_22h33.02.862,MainFlow,2024.2.4,143.49940520870794,2025-03-11 22h33.13.886300 +0700,
1,87,0,word/wordth0871.png,image/False/imgf87.png,197,197,0,x,0.6098900999932084,None,0,197,197,197,670.4995590000035,,,,,,,671.999404000002,671.5008700000035,671.5046329999896,671.5046329999896,671.9936339999986,673.12396669999,673.12396669999,x,0.6098900999932084,None,671.999404000002,671.999404000002,,,,,,,,,SS_th,001,2025-03-11_22h33.02.862,MainFlow,2024.2.4,143.49940520870794,2025-03-11 22h33.13.886300 +0700,
1,11,1,word/wordth0111.png,image/True/img11.png,198,198,0,z,0.5527891999954591,None,0,198,198,198,673.7420182999922,,,,,,,675.2419643999892,674.7432336999918,674.746613299998,674.746613299998,675.2360422999918,676.3765195000015,676.3765195000015,z,0.5527891999954591,None,675.2419643999892,675.2419643999892,,,,,,,,,SS_th,001,2025-03-11_22h33.02.862,MainFlow,2024.2.4,143.49940520870794,2025-03-11 22h33.13.886300 +0700,
1,61,0,word/wordth0611.png,image/False/imgf61.png,199,199,0,x,0.6325941999966744,None,0,199,199,199,676.935819499995,,,,,,,678.4217712999962,677.9263321000035,677.9290890999982,677.9290890999982,678.4166495999962,679.5479175999935,679.5479175999935,x,0.6325941999966744,None,678.4217712999962,678.4217712999962,679.5479175999935,,,,,,,,SS_th,001,2025-03-11_22h33.02.862,MainFlow,2024.2.4,143.49940520870794,2025-03-11 22h33.13.886300 +0700,
1,15,1,word/wordth0151.png,image/True/img15.png,200,200,0,z,0.6748692999972263,None,0,200,200,200,680.1920882999984,,,,,,,681.6848549999995,681.1923452999908,681.1951749,681.1951749,681.6791681999894,682.822854099999,682.822854099999,z,0.6748692999972263,None,681.6848549999995,681.6848549999995,682.822854099999,,,,,,,,SS_th,001,2025-03-11_22h33.02.862,MainFlow,2024.2.4,143.49940520870794,2025-03-11 22h33.13.886300 +0700,
1,16,0,word/wordth0161.png,image/False/imgf16.png,201,201,0,x,0.8672186000039801,None,0,201,201,201,683.5040200999938,,,,,,,685.0036988999927,684.504634500001,684.508561900002,684.508561900002,684.9980672999955,686.1293214000034,686.1293214000034,x,0.8672186000039801,None,685.0036988999927,685.0036988999927,,,,,,,,,SS_th,001,2025-03-11_22h33.02.862,MainFlow,2024.2.4,143.49940520870794,2025-03-11 22h33.13.886300 +0700,
1,63,0,word/wordth0631.png,image/False/imgf63.png,202,202,0,x,0.815772999994806,None,0,202,202,202,687.0033792000031,,,,,,,688.4961072000006,687.9999179000006,688.0034119999909,688.0034119999909,688.4900626000017,689.6164649999992,689.6164649999992,x,0.815772999994806,None,688.4961072000006,688.4961072000006,689.6164649999992,,,,,,,,SS_th,001,2025-03-11_22h33.02.862,MainFlow,2024.2.4,143.49940520870794,2025-03-11 22h33.13.886300 +0700,
1,28,1,word/wordth0281.png,image/True/img28.png,203,203,0,z,0.5899191000062274,None,0,203,203,203,690.4401442999952,,,,,,,691.9330869999976,691.4355630999926,691.4389184000029,691.4389184000029,691.9277552999993,693.0655929999921,693.0655929999921,z,0.5899191000062274,None,691.9330869999976,691.9330869999976,693.0655929999921,,,,,,,,SS_th,001,2025-03-11_22h33.02.862,MainFlow,2024.2.4,143.49940520870794,2025-03-11 22h33.13.886300 +0700,
1,89,1,word/wordth0891.png,image/True/img89.png,204,204,0,z,0.6073651000042446,None,0,204,204,204,693.6617104999896,,,,,,,695.1476009000035,694.649596999996,694.6523643999972,694.6523643999972,695.1418365999998,696.23472149999,696.23472149999,z,0.6073651000042446,None,695.1476009000035,695.1476009000035,696.23472149999,,,,,,,,SS_th,001,2025-03-11_22h33.02.862,MainFlow,2024.2.4,143.49940520870794,2025-03-11 22h33.13.886300 +0700,
1,76,0,word/wordth0761.png,image/False/imgf76.png,205,205,0,x,1.942766100008157,None,0,205,205,205,696.8485185000027,,,,,,,698.341514300002,697.8429652999912,697.8462130999978,697.8462130999978,698.3357460999978,699.4769674999989,699.4769674999989,x,1.942766100008157,None,698.341514300002,698.341514300002,699.4769674999989,,,,,,,,SS_th,001,2025-03-11_22h33.02.862,MainFlow,2024.2.4,143.49940520870794,2025-03-11 22h33.13.886300 +0700,
1,51,0,word/wordth0511.png,image/False/imgf51.png,206,206,0,x,2.7054618999973172,None,0,206,206,206,701.4315841999924,,,,,,,702.9307792000036,702.4353916999971,702.4389508000022,702.4389508000022,702.9251342999924,704.0330612999969,704.0330612999969,x,2.7054618999973172,None,702.9307792000036,702.9307792000036,,,,,,,,,SS_th,001,2025-03-11_22h33.02.862,MainFlow,2024.2.4,143.49940520870794,2025-03-11 22h33.13.886300 +0700,
1,26,0,word/wordth0261.png,image/False/imgf26.png,207,207,0,x,0.8951308999967296,None,0,207,207,207,706.7495092000026,,,,,,,708.2423585999932,707.7436092999997,707.7467879000033,707.7467879000033,708.2366783999896,709.365990499995,709.365990499995,x,0.8951308999967296,None,708.2423585999932,708.2423585999932,709.365990499995,,,,,,,,SS_th,001,2025-03-11_22h33.02.862,MainFlow,2024.2.4,143.49940520870794,2025-03-11 22h33.13.886300 +0700,
1,16,1,word/wordth0161.png,image/True/img16.png,208,208,0,z,0.5120295999950031,None,0,208,208,208,710.2697455000016,,,,,,,711.76948789999,711.272042800003,711.2758421000035,711.2758421000035,711.7641924999916,712.9185211000004,712.9185211000004,z,0.5120295999950031,None,711.76948789999,711.76948789999,,,,,,,,,SS_th,001,2025-03-11_22h33.02.862,MainFlow,2024.2.4,143.49940520870794,2025-03-11 22h33.13.886300 +0700,
1,64,1,word/wordth0641.png,image/True/img64.png,209,209,0,x,2.9070753999985754,None,0,209,209,209,713.4424919000012,,,,,,,714.9423550999927,714.443660799996,714.4470144999941,714.4470144999941,714.9364255999972,716.0168346999999,716.0168346999999,x,2.9070753999985754,None,714.9423550999927,714.9423550999927,,,,,,,,,SS_th,001,2025-03-11_22h33.02.862,MainFlow,2024.2.4,143.49940520870794,2025-03-11 22h33.13.886300 +0700,
1,7,1,word/wordth0071.png,image/True/img07.png,210,210,0,z,0.5986771000025328,None,0,210,210,210,718.9346174999955,,,,,,,720.4276505000016,719.9303273999976,719.9337898999947,719.9337898999947,720.4227096999966,721.5616501999903,721.5616501999903,z,0.5986771000025328,None,720.4276505000016,720.4276505000016,721.5616501999903,,,,,,,,SS_th,001,2025-03-11_22h33.02.862,MainFlow,2024.2.4,143.49940520870794,2025-03-11 22h33.13.886300 +0700,
1,10,0,word/wordth0101.png,image/False/imgf10.png,211,211,0,x,0.8698238000069978,None,0,211,211,211,722.1700331000029,,,,,,,723.6631189000036,723.1655709999905,723.1689481999929,723.1689481999929,723.658093399994,724.7750706999941,724.7750706999941,x,0.8698238000069978,None,723.6631189000036,723.6631189000036,724.7750706999941,,,,,,,,SS_th,001,2025-03-11_22h33.02.862,MainFlow,2024.2.4,143.49940520870794,2025-03-11 22h33.13.886300 +0700,
1,22,1,word/wordth0221.png,image/True/img22.png,212,212,0,z,0.9540501000010408,None,0,212,212,212,725.6554848999949,,,,,,,727.1552894999913,726.6575767999893,726.6609750999924,726.6609750999924,727.1495469999936,728.3346040000033,728.3346040000033,z,0.9540501000010408,None,727.1552894999913,727.1552894999913,,,,,,,,,SS_th,001,2025-03-11_22h33.02.862,MainFlow,2024.2.4,143.49940520870794,2025-03-11 22h33.13.886300 +0700,
1,40,1,word/wordth0401.png,image/True/img40.png,213,213,0,z,0.4673359000007622,None,0,213,213,213,729.3031494000024,,,,,,,730.7935708000005,730.2996296999918,730.3027597000037,730.3027597000037,730.7883434999967,731.9405265999958,731.9405265999958,z,0.4673359000007622,None,730.7935708000005,730.7935708000005,731.9405265999958,,,,,,,,SS_th,001,2025-03-11_22h33.02.862,MainFlow,2024.2.4,143.49940520870794,2025-03-11 22h33.13.886300 +0700,
1,57,0,word/wordth0571.png,image/False/imgf57.png,214,214,0,x,0.6985975999996299,None,0,214,214,214,732.4182010999939,,,,,,,733.9178114999959,733.420922499994,733.4244715999957,733.4244715999957,733.9123928999907,735.0233334999939,735.0233334999939,x,0.6985975999996299,None,733.9178114999959,733.9178114999959,,,,,,,,,SS_th,001,2025-03-11_22h33.02.862,MainFlow,2024.2.4,143.49940520870794,2025-03-11 22h33.13.886300 +0700,
1,50,1,word/wordth0501.png,image/True/img50.png,215,215,0,z,0.5740835999895353,None,0,215,215,215,735.7299486999982,,,,,,,737.2227489999932,736.7286632000032,736.7325844000006,736.7325844000006,737.217347999991,738.3393467999995,738.3393467999995,z,0.5740835999895353,None,737.2227489999932,737.2227489999932,738.3393467999995,,,,,,,,SS_th,001,2025-03-11_22h33.02.862,MainFlow,2024.2.4,143.49940520870794,2025-03-11 22h33.13.886300 +0700,
1,64,0,word/wordth0641.png,image/False/imgf64.png,216,216,0,x,0.7270737000071676,None,0,216,216,216,738.9237406000029,,,,,,,740.4165820999915,739.9183569000015,739.9217260000005,739.9217260000005,740.4107259000011,741.4984236000018,741.4984236000018,x,0.7270737000071676,None,740.4165820999915,740.4165820999915,741.4984236000018,,,,,,,,SS_th,001,2025-03-11_22h33.02.862,MainFlow,2024.2.4,143.49940520870794,2025-03-11 22h33.13.886300 +0700,
1,42,1,word/wordth0421.png,image/True/img42.png,217,217,0,z,0.49698179999541026,None,0,217,217,217,742.2355462999985,,,,,,,743.7354047999979,743.2377713000024,743.2413797999907,743.2413797999907,743.7296891000005,744.8383114000026,744.8383114000026,z,0.49698179999541026,None,743.7354047999979,743.7354047999979,,,,,,,,,SS_th,001,2025-03-11_22h33.02.862,MainFlow,2024.2.4,143.49940520870794,2025-03-11 22h33.13.886300 +0700,
1,56,0,word/wordth0561.png,image/False/imgf56.png,218,218,0,x,0.6396655999997165,None,0,218,218,218,745.3482197999983,,,,,,,746.8387769999972,746.3442404999951,746.3475659999967,746.3475659999967,746.8327405000018,747.9947481999989,747.9947481999989,x,0.6396655999997165,None,746.8387769999972,746.8387769999972,747.9947481999989,,,,,,,,SS_th,001,2025-03-11_22h33.02.862,MainFlow,2024.2.4,143.49940520870794,2025-03-11 22h33.13.886300 +0700,
1,22,1,word/wordth0221.png,image/True/img22.png,219,219,0,x,0.847821200004546,None,0,219,219,219,748.6444057999906,,,,,,,750.1370058999892,749.6406392999925,749.643966299991,749.643966299991,750.1313825999969,751.2842348999984,751.2842348999984,x,0.847821200004546,None,750.1370058999892,750.1370058999892,751.2842348999984,,,,,,,,SS_th,001,2025-03-11_22h33.02.862,MainFlow,2024.2.4,143.49940520870794,2025-03-11 22h33.13.886300 +0700,
1,82,0,word/wordth0821.png,image/False/imgf82.png,220,220,0,x,0.5162614000000758,None,0,220,220,220,752.1435331999965,,,,,,,753.6292705999949,753.1341479999974,753.1370310999919,753.1370310999919,753.6238037000003,754.7504534999898,754.7504534999898,x,0.5162614000000758,None,753.6292705999949,753.6292705999949,754.7504534999898,,,,,,,,SS_th,001,2025-03-11_22h33.02.862,MainFlow,2024.2.4,143.49940520870794,2025-03-11 22h33.13.886300 +0700,
1,54,1,word/wordth0541.png,image/True/img54.png,221,221,0,z,0.4585571999923559,None,0,221,221,221,755.2748500000016,,,,,,,756.7678903999913,756.2741563000018,756.2776213000034,756.2776213000034,756.7628334999899,757.9087607999973,757.9087607999973,z,0.4585571999923559,None,756.7678903999913,756.7678903999913,757.9087607999973,,,,,,,,SS_th,001,2025-03-11_22h33.02.862,MainFlow,2024.2.4,143.49940520870794,2025-03-11 22h33.13.886300 +0700,
1,55,0,word/wordth0551.png,image/False/imgf55.png,222,222,0,x,0.7356786999880569,None,0,222,222,222,758.3783265999955,,,,,,,759.8641661000001,759.3655207999982,759.3682827000011,759.3682827000011,759.8514437999984,760.9797171999962,760.9797171999962,x,0.7356786999880569,None,759.8572264999966,759.8572264999966,760.9797171999962,,,,,,,,SS_th,001,2025-03-11_22h33.02.862,MainFlow,2024.2.4,143.49940520870794,2025-03-11 22h33.13.886300 +0700,
1,48,1,word/wordth0481.png,image/True/img48.png,223,223,0,z,0.5800281999981962,None,0,223,223,223,761.7248899999977,,,,,,,763.2107550999935,762.7186529000028,762.7217565000028,762.7217565000028,763.2050839000003,764.3428538000007,764.3428538000007,z,0.5800281999981962,None,763.2107550999935,763.2107550999935,764.3428538000007,,,,,,,,SS_th,001,2025-03-11_22h33.02.862,MainFlow,2024.2.4,143.49940520870794,2025-03-11 22h33.13.886300 +0700,
1,44,1,word/wordth0441.png,image/True/img44.png,224,224,0,z,0.6377910000010161,None,0,224,224,224,764.9326173000009,,,,,,,766.418430699996,765.9200762999972,765.9228942999907,765.9228942999907,766.4127082999912,767.5274735999992,767.5274735999992,z,0.6377910000010161,None,766.418430699996,766.418430699996,767.5274735999992,,,,,,,,SS_th,001,2025-03-11_22h33.02.862,MainFlow,2024.2.4,143.49940520870794,2025-03-11 22h33.13.886300 +0700,
1,87,0,word/wordth0871.png,image/False/imgf87.png,225,225,0,x,0.5520382999966387,None,0,225,225,225,768.1751988999895,,,,,,,769.6678116999974,769.1713368999917,769.1747079999914,769.1747079999914,769.6619667999912,770.7717141999892,770.7717141999892,x,0.5520382999966387,None,769.6678116999974,769.6678116999974,770.7717141999892,,,,,,,,SS_th,001,2025-03-11_22h33.02.862,MainFlow,2024.2.4,143.49940520870794,2025-03-11 22h33.13.886300 +0700,
1,70,1,word/wordth0701.png,image/True/img70.png,226,226,0,z,1.7239826000004541,None,0,226,226,226,771.3342680999922,,,,,,,772.8268967999902,772.3283605000033,772.331637299998,772.331637299998,772.8215273999958,773.9582738000026,773.9582738000026,z,1.7239826000004541,None,772.8268967999902,772.8268967999902,773.9582738000026,,,,,,,,SS_th,001,2025-03-11_22h33.02.862,MainFlow,2024.2.4,143.49940520870794,2025-03-11 22h33.13.886300 +0700,
1,33,0,word/wordth0331.png,image/False/imgf33.png,227,227,0,x,0.5510952000040561,None,0,227,227,227,775.6904363999929,,,,,,,777.1802316999965,776.682919999992,776.6859887000028,776.6859887000028,777.174726600002,778.3143699999928,778.3143699999928,x,0.5510952000040561,None,777.1802316999965,777.1802316999965,778.3143699999928,,,,,,,,SS_th,001,2025-03-11_22h33.02.862,MainFlow,2024.2.4,143.49940520870794,2025-03-11 22h33.13.886300 +0700,
1,52,1,word/wordth0521.png,image/True/img52.png,228,228,0,z,0.3128673000028357,None,0,228,228,228,778.8742191999918,,,,,,,780.3603042999894,779.865962099997,779.869139699993,779.869139699993,780.3550520999997,781.4889026000019,781.4889026000019,z,0.3128673000028357,None,780.3603042999894,780.3603042999894,781.4889026000019,,,,,,,,SS_th,001,2025-03-11_22h33.02.862,MainFlow,2024.2.4,143.49940520870794,2025-03-11 22h33.13.886300 +0700,
1,59,1,word/wordth0591.png,image/True/img59.png,229,229,0,z,0.32812489999923855,None,0,229,229,229,781.8112888000032,,,,,,,783.3043290999922,782.8066167999932,782.8101110999996,782.8101110999996,783.29904849999,784.3817562999902,784.3817562999902,z,0.32812489999923855,None,783.3043290999922,783.3043290999922,784.3817562999902,,,,,,,,SS_th,001,2025-03-11_22h33.02.862,MainFlow,2024.2.4,143.49940520870794,2025-03-11 22h33.13.886300 +0700,
1,56,0,word/wordth0561.png,image/False/imgf56.png,230,230,0,x,0.9488440000131959,None,0,230,230,230,784.720458900003,,,,,,,786.2133955000027,785.7166338999959,785.7199344999972,785.7199344999972,786.2082778999902,787.3594064999925,787.3594064999925,x,0.9488440000131959,None,786.2133955000027,786.2133955000027,787.3594064999925,,,,,,,,SS_th,001,2025-03-11_22h33.02.862,MainFlow,2024.2.4,143.49940520870794,2025-03-11 22h33.13.886300 +0700,
