lang,wordid,truestate,worddir,imgdir,trials.thisRepN,trials.thisTrialN,trials.thisN,trials.thisIndex,thisRow.t,notes,tutorial.started,tutorial.stopped,key_instruct.keys,key_instruct.rt,key_instruct.duration,plusblank.started,wordshow.started,image.started,plsuer.started,wordshow.stopped,imageword.started,key_resp.started,key_resp.keys,key_resp.rt,key_resp.duration,plusblank.stopped,ending.started,text_3.started,ending_key.started,ending.stopped,ending_key.keys,ending_key.rt,ending_key.duration,participant,session,date,expName,psychopyVersion,frameRate,expStart,
,,,,,,,,,,,0.003808542000115267,8.404155333000745,space,8.351536166999722,None,,,,,,,,,,,,,,,,,,,ypen,001,2025-05-29_14h18.39.961,MainFlow,2024.1.5,None,2025-05-29 14h18.48.704698 +0700,
2,87,0,word/worden0871.png,image/False/imgf87.png,0,0,0,0,8.459746374999668,,,,,,,9.910225542000262,9.393750749999526,9.430349292000756,9.430349292000756,9.898112999999285,11.033361166999384,11.033361166999384,x,10.879987709000488,None,,,,,,,,,ypen,001,2025-05-29_14h18.39.961,MainFlow,2024.1.5,None,2025-05-29 14h18.48.704698 +0700,
2,93,0,word/worden0931.png,image/False/imgf93.png,0,1,1,1,21.926439124999888,,,,,,,23.42676416699942,22.910745125000176,22.93605920799928,22.93605920799928,23.41440995800076,24.53289600000062,24.53289600000062,x,10.188204959000359,None,22.93605920799928,,,,,,,,ypen,001,2025-05-29_14h18.39.961,MainFlow,2024.1.5,None,2025-05-29 14h18.48.704698 +0700,
2,23,0,word/worden0231.png,image/False/imgf23.png,0,2,2,2,34.74032504199931,,,,,,,36.22671108299983,35.71453366700007,35.738601167000525,35.738601167000525,36.21489762500096,37.3731485419994,37.3731485419994,z,3.691393999999491,None,,,,,,,,,ypen,001,2025-05-29_14h18.39.961,MainFlow,2024.1.5,None,2025-05-29 14h18.48.704698 +0700,
2,10,1,word/worden0101.png,image/True/img10.png,0,3,3,3,41.076589250000325,,,,,,,42.57669524999983,42.06028116699963,42.0845874580009,42.0845874580009,42.56510212499961,43.68331533300079,43.68331533300079,x,3.364842917000715,None,42.0845874580009,,,,,,,,ypen,001,2025-05-29_14h18.39.961,MainFlow,2024.1.5,None,2025-05-29 14h18.48.704698 +0700,
2,50,0,word/worden0501.png,image/False/imgf50.png,0,4,4,4,47.05997945799936,,,,,,,48.56003799999962,48.04360575000101,48.06866079199972,48.06866079199972,48.54844595800023,49.671412957999564,49.671412957999564,x,5.138949166999737,None,48.06866079199972,,,,,,,,ypen,001,2025-05-29_14h18.39.961,MainFlow,2024.1.5,None,2025-05-29 14h18.48.704698 +0700,
2,33,1,word/worden0331.png,image/True/img33.png,0,5,5,5,54.82649024999955,,,,,,,56.32655566699941,55.810315167000226,55.834408458000325,55.834408458000325,56.31441300000006,57.44523037500039,57.44523037500039,z,1.2590004580015375,None,55.834408458000325,,,,,,,,ypen,001,2025-05-29_14h18.39.961,MainFlow,2024.1.5,None,2025-05-29 14h18.48.704698 +0700,
2,95,0,word/worden0951.png,image/False/imgf95.png,0,6,6,6,58.71830866699929,,,,,,,60.21442633300103,59.69803833300102,59.72288133300026,59.72288133300026,60.20977574999961,61.33737049999945,61.33737049999945,x,9.183040832998813,None,,,,,,,,,ypen,001,2025-05-29_14h18.39.961,MainFlow,2024.1.5,None,2025-05-29 14h18.48.704698 +0700,
2,7,0,word/worden0071.png,image/False/imgf07.png,0,7,7,7,70.53460000000086,,,,,,,72.02644837499975,71.51426579200051,71.53779504200065,71.53779504200065,72.01437712500046,73.14383304200055,73.14383304200055,x,2.5133535410004697,None,,,,,,,,,ypen,001,2025-05-29_14h18.39.961,MainFlow,2024.1.5,None,2025-05-29 14h18.48.704698 +0700,
2,28,1,word/worden0281.png,image/True/img28.png,0,8,8,8,75.66780229200049,,,,,,,77.16441887499968,76.64801591700052,76.67228495800009,76.67228495800009,77.1597904579994,78.2929294580008,78.2929294580008,z,8.81940029100042,None,,,,,,,,,ypen,001,2025-05-29_14h18.39.961,MainFlow,2024.1.5,None,2025-05-29 14h18.48.704698 +0700,
2,38,1,word/worden0381.png,image/True/img38.png,0,9,9,9,87.12621058300101,,,,,,,88.62636812500023,88.11010495799928,88.13600229199983,88.13600229199983,88.61431754200021,89.7365172080008,89.7365172080008,z,4.479328542000076,None,88.13600229199983,,,,,,,,ypen,001,2025-05-29_14h18.39.961,MainFlow,2024.1.5,None,2025-05-29 14h18.48.704698 +0700,
2,33,0,word/worden0331.png,image/False/imgf33.png,0,10,10,10,94.23155645800034,,,,,,,95.72633104200031,95.21397054199952,95.23729679200005,95.23729679200005,95.71473912500005,96.85207612500017,96.85207612500017,x,2.148346333000518,None,,,,,,,,,ypen,001,2025-05-29_14h18.39.961,MainFlow,2024.1.5,None,2025-05-29 14h18.48.704698 +0700,
2,76,1,word/worden0761.png,image/True/img76.png,0,11,11,11,99.01770579200092,,,,,,,100.50964587499948,99.99741262499992,100.02141866700003,100.02141866700003,100.49757220799984,101.62714383300045,101.62714383300045,x,2.469555333000244,None,,,,,,,,,ypen,001,2025-05-29_14h18.39.961,MainFlow,2024.1.5,None,2025-05-29 14h18.48.704698 +0700,
2,75,0,word/worden0751.png,image/False/imgf75.png,0,12,12,12,104.10956762500064,,,,,,,105.60956641700068,105.09327966700039,105.1177434580004,105.1177434580004,105.5977617919998,106.72571316699941,106.72571316699941,x,1.485780082999554,None,105.1177434580004,,,,,,,,ypen,001,2025-05-29_14h18.39.961,MainFlow,2024.1.5,None,2025-05-29 14h18.48.704698 +0700,
2,7,1,word/worden0071.png,image/True/img07.png,0,13,13,13,108.22630204199959,,,,,,,109.72625937500015,109.20999591700092,109.2342005419996,109.2342005419996,109.71417049999945,110.85425575000045,110.85425575000045,z,1.529315083000256,None,109.2342005419996,,,,,,,,ypen,001,2025-05-29_14h18.39.961,MainFlow,2024.1.5,None,2025-05-29 14h18.48.704698 +0700,
2,51,1,word/worden0511.png,image/True/img51.png,0,14,14,14,112.40166425000098,,,,,,,113.89288654200027,113.38069575000009,113.40452974999971,113.40452974999971,113.88076974999967,115.01897179200023,115.01897179200023,x,8.90896950000024,None,,,,,,,,,ypen,001,2025-05-29_14h18.39.961,MainFlow,2024.1.5,None,2025-05-29 14h18.48.704698 +0700,
2,59,0,word/worden0591.png,image/False/imgf59.png,0,15,15,15,123.94273341699954,,,,,,,125.44281933300044,124.9264915420008,124.94987712500006,124.94987712500006,125.43076337499951,126.53466291699988,126.53466291699988,x,4.676027417001023,None,124.94987712500006,,,,,,,,ypen,001,2025-05-29_14h18.39.961,MainFlow,2024.1.5,None,2025-05-29 14h18.48.704698 +0700,
2,54,0,word/worden0541.png,image/False/imgf54.png,0,16,16,16,131.22619208300057,,,,,,,132.72623745800047,132.20978883300086,132.23600520800028,132.23600520800028,132.7139700000007,133.8416945000008,133.8416945000008,x,1.1348926660011784,None,132.23600520800028,,,,,,,,ypen,001,2025-05-29_14h18.39.961,MainFlow,2024.1.5,None,2025-05-29 14h18.48.704698 +0700,
2,6,1,word/worden0061.png,image/True/img06.png,0,17,17,17,134.99262458299927,,,,,,,136.49278591700022,135.97654333299943,136.0013237919993,136.0013237919993,136.48063187499974,137.58954379200077,137.58954379200077,z,1.0510020830006397,None,136.0013237919993,,,,,,,,ypen,001,2025-05-29_14h18.39.961,MainFlow,2024.1.5,None,2025-05-29 14h18.48.704698 +0700,
2,41,1,word/worden0411.png,image/True/img41.png,0,18,18,18,138.6510831249998,,,,,,,140.14704820800034,139.6306105420008,139.65427579199968,139.65427579199968,140.14281049999954,141.26976862499941,141.26976862499941,x,8.099323582999205,None,,,,,,,,,ypen,001,2025-05-29_14h18.39.961,MainFlow,2024.1.5,None,2025-05-29 14h18.48.704698 +0700,
2,42,0,word/worden0421.png,image/False/imgf42.png,0,19,19,19,149.38418720799928,,,,,,,150.87600883300001,150.3636497080006,150.38717129200086,150.38717129200086,150.86394958299934,152.00831562500025,152.00831562500025,x,2.7191211249992193,None,,,,,,,,,ypen,001,2025-05-29_14h18.39.961,MainFlow,2024.1.5,None,2025-05-29 14h18.48.704698 +0700,
2,64,0,word/worden0641.png,image/False/imgf64.png,0,20,20,20,154.74269054199976,,,,,,,156.2426666249994,155.72638429200015,155.75090183300017,155.75090183300017,156.23087916700024,157.33185475000028,157.33185475000028,x,2.9486618749997433,None,155.75090183300017,,,,,,,,ypen,001,2025-05-29_14h18.39.961,MainFlow,2024.1.5,None,2025-05-29 14h18.48.704698 +0700,
2,96,1,word/worden0961.png,image/True/img96.png,0,21,21,21,160.29262245800055,,,,,,,161.79262358300002,161.27640641700054,161.3008539170005,161.3008539170005,161.78048016700086,162.91464624999935,162.91464624999935,z,7.310372040999937,None,161.3008539170005,,,,,,,,ypen,001,2025-05-29_14h18.39.961,MainFlow,2024.1.5,None,2025-05-29 14h18.48.704698 +0700,
2,76,0,word/worden0761.png,image/False/imgf76.png,0,22,22,22,170.2344173750007,,,,,,,171.73033762500017,171.21414608300074,171.23806333299945,171.23806333299945,171.72598387499966,172.8611403750001,172.8611403750001,x,1.5157469170007971,None,,,,,,,,,ypen,001,2025-05-29_14h18.39.961,MainFlow,2024.1.5,None,2025-05-29 14h18.48.704698 +0700,
2,17,1,word/worden0171.png,image/True/img17.png,0,23,23,23,174.3924117080005,,,,,,,175.89263545799986,175.3762122499993,175.3998345,175.3998345,175.88029991700023,177.00580433300092,177.00580433300092,z,4.458533875000285,None,175.3998345,,,,,,,,ypen,001,2025-05-29_14h18.39.961,MainFlow,2024.1.5,None,2025-05-29 14h18.48.704698 +0700,
2,6,1,word/worden0061.png,image/True/img06.png,0,24,24,24,181.4810814169996,,,,,,,182.97590795799988,182.4594735419996,182.48296637500061,182.48296637500061,182.96371366700077,184.07375158300056,184.07375158300056,z,2.9984680830002617,None,,,,,,,,,ypen,001,2025-05-29_14h18.39.961,MainFlow,2024.1.5,None,2025-05-29 14h18.48.704698 +0700,
2,88,1,word/worden0881.png,image/True/img88.png,0,25,25,25,187.08470325000053,,,,,,,188.58014758299942,188.0637277500009,188.08719675000066,188.08719675000066,188.57590300000084,189.70397316699928,189.70397316699928,z,1.1852905840005405,None,,,,,,,,,ypen,001,2025-05-29_14h18.39.961,MainFlow,2024.1.5,None,2025-05-29 14h18.48.704698 +0700,
2,44,1,word/worden0441.png,image/True/img44.png,0,26,26,26,190.90080975000092,,,,,,,192.3966813749994,191.8802881669999,191.903996250001,191.903996250001,192.39244966700062,193.50172420799936,193.50172420799936,z,2.708385666999675,None,,,,,,,,,ypen,001,2025-05-29_14h18.39.961,MainFlow,2024.1.5,None,2025-05-29 14h18.48.704698 +0700,
2,27,0,word/worden0271.png,image/False/imgf27.png,0,27,27,27,196.2258386249996,,,,,,,197.7256963330001,197.20946924999953,197.23359566699946,197.23359566699946,197.7140185419994,198.83585137500086,198.83585137500086,x,1.3332281670009252,None,197.23359566699946,,,,,,,,ypen,001,2025-05-29_14h18.39.961,MainFlow,2024.1.5,None,2025-05-29 14h18.48.704698 +0700,
2,14,0,word/worden0141.png,image/False/imgf14.png,0,28,28,28,200.18345362500077,,,,,,,201.67574995799987,201.16389179200087,201.1887132920001,201.1887132920001,201.66414479200103,202.79386999999952,202.79386999999952,x,2.4156419999999343,None,,,,,,,,,ypen,001,2025-05-29_14h18.39.961,MainFlow,2024.1.5,None,2025-05-29 14h18.48.704698 +0700,
2,40,0,word/worden0401.png,image/False/imgf40.png,0,29,29,29,205.22568791699996,,,,,,,206.7257285830001,206.20951695800068,206.23436158299955,206.23436158299955,206.71358937500008,207.84328891699988,207.84328891699988,x,5.101261499999964,None,206.23436158299955,,,,,,,,ypen,001,2025-05-29_14h18.39.961,MainFlow,2024.1.5,None,2025-05-29 14h18.48.704698 +0700,
2,1,0,word/worden0011.png,image/False/imgf01.png,0,30,30,30,212.9591043750006,,,,,,,214.4589200419996,213.9429431669996,213.96667700000035,213.96667700000035,214.44686137499957,215.56848741700014,215.56848741700014,x,3.735001541999736,None,213.96667700000035,,,,,,,,ypen,001,2025-05-29_14h18.39.961,MainFlow,2024.1.5,None,2025-05-29 14h18.48.704698 +0700,
2,3,0,word/worden0031.png,image/False/imgf03.png,0,31,31,31,219.31743412499964,,,,,,,220.81318037500023,220.29724212499968,220.32096045800063,220.32096045800063,220.80899237499943,221.9232905000008,221.9232905000008,x,5.470523042000423,None,,,,,,,,,ypen,001,2025-05-29_14h18.39.961,MainFlow,2024.1.5,None,2025-05-29 14h18.48.704698 +0700,
2,57,1,word/worden0571.png,image/True/img57.png,0,32,32,32,227.40895445800015,,,,,,,228.90892104200066,228.39261950000036,228.41731504199925,228.41731504199925,228.89692354200088,230.0346128330002,230.0346128330002,z,4.08528404199933,None,228.41731504199925,,,,,,,,ypen,001,2025-05-29_14h18.39.961,MainFlow,2024.1.5,None,2025-05-29 14h18.48.704698 +0700,
2,88,0,word/worden0881.png,image/False/imgf88.png,0,33,33,33,234.13382258300044,,,,,,,235.6255687920002,235.11175833299967,235.13293995800086,235.13293995800086,235.61394454199944,236.74209654200058,236.74209654200058,x,4.72283625000091,None,,,,,,,,,ypen,001,2025-05-29_14h18.39.961,MainFlow,2024.1.5,None,2025-05-29 14h18.48.704698 +0700,
2,52,0,word/worden0521.png,image/False/imgf52.png,0,34,34,34,241.480956333,,,,,,,242.97547833300086,242.46309549999933,242.4862481250002,242.4862481250002,242.9634228750001,244.08392220799942,244.08392220799942,x,5.084048042001086,None,,,,,,,,,ypen,001,2025-05-29_14h18.39.961,MainFlow,2024.1.5,None,2025-05-29 14h18.48.704698 +0700,
2,50,0,word/worden0501.png,image/False/imgf50.png,0,35,35,35,249.18389995799953,,,,,,,250.6796197500007,250.16367012500086,250.18852725000033,250.18852725000033,250.67551141700096,251.78911941700062,251.78911941700062,x,2.875682209001752,None,,,,,,,,,ypen,001,2025-05-29_14h18.39.961,MainFlow,2024.1.5,None,2025-05-29 14h18.48.704698 +0700,
2,78,1,word/worden0781.png,image/True/img78.png,0,36,36,36,254.68073037499926,,,,,,,256.1796332499998,255.66372916699947,255.6873558749994,255.6873558749994,256.17546949999996,257.28150291699967,257.28150291699967,z,4.7276508750001085,None,255.6873558749994,,,,,,,,ypen,001,2025-05-29_14h18.39.961,MainFlow,2024.1.5,None,2025-05-29 14h18.48.704698 +0700,
2,61,0,word/worden0611.png,image/False/imgf61.png,0,37,37,37,262.0252961669994,,,,,,,263.5252301670007,263.0089847920008,263.0328654999994,263.0328654999994,263.51332233299945,264.6499627079993,264.6499627079993,x,2.99783962499896,None,263.0328654999994,,,,,,,,ypen,001,2025-05-29_14h18.39.961,MainFlow,2024.1.5,None,2025-05-29 14h18.48.704698 +0700,
2,36,0,word/worden0361.png,image/False/imgf36.png,0,38,38,38,267.66409320800085,,,,,,,269.15877716700015,268.6463310420004,268.6696447920003,268.6696447920003,269.14651483300077,270.2779817080009,270.2779817080009,x,3.2819770829992194,None,,,,,,,,,ypen,001,2025-05-29_14h18.39.961,MainFlow,2024.1.5,None,2025-05-29 14h18.48.704698 +0700,
2,10,1,word/worden0101.png,image/True/img10.png,0,39,39,39,273.57519966700056,,,,,,,275.07525437500044,274.5589606249996,274.5822802500006,274.5822802500006,275.06359924999924,276.1827696250002,276.1827696250002,z,6.777580250000028,None,274.5822802500006,,,,,,,,ypen,001,2025-05-29_14h18.39.961,MainFlow,2024.1.5,None,2025-05-29 14h18.48.704698 +0700,
2,75,1,word/worden0751.png,image/True/img75.png,0,40,40,40,282.9751847919997,,,,,,,284.4752945830005,283.95907420799995,283.98349108299954,283.98349108299954,284.4629640000003,285.5917581249996,285.5917581249996,z,10.881116082999142,None,283.98349108299954,,,,,,,,ypen,001,2025-05-29_14h18.39.961,MainFlow,2024.1.5,None,2025-05-29 14h18.48.704698 +0700,
2,1,1,word/worden0011.png,image/True/img01.png,0,41,41,41,296.48312691700085,,,,,,,297.9797333330007,297.4633312500009,297.48692270799984,297.48692270799984,297.975408833001,299.1037782500007,299.1037782500007,z,1.1223930840005778,None,,,,,,,,,ypen,001,2025-05-29_14h18.39.961,MainFlow,2024.1.5,None,2025-05-29 14h18.48.704698 +0700,
2,37,1,word/worden0371.png,image/True/img37.png,0,42,42,42,300.2417362920005,,,,,,,301.7418067920007,301.2256967079993,301.24935037499927,301.24935037499927,301.7296607499993,302.8800400420005,302.8800400420005,x,8.432153625000865,None,301.24935037499927,,,,,,,,ypen,001,2025-05-29_14h18.39.961,MainFlow,2024.1.5,None,2025-05-29 14h18.48.704698 +0700,
2,66,0,word/worden0661.png,image/False/imgf66.png,0,43,43,43,311.3249433330002,,,,,,,312.8251118749995,312.30862499999967,312.333069667,312.333069667,312.813070917,313.94460558299943,313.94460558299943,x,2.5682826669999486,None,312.333069667,,,,,,,,ypen,001,2025-05-29_14h18.39.961,MainFlow,2024.1.5,None,2025-05-29 14h18.48.704698 +0700,
2,55,1,word/worden0551.png,image/True/img55.png,0,44,44,44,316.52512141700026,,,,,,,318.0251925419998,317.5087586669997,317.53317654199964,317.53317654199964,318.01293608299966,319.1495873750009,319.1495873750009,z,2.770968417000404,None,317.53317654199964,,,,,,,,ypen,001,2025-05-29_14h18.39.961,MainFlow,2024.1.5,None,2025-05-29 14h18.48.704698 +0700,
2,70,0,word/worden0701.png,image/False/imgf70.png,0,45,45,45,321.93348391700056,,,,,,,323.4291332499997,322.91316062499936,322.93737733300077,322.93737733300077,323.42507212500095,324.5424016670004,324.5424016670004,x,3.321155292000185,None,,,,,,,,,ypen,001,2025-05-29_14h18.39.961,MainFlow,2024.1.5,None,2025-05-29 14h18.48.704698 +0700,
2,68,0,word/worden0681.png,image/False/imgf68.png,0,46,46,46,327.88041183300084,,,,,,,329.3792685419994,328.8633693749998,328.88719608300016,328.88719608300016,329.3750855420003,330.472549125001,330.472549125001,z,5.384596707999663,None,328.88719608300016,,,,,,,,ypen,001,2025-05-29_14h18.39.961,MainFlow,2024.1.5,None,2025-05-29 14h18.48.704698 +0700,
2,75,1,word/worden0751.png,image/True/img75.png,0,47,47,47,335.86685283299994,,,,,,,337.3628410420006,336.84656245800034,336.86989862500013,336.86989862500013,337.35832783300066,338.47693804200026,338.47693804200026,z,8.859767959000237,None,,,,,,,,,ypen,001,2025-05-29_14h18.39.961,MainFlow,2024.1.5,None,2025-05-29 14h18.48.704698 +0700,
2,38,1,word/worden0381.png,image/True/img38.png,0,48,48,48,347.34954712500075,,,,,,,348.845700625001,348.3292842080009,348.35251629199956,348.35251629199956,348.84153895800046,349.95506470799955,349.95506470799955,z,2.7330110000002605,None,,,,,,,,,ypen,001,2025-05-29_14h18.39.961,MainFlow,2024.1.5,None,2025-05-29 14h18.48.704698 +0700,
2,42,1,word/worden0421.png,image/True/img42.png,0,49,49,49,352.69981087499946,,,,,,,354.1957828329996,353.67974241699994,353.70290849999947,353.70290849999947,354.19157633299983,355.31409579200044,355.31409579200044,z,3.1496642919992155,None,,,,,,,,,ypen,001,2025-05-29_14h18.39.961,MainFlow,2024.1.5,None,2025-05-29 14h18.48.704698 +0700,
2,11,0,word/worden0111.png,image/False/imgf11.png,0,50,50,50,358.4801733330005,,,,,,,359.9747612080009,359.4626084169995,359.48661829199955,359.48661829199955,359.96273033299985,361.1095782499997,361.1095782499997,x,1.8502666669992323,None,,,,,,,,,ypen,001,2025-05-29_14h18.39.961,MainFlow,2024.1.5,None,2025-05-29 14h18.48.704698 +0700,
2,41,0,word/worden0411.png,image/False/imgf41.png,0,51,51,51,362.9746097919997,,,,,,,364.4747862080003,363.95860600000015,363.9824479170002,363.9824479170002,364.46330491700064,365.5653472920003,365.5653472920003,x,2.5466365829997812,None,363.9824479170002,,,,,,,,ypen,001,2025-05-29_14h18.39.961,MainFlow,2024.1.5,None,2025-05-29 14h18.48.704698 +0700,
2,82,1,word/worden0821.png,image/True/img82.png,0,52,52,52,368.1246055419997,,,,,,,369.62477079199925,369.10844462500063,369.1318154170003,369.1318154170003,369.61311404200023,370.7129060829993,370.7129060829993,z,2.327411750000465,None,369.1318154170003,,,,,,,,ypen,001,2025-05-29_14h18.39.961,MainFlow,2024.1.5,None,2025-05-29 14h18.48.704698 +0700,
2,88,0,word/worden0881.png,image/False/imgf88.png,0,53,53,53,373.0494616670003,,,,,,,374.54137875000015,374.02916195800026,374.05193537500054,374.05193537500054,374.5292853329993,375.65792645799957,375.65792645799957,x,4.4704713330011145,None,,,,,,,,,ypen,001,2025-05-29_14h18.39.961,MainFlow,2024.1.5,None,2025-05-29 14h18.48.704698 +0700,
2,8,1,word/worden0081.png,image/True/img08.png,0,54,54,54,380.141158208,,,,,,,381.6412279169999,381.1251017499999,381.14851333300066,381.14851333300066,381.62918700000046,382.74007733300095,382.74007733300095,z,4.907299083000908,None,381.14851333300066,,,,,,,,ypen,001,2025-05-29_14h18.39.961,MainFlow,2024.1.5,None,2025-05-29 14h18.48.704698 +0700,
2,16,0,word/worden0161.png,image/False/imgf16.png,0,55,55,55,387.6632991669994,,,,,,,389.1579418330002,388.64575391700055,388.6702212500004,388.6702212500004,389.1458094169993,390.28583858300044,390.28583858300044,x,1.7066216669991263,None,,,,,,,,,ypen,001,2025-05-29_14h18.39.961,MainFlow,2024.1.5,None,2025-05-29 14h18.48.704698 +0700,
2,10,0,word/worden0101.png,image/False/imgf10.png,0,56,56,56,392.0079940830001,,,,,,,393.5079112500007,392.99171529200066,393.0170235000005,393.0170235000005,393.4957711669995,394.620915083,394.620915083,x,5.243259291000868,None,393.0170235000005,,,,,,,,ypen,001,2025-05-29_14h18.39.961,MainFlow,2024.1.5,None,2025-05-29 14h18.48.704698 +0700,
2,76,0,word/worden0761.png,image/False/imgf76.png,0,57,57,57,399.88003720800043,,,,,,,401.37468612500015,400.86230674999933,400.8863088750004,400.8863088750004,401.362360000001,402.51172195800063,402.51172195800063,x,2.544547084000442,None,,,,,,,,,ypen,001,2025-05-29_14h18.39.961,MainFlow,2024.1.5,None,2025-05-29 14h18.48.704698 +0700,
2,42,1,word/worden0421.png,image/True/img42.png,0,58,58,58,405.0658909579997,,,,,,,406.55790604200047,406.045746875001,406.0692797499996,406.0692797499996,406.54587258299944,407.6804622079999,407.6804622079999,z,3.0389102079989243,None,,,,,,,,,ypen,001,2025-05-29_14h18.39.961,MainFlow,2024.1.5,None,2025-05-29 14h18.48.704698 +0700,
2,26,0,word/worden0261.png,image/False/imgf26.png,0,59,59,59,410.7331076249993,,,,,,,412.2244995830006,411.7121080830002,411.7363662080006,411.7363662080006,412.2124436670001,413.3599984579996,413.3599984579996,x,1.2966809589997865,None,,,,,,,,,ypen,001,2025-05-29_14h18.39.961,MainFlow,2024.1.5,None,2025-05-29 14h18.48.704698 +0700,
2,26,1,word/worden0261.png,image/True/img26.png,0,60,60,60,414.66594516700025,,,,,,,416.1620737079993,415.64607270799934,415.669646458,415.669646458,416.1578560830003,417.2877013750003,417.2877013750003,z,1.840598750000936,None,,,,,,,,,ypen,001,2025-05-29_14h18.39.961,MainFlow,2024.1.5,None,2025-05-29 14h18.48.704698 +0700,
2,48,1,word/worden0481.png,image/True/img48.png,0,61,61,61,419.1410232920007,,,,,,,420.6411672920003,420.1249829999997,420.14816045800035,420.14816045800035,420.6295142500003,421.7638968329993,421.7638968329993,z,1.4768305830002646,None,420.14816045800035,,,,,,,,ypen,001,2025-05-29_14h18.39.961,MainFlow,2024.1.5,None,2025-05-29 14h18.48.704698 +0700,
2,71,0,word/worden0711.png,image/False/imgf71.png,0,62,62,62,423.24962795800093,,,,,,,424.745568833001,424.22934520799936,424.25371254200036,424.25371254200036,424.74111083299977,425.8808869170007,425.8808869170007,x,4.831048624999312,None,,,,,,,,,ypen,001,2025-05-29_14h18.39.961,MainFlow,2024.1.5,None,2025-05-29 14h18.48.704698 +0700,
2,93,1,word/worden0931.png,image/True/img93.png,0,63,63,63,430.724267167001,,,,,,,432.2244151249997,431.70819066700096,431.7330112079999,431.7330112079999,432.2122865420006,433.32978600000024,433.32978600000024,z,11.933967791999748,None,431.7330112079999,,,,,,,,ypen,001,2025-05-29_14h18.39.961,MainFlow,2024.1.5,None,2025-05-29 14h18.48.704698 +0700,
2,51,1,word/worden0511.png,image/True/img51.png,0,64,64,64,445.27962191699953,,,,,,,446.77426625000044,446.25804033299937,446.2816749579997,446.2816749579997,446.7622112499994,447.8936435830001,447.8936435830001,z,10.770022750000862,None,,,,,,,,,ypen,001,2025-05-29_14h18.39.961,MainFlow,2024.1.5,None,2025-05-29 14h18.48.704698 +0700,
2,78,0,word/worden0781.png,image/False/imgf78.png,0,65,65,65,458.6797284999993,,,,,,,460.1787062080002,459.6625062080002,459.6864172500009,459.6864172500009,460.1743453750005,461.2769151249995,461.2769151249995,x,2.0584457090008073,None,459.6864172500009,,,,,,,,ypen,001,2025-05-29_14h18.39.961,MainFlow,2024.1.5,None,2025-05-29 14h18.48.704698 +0700,
2,64,0,word/worden0641.png,image/False/imgf64.png,0,66,66,66,463.34916791700016,,,,,,,464.8408887080004,464.3290519580005,464.353546792001,464.353546792001,464.8291873750004,465.931201667001,465.931201667001,x,2.8527604170012637,None,,,,,,,,,ypen,001,2025-05-29_14h18.39.961,MainFlow,2024.1.5,None,2025-05-29 14h18.48.704698 +0700,
2,68,1,word/worden0681.png,image/True/img68.png,0,67,67,67,468.7995827499999,,,,,,,470.29088587499973,469.77859787499983,469.80190841700096,469.80190841700096,470.279233792,471.38312600000063,471.38312600000063,x,6.625680499999362,None,,,,,,,,,ypen,001,2025-05-29_14h18.39.961,MainFlow,2024.1.5,None,2025-05-29 14h18.48.704698 +0700,
2,57,0,word/worden0571.png,image/False/imgf57.png,0,68,68,68,478.0240134579999,,,,,,,479.5241378749997,479.00788574999933,479.0330764579994,479.0330764579994,479.5119906250002,480.6465131669993,480.6465131669993,x,2.4252883329991164,None,479.0330764579994,,,,,,,,ypen,001,2025-05-29_14h18.39.961,MainFlow,2024.1.5,None,2025-05-29 14h18.48.704698 +0700,
2,31,0,word/worden0311.png,image/False/imgf31.png,0,69,69,69,483.08261804200083,,,,,,,484.5784896669993,484.0624865000009,484.08737437499985,484.08737437499985,484.57426954199946,485.66400287500073,485.66400287500073,x,3.2152842079995025,None,,,,,,,,,ypen,001,2025-05-29_14h18.39.961,MainFlow,2024.1.5,None,2025-05-29 14h18.48.704698 +0700,
2,31,0,word/worden0311.png,image/False/imgf31.png,0,70,70,70,488.8961047499997,,,,,,,490.390811917001,489.87840629200036,489.9005231249994,489.9005231249994,490.3787469580002,491.4792252919997,491.4792252919997,x,9.864691459000824,None,,,,,,,,,ypen,001,2025-05-29_14h18.39.961,MainFlow,2024.1.5,None,2025-05-29 14h18.48.704698 +0700,
2,55,1,word/worden0551.png,image/True/img55.png,0,71,71,71,501.35720070800016,,,,,,,502.8573982079997,502.34104854200086,502.36439795799924,502.36439795799924,502.8450712920003,503.9828628329997,503.9828628329997,z,1.2739912910001294,None,502.36439795799924,,,,,,,,ypen,001,2025-05-29_14h18.39.961,MainFlow,2024.1.5,None,2025-05-29 14h18.48.704698 +0700,
2,36,1,word/worden0361.png,image/True/img36.png,0,72,72,72,505.26582979200066,,,,,,,506.7614976669993,506.2455442499995,506.26947695799936,506.26947695799936,506.7572099169993,507.86770870799955,507.86770870799955,z,3.636230042000534,None,,,,,,,,,ypen,001,2025-05-29_14h18.39.961,MainFlow,2024.1.5,None,2025-05-29 14h18.48.704698 +0700,
2,8,0,word/worden0081.png,image/False/imgf08.png,0,73,73,73,511.51562079200085,,,,,,,513.0121142080006,512.495592958001,512.5198230000005,512.5198230000005,513.0073379999994,514.107974083001,514.107974083001,x,4.3173100000003615,None,,,,,,,,,ypen,001,2025-05-29_14h18.39.961,MainFlow,2024.1.5,None,2025-05-29 14h18.48.704698 +0700,
2,82,0,word/worden0821.png,image/False/imgf82.png,0,74,74,74,518.4405975829995,,,,,,,519.9405599170004,519.4242701670009,519.4480061249997,519.4480061249997,519.9283904580006,521.0515469580005,521.0515469580005,x,4.853022208000766,None,519.4480061249997,,,,,,,,ypen,001,2025-05-29_14h18.39.961,MainFlow,2024.1.5,None,2025-05-29 14h18.48.704698 +0700,
2,14,0,word/worden0141.png,image/False/imgf14.png,0,75,75,75,525.9158538329993,,,,,,,527.4072006669994,526.8954724169998,526.9201518749996,526.9201518749996,527.395669417001,528.525820625,528.525820625,x,1.0412922499999695,None,,,,,,,,,ypen,001,2025-05-29_14h18.39.961,MainFlow,2024.1.5,None,2025-05-29 14h18.48.704698 +0700,
2,71,1,word/worden0711.png,image/True/img71.png,0,76,76,76,529.5821881249994,,,,,,,531.0778985420002,530.562213833,530.5854724170003,530.5854724170003,531.0738483330006,532.2038348330007,532.2038348330007,z,2.9563659589985036,None,,,,,,,,,ypen,001,2025-05-29_14h18.39.961,MainFlow,2024.1.5,None,2025-05-29 14h18.48.704698 +0700,
2,22,0,word/worden0221.png,image/False/imgf22.png,0,77,77,77,535.1737538750003,,,,,,,536.6738084579993,536.1575555,536.1819004579993,536.1819004579993,536.6618508749998,537.8016822499994,537.8016822499994,x,1.0396960839989333,None,536.1819004579993,,,,,,,,ypen,001,2025-05-29_14h18.39.961,MainFlow,2024.1.5,None,2025-05-29 14h18.48.704698 +0700,
2,78,1,word/worden0781.png,image/True/img78.png,0,78,78,78,538.8570804999999,,,,,,,540.3572027499995,539.8407832079993,539.8639832919998,539.8639832919998,540.345544875001,541.4603725420002,541.4603725420002,z,2.8355437499994878,None,539.8639832919998,,,,,,,,ypen,001,2025-05-29_14h18.39.961,MainFlow,2024.1.5,None,2025-05-29 14h18.48.704698 +0700,
2,51,0,word/worden0511.png,image/False/imgf51.png,0,79,79,79,544.3123287079998,,,,,,,545.8071025419995,545.2947685830004,545.3176294999994,545.3176294999994,545.7948343749995,546.914230792001,546.914230792001,x,3.1411796669999603,None,,,,,,,,,ypen,001,2025-05-29_14h18.39.961,MainFlow,2024.1.5,None,2025-05-29 14h18.48.704698 +0700,
2,56,1,word/worden0561.png,image/True/img56.png,0,80,80,80,550.0652170829999,,,,,,,551.5570181670009,551.0448014579997,551.0702762500005,551.0702762500005,551.544943750001,552.674085042001,552.674085042001,x,3.1258520419996785,None,,,,,,,,,ypen,001,2025-05-29_14h18.39.961,MainFlow,2024.1.5,None,2025-05-29 14h18.48.704698 +0700,
2,60,1,word/worden0601.png,image/True/img60.png,0,81,81,81,555.815490125,,,,,,,557.3070545829996,556.7954406669996,556.8193473749998,556.8193473749998,557.2956235830006,558.4196291669996,558.4196291669996,z,3.372701833000974,None,,,,,,,,,ypen,001,2025-05-29_14h18.39.961,MainFlow,2024.1.5,None,2025-05-29 14h18.48.704698 +0700,
2,96,0,word/worden0961.png,image/False/imgf96.png,0,82,82,82,561.8068667080006,,,,,,,563.3069256250001,562.7903984999994,562.8138501249996,562.8138501249996,563.2948135000006,564.4306652920004,564.4306652920004,x,5.2166750420001335,None,562.8138501249996,,,,,,,,ypen,001,2025-05-29_14h18.39.961,MainFlow,2024.1.5,None,2025-05-29 14h18.48.704698 +0700,
2,3,0,word/worden0031.png,image/False/imgf03.png,0,83,83,83,569.6654655000002,,,,,,,571.1568543329995,570.644702167001,570.6681800000006,570.6681800000006,571.144755708001,572.270197875001,572.270197875001,x,3.2661396249986865,None,,,,,,,,,ypen,001,2025-05-29_14h18.39.961,MainFlow,2024.1.5,None,2025-05-29 14h18.48.704698 +0700,
2,55,0,word/worden0551.png,image/False/imgf55.png,0,84,84,84,575.5490501250006,,,,,,,577.0445231670001,576.5285911669998,576.551250208,576.551250208,577.0403174580006,578.1570876669994,578.1570876669994,x,1.2430273749996559,None,,,,,,,,,ypen,001,2025-05-29_14h18.39.961,MainFlow,2024.1.5,None,2025-05-29 14h18.48.704698 +0700,
2,71,1,word/worden0711.png,image/True/img71.png,0,85,85,85,579.4152049999993,,,,,,,580.9068699580002,580.3947023750006,580.4175679170003,580.4175679170003,580.8948298329997,582.0390365830008,582.0390365830008,x,4.120020875001501,None,,,,,,,,,ypen,001,2025-05-29_14h18.39.961,MainFlow,2024.1.5,None,2025-05-29 14h18.48.704698 +0700,
2,3,1,word/worden0031.png,image/True/img03.png,0,86,86,86,586.1736025419996,,,,,,,587.6734505000004,587.1571586669997,587.1814419170005,587.1814419170005,587.6614095830009,588.7933395,588.7933395,z,1.014758041001187,None,587.1814419170005,,,,,,,,ypen,001,2025-05-29_14h18.39.961,MainFlow,2024.1.5,None,2025-05-29 14h18.48.704698 +0700,
2,52,1,word/worden0521.png,image/True/img52.png,0,87,87,87,589.8233515829997,,,,,,,591.3234573749996,590.8071663329993,590.8322029999999,590.8322029999999,591.3114020419998,592.4478676250001,592.4478676250001,z,1.8240657079986704,None,590.8322029999999,,,,,,,,ypen,001,2025-05-29_14h18.39.961,MainFlow,2024.1.5,None,2025-05-29 14h18.48.704698 +0700,
2,95,0,word/worden0951.png,image/False/imgf95.png,0,88,88,88,594.2821403750004,,,,,,,595.7782655419996,595.2618151250008,595.2853573749999,595.2853573749999,595.7736211249994,596.900220042,596.900220042,x,4.483077958000649,None,,,,,,,,,ypen,001,2025-05-29_14h18.39.961,MainFlow,2024.1.5,None,2025-05-29 14h18.48.704698 +0700,
2,6,0,word/worden0061.png,image/False/imgf06.png,0,89,89,89,601.3982471250001,,,,,,,602.8942752919993,602.3782437499995,602.4019345420002,602.4019345420002,602.8900600830002,603.9932910419993,603.9932910419993,x,3.118694749999122,None,,,,,,,,,ypen,001,2025-05-29_14h18.39.961,MainFlow,2024.1.5,None,2025-05-29 14h18.48.704698 +0700,
2,79,1,word/worden0791.png,image/True/img79.png,0,90,90,90,607.1283828750002,,,,,,,608.6232509170004,608.1070970830006,608.1317506249998,608.1317506249998,608.6111478330004,609.7411931669994,609.7411931669994,z,2.106793958000708,None,,,,,,,,,ypen,001,2025-05-29_14h18.39.961,MainFlow,2024.1.5,None,2025-05-29 14h18.48.704698 +0700,
2,61,0,word/worden0611.png,image/False/imgf61.png,0,91,91,91,611.8651270419996,,,,,,,613.3609003330002,612.8447162920002,612.8685257079997,612.8685257079997,613.3566568330007,614.4851165,614.4851165,x,3.474135041999034,None,,,,,,,,,ypen,001,2025-05-29_14h18.39.961,MainFlow,2024.1.5,None,2025-05-29 14h18.48.704698 +0700,
2,46,0,word/worden0461.png,image/False/imgf46.png,0,92,92,92,617.9734074999997,,,,,,,619.4732992080008,618.957005667,618.9800613330008,618.9800613330008,619.461202542001,620.6067873329994,620.6067873329994,x,2.888572750000094,None,618.9800613330008,,,,,,,,ypen,001,2025-05-29_14h18.39.961,MainFlow,2024.1.5,None,2025-05-29 14h18.48.704698 +0700,
2,89,1,word/worden0891.png,image/True/img89.png,0,93,93,93,623.5120810000008,,,,,,,625.0109868330001,624.4945021250005,624.5183890000008,624.5183890000008,625.0067361250003,626.1098726670007,626.1098726670007,z,6.338213666998854,None,,,,,,,,,ypen,001,2025-05-29_14h18.39.961,MainFlow,2024.1.5,None,2025-05-29 14h18.48.704698 +0700,
2,26,0,word/worden0261.png,image/False/imgf26.png,0,94,94,94,632.4648785419995,,,,,,,633.9608494580007,633.4447235000007,633.4674131669999,633.4674131669999,633.9565874170003,635.0931374169995,635.0931374169995,x,1.043048417001046,None,,,,,,,,,ypen,001,2025-05-29_14h18.39.961,MainFlow,2024.1.5,None,2025-05-29 14h18.48.704698 +0700,
2,44,0,word/worden0441.png,image/False/imgf44.png,0,95,95,95,636.1485804580007,,,,,,,637.644282917001,637.1281792080008,637.1519482080002,637.1519482080002,637.6399387500005,638.7760266669993,638.7760266669993,x,2.0478387080001994,None,,,,,,,,,ypen,001,2025-05-29_14h18.39.961,MainFlow,2024.1.5,None,2025-05-29 14h18.48.704698 +0700,
2,82,1,word/worden0821.png,image/True/img82.png,0,96,96,96,640.839495917,,,,,,,642.3398269579993,641.8235645830009,641.8473205829996,641.8473205829996,642.3277512919994,643.4282211249993,643.4282211249993,z,2.275627082999563,None,641.8473205829996,,,,,,,,ypen,001,2025-05-29_14h18.39.961,MainFlow,2024.1.5,None,2025-05-29 14h18.48.704698 +0700,
2,16,1,word/worden0161.png,image/True/img16.png,0,97,97,97,645.7151261250001,,,,,,,647.2065467920002,646.6942230000004,646.7177102919995,646.7177102919995,647.194268917001,648.3462560000007,648.3462560000007,z,5.5654567090005,None,,,,,,,,,ypen,001,2025-05-29_14h18.39.961,MainFlow,2024.1.5,None,2025-05-29 14h18.48.704698 +0700,
2,20,1,word/worden0201.png,image/True/img20.png,0,98,98,98,653.9282753749994,,,,,,,655.4231804579995,654.9067659169996,654.9309374999993,654.9309374999993,655.4111567920008,656.550377167001,656.550377167001,x,6.9063337500010675,None,,,,,,,,,ypen,001,2025-05-29_14h18.39.961,MainFlow,2024.1.5,None,2025-05-29 14h18.48.704698 +0700,
2,20,1,word/worden0201.png,image/True/img20.png,0,99,99,99,663.4729677079995,,,,,,,664.9730430420004,664.4568724580004,664.480268583,664.480268583,664.9613667499998,666.1007493329998,666.1007493329998,x,2.4741028340013145,None,664.480268583,,,,,,,,ypen,001,2025-05-29_14h18.39.961,MainFlow,2024.1.5,None,2025-05-29 14h18.48.704698 +0700,
2,96,1,word/worden0961.png,image/True/img96.png,0,100,100,100,668.5897472920005,,,,,,,670.0897359999999,669.5734693329996,669.5977558750001,669.5977558750001,670.0774549580001,671.2098781669993,671.2098781669993,x,13.14953316699939,None,669.5977558750001,,,,,,,,ypen,001,2025-05-29_14h18.39.961,MainFlow,2024.1.5,None,2025-05-29 14h18.48.704698 +0700,
2,64,1,word/worden0641.png,image/True/img64.png,0,101,101,101,684.3729072919996,,,,,,,685.8730240420009,685.3566796670002,685.380605833001,685.380605833001,685.8607785420008,686.9692668330008,686.9692668330008,z,3.909617833000084,None,685.380605833001,,,,,,,,ypen,001,2025-05-29_14h18.39.961,MainFlow,2024.1.5,None,2025-05-29 14h18.48.704698 +0700,
2,78,0,word/worden0781.png,image/False/imgf78.png,0,102,102,102,690.894992083,,,,,,,692.3942540419994,691.8781819579999,691.9034185420005,691.9034185420005,692.3896134999995,693.4944226250009,693.4944226250009,x,2.041354583001521,None,691.9034185420005,,,,,,,,ypen,001,2025-05-29_14h18.39.961,MainFlow,2024.1.5,None,2025-05-29 14h18.48.704698 +0700,
2,20,0,word/worden0201.png,image/False/imgf20.png,0,103,103,103,695.547364125001,,,,,,,697.0436950420008,696.5277084999998,696.5510899580004,696.5510899580004,697.039536708,698.1840457920007,698.1840457920007,x,1.1514846250011033,None,,,,,,,,,ypen,001,2025-05-29_14h18.39.961,MainFlow,2024.1.5,None,2025-05-29 14h18.48.704698 +0700,
2,89,1,word/worden0891.png,image/True/img89.png,0,104,104,104,699.3481934579995,,,,,,,700.8438434170002,700.3276653749999,700.351933375001,700.351933375001,700.8396248330009,701.9411826249998,701.9411826249998,z,1.002519958999983,None,,,,,,,,,ypen,001,2025-05-29_14h18.39.961,MainFlow,2024.1.5,None,2025-05-29 14h18.48.704698 +0700,
2,59,0,word/worden0591.png,image/False/imgf59.png,0,105,105,105,702.956034375,,,,,,,704.456107375001,703.9399394579996,703.9645336670001,703.9645336670001,704.444032667001,705.5483744169996,705.5483744169996,x,4.027697749999788,None,703.9645336670001,,,,,,,,ypen,001,2025-05-29_14h18.39.961,MainFlow,2024.1.5,None,2025-05-29 14h18.48.704698 +0700,
2,24,0,word/worden0241.png,image/False/imgf24.png,0,106,106,106,709.5893933330008,,,,,,,711.0894597919996,710.5732562079993,710.5982777919999,710.5982777919999,711.0773135420004,712.193465833001,712.193465833001,x,2.3260137499983102,None,710.5982777919999,,,,,,,,ypen,001,2025-05-29_14h18.39.961,MainFlow,2024.1.5,None,2025-05-29 14h18.48.704698 +0700,
2,28,0,word/worden0281.png,image/False/imgf28.png,0,107,107,107,714.5309221669995,,,,,,,716.0228342080009,715.510461625001,715.5336908749996,715.5336908749996,716.0107399579992,717.1390187500001,717.1390187500001,x,2.5726014169995324,None,,,,,,,,,ypen,001,2025-05-29_14h18.39.961,MainFlow,2024.1.5,None,2025-05-29 14h18.48.704698 +0700,
2,15,0,word/worden0151.png,image/False/imgf15.png,0,108,108,108,719.7284959999997,,,,,,,721.2227162079998,720.7104619580005,720.7340052079999,720.7340052079999,721.2105642919996,722.3383289169997,722.3383289169997,x,1.5333262919994013,None,,,,,,,,,ypen,001,2025-05-29_14h18.39.961,MainFlow,2024.1.5,None,2025-05-29 14h18.48.704698 +0700,
2,30,1,word/worden0301.png,image/True/img30.png,0,109,109,109,723.8811247499998,,,,,,,725.3769069999998,724.8610430000008,724.8846770830005,724.8846770830005,725.3726258749994,726.4791275829994,726.4791275829994,x,3.399859667000783,None,,,,,,,,,ypen,001,2025-05-29_14h18.39.961,MainFlow,2024.1.5,None,2025-05-29 14h18.48.704698 +0700,
2,64,1,word/worden0641.png,image/True/img64.png,0,110,110,110,729.8949964170006,,,,,,,731.3892481670009,730.8769821250007,730.9009802500004,730.9009802500004,731.3773029580007,732.4891340419999,732.4891340419999,x,12.926826457998686,None,,,,,,,,,ypen,001,2025-05-29_14h18.39.961,MainFlow,2024.1.5,None,2025-05-29 14h18.48.704698 +0700,
2,52,0,word/worden0521.png,image/False/imgf52.png,0,111,111,111,745.4306882500005,,,,,,,746.9268465000005,746.4107834999995,746.4350456249995,746.4350456249995,746.9225880829999,748.0314865830005,748.0314865830005,x,10.783724333999999,None,,,,,,,,,ypen,001,2025-05-29_14h18.39.961,MainFlow,2024.1.5,None,2025-05-29 14h18.48.704698 +0700,
2,33,1,word/worden0331.png,image/True/img33.png,0,112,112,112,758.8309889169996,,,,,,,760.327357958,759.8109097500001,759.8353079579992,759.8353079579992,760.3227323749998,761.4413524169995,761.4413524169995,z,1.933808333998968,None,,,,,,,,,ypen,001,2025-05-29_14h18.39.961,MainFlow,2024.1.5,None,2025-05-29 14h18.48.704698 +0700,
2,23,1,word/worden0231.png,image/True/img23.png,0,113,113,113,763.3890768750007,,,,,,,764.8892439579995,764.3729137080009,764.398741125,764.398741125,764.8771207919999,766.0048542080003,766.0048542080003,z,2.6688191249995725,None,764.398741125,,,,,,,,ypen,001,2025-05-29_14h18.39.961,MainFlow,2024.1.5,None,2025-05-29 14h18.48.704698 +0700,
2,11,1,word/worden0111.png,image/True/img11.png,0,114,114,114,768.6890096669995,,,,,,,770.1891820420005,769.6729927079996,769.6974588749999,769.6974588749999,770.1774550419996,771.3287458750001,771.3287458750001,z,1.1116714590007177,None,769.6974588749999,,,,,,,,ypen,001,2025-05-29_14h18.39.961,MainFlow,2024.1.5,None,2025-05-29 14h18.48.704698 +0700,
2,22,1,word/worden0221.png,image/True/img22.png,0,115,115,115,772.4556965829997,,,,,,,773.955745792,773.4396731670004,773.4634197920004,773.4634197920004,773.9436707500008,775.0986681670001,775.0986681670001,z,1.2928299590003007,None,773.4634197920004,,,,,,,,ypen,001,2025-05-29_14h18.39.961,MainFlow,2024.1.5,None,2025-05-29 14h18.48.704698 +0700,
2,37,0,word/worden0371.png,image/False/imgf37.png,0,116,116,116,776.4057975830001,,,,,,,777.9057863329999,777.3893780420003,777.4130758749998,777.4130758749998,777.8935391249997,779.0478077499993,779.0478077499993,x,2.8252626250014146,None,777.4130758749998,,,,,,,,ypen,001,2025-05-29_14h18.39.961,MainFlow,2024.1.5,None,2025-05-29 14h18.48.704698 +0700,
2,79,0,word/worden0791.png,image/False/imgf79.png,0,117,117,117,781.8890138749994,,,,,,,783.3890695829996,782.8728126669994,782.8970562920003,782.8970562920003,783.3773926670001,784.5105834170008,784.5105834170008,x,1.6168706669996027,None,782.8970562920003,,,,,,,,ypen,001,2025-05-29_14h18.39.961,MainFlow,2024.1.5,None,2025-05-29 14h18.48.704698 +0700,
2,56,1,word/worden0561.png,image/True/img56.png,0,118,118,118,786.1437919580003,,,,,,,787.6390679169999,787.1227121249995,787.1470869170007,787.1470869170007,787.6275044579997,788.7526709169997,788.7526709169997,x,3.646684625000489,None,,,,,,,,,ypen,001,2025-05-29_14h18.39.961,MainFlow,2024.1.5,None,2025-05-29 14h18.48.704698 +0700,
2,68,1,word/worden0681.png,image/True/img68.png,0,119,119,119,792.4147811250004,,,,,,,793.9104376670002,793.3937417920006,793.4172764579998,793.4172764579998,793.9058111670001,794.9987535420005,794.9987535420005,z,6.6245918329987035,None,,,,,,,,,ypen,001,2025-05-29_14h18.39.961,MainFlow,2024.1.5,None,2025-05-29 14h18.48.704698 +0700,
2,27,0,word/worden0271.png,image/False/imgf27.png,0,120,120,120,801.6379041670007,,,,,,,803.1389523750004,802.6226336250002,802.6460518750009,802.6460518750009,803.1269617079997,804.2492624170009,804.2492624170009,x,1.3903528329992696,None,802.6460518750009,,,,,,,,ypen,001,2025-05-29_14h18.39.961,MainFlow,2024.1.5,None,2025-05-29 14h18.48.704698 +0700,
2,3,1,word/worden0031.png,image/True/img03.png,0,121,121,121,805.6556429169996,,,,,,,807.1555732079996,806.6394504580003,806.664323125,806.664323125,807.1435201250006,808.2736483749995,808.2736483749995,z,1.0854539590000059,None,806.664323125,,,,,,,,ypen,001,2025-05-29_14h18.39.961,MainFlow,2024.1.5,None,2025-05-29 14h18.48.704698 +0700,
2,38,0,word/worden0381.png,image/False/imgf38.png,0,122,122,122,809.3721464999999,,,,,,,810.8722332920006,810.3560600420005,810.3812319169992,810.3812319169992,810.8606664170002,812.0125116250001,812.0125116250001,x,1.1072663340000872,None,810.3812319169992,,,,,,,,ypen,001,2025-05-29_14h18.39.961,MainFlow,2024.1.5,None,2025-05-29 14h18.48.704698 +0700,
2,59,1,word/worden0591.png,image/True/img59.png,0,123,123,123,813.130502375001,,,,,,,814.6271041250002,814.1105346250006,814.1349182920003,814.1349182920003,814.6222910420001,815.7204066249997,815.7204066249997,z,3.478518666999662,None,,,,,,,,,ypen,001,2025-05-29_14h18.39.961,MainFlow,2024.1.5,None,2025-05-29 14h18.48.704698 +0700,
2,18,1,word/worden0181.png,image/True/img18.png,0,124,124,124,819.2135427920002,,,,,,,820.7098877499993,820.1939083750003,820.217991167001,820.217991167001,820.7055537079996,821.8075418330009,821.8075418330009,z,2.7360591670003487,None,,,,,,,,,ypen,001,2025-05-29_14h18.39.961,MainFlow,2024.1.5,None,2025-05-29 14h18.48.704698 +0700,
2,60,1,word/worden0601.png,image/True/img60.png,0,125,125,125,824.5554861670007,,,,,,,826.0554340420003,825.5394193329994,825.5638421250005,825.5638421250005,826.0433741670004,827.1610065830009,827.1610065830009,z,4.7585039580008015,None,825.5638421250005,,,,,,,,ypen,001,2025-05-29_14h18.39.961,MainFlow,2024.1.5,None,2025-05-29 14h18.48.704698 +0700,
2,9,1,word/worden0091.png,image/True/img09.png,0,126,126,126,831.930521667,,,,,,,833.4269635830005,832.9101521249995,832.9337066250009,832.9337066250009,833.4221890419994,834.5103003330005,834.5103003330005,x,10.289457499999116,None,,,,,,,,,ypen,001,2025-05-29_14h18.39.961,MainFlow,2024.1.5,None,2025-05-29 14h18.48.704698 +0700,
2,9,0,word/worden0091.png,image/False/imgf09.png,0,127,127,127,844.8144574170001,,,,,,,846.3096896250008,845.7937829170005,845.816520583001,845.816520583001,846.3054876250008,847.4035451670006,847.4035451670006,x,1.5322820830006094,None,,,,,,,,,ypen,001,2025-05-29_14h18.39.961,MainFlow,2024.1.5,None,2025-05-29 14h18.48.704698 +0700,
2,94,0,word/worden0941.png,image/False/imgf94.png,0,128,128,128,848.9472872080005,,,,,,,850.4386762920003,849.926381917001,849.9504847499993,849.9504847499993,850.4270625419995,851.5721934579997,851.5721934579997,x,1.186855125000875,None,,,,,,,,,ypen,001,2025-05-29_14h18.39.961,MainFlow,2024.1.5,None,2025-05-29 14h18.48.704698 +0700,
2,66,1,word/worden0661.png,image/True/img66.png,0,129,129,129,852.7720826250006,,,,,,,854.2719523329997,853.7558506669993,853.7794505420006,853.7794505420006,854.259799083,855.3894177500006,855.3894177500006,z,3.5931520000012824,None,853.7794505420006,,,,,,,,ypen,001,2025-05-29_14h18.39.961,MainFlow,2024.1.5,None,2025-05-29 14h18.48.704698 +0700,
2,1,0,word/worden0011.png,image/False/imgf01.png,0,130,130,130,858.9973385419999,,,,,,,860.4934857919998,859.9768473330005,860.000589833,860.000589833,860.4888068750006,861.6027865420001,861.6027865420001,x,1.148122542001147,None,,,,,,,,,ypen,001,2025-05-29_14h18.39.961,MainFlow,2024.1.5,None,2025-05-29 14h18.48.704698 +0700,
2,89,0,word/worden0891.png,image/False/imgf89.png,0,131,131,131,862.7636250830001,,,,,,,864.2594971670005,863.7434978330002,863.7670207499996,863.7670207499996,864.2553177080008,865.3680254999999,865.3680254999999,x,0.9592566659994191,None,,,,,,,,,ypen,001,2025-05-29_14h18.39.961,MainFlow,2024.1.5,None,2025-05-29 14h18.48.704698 +0700,
2,48,1,word/worden0481.png,image/True/img48.png,0,132,132,132,866.3436892499994,,,,,,,867.8385789170006,867.322255250001,867.3451560829999,867.3451560829999,867.8271569579993,868.9612662920008,868.9612662920008,z,9.214511708001737,None,,,,,,,,,ypen,001,2025-05-29_14h18.39.961,MainFlow,2024.1.5,None,2025-05-29 14h18.48.704698 +0700,
2,63,0,word/worden0631.png,image/False/imgf63.png,0,133,133,133,878.188453875,,,,,,,879.6884948330007,879.1722215829996,879.1959942920003,879.1959942920003,879.6769509999995,880.8151225000001,880.8151225000001,x,4.4417968329998985,None,879.1959942920003,,,,,,,,ypen,001,2025-05-29_14h18.39.961,MainFlow,2024.1.5,None,2025-05-29 14h18.48.704698 +0700,
2,23,1,word/worden0231.png,image/True/img23.png,0,134,134,134,885.271770708001,,,,,,,886.7717992500002,886.2554922920008,886.2792020420002,886.2792020420002,886.7604456669997,887.8870718329999,887.8870718329999,x,4.007868708999013,None,886.2792020420002,,,,,,,,ypen,001,2025-05-29_14h18.39.961,MainFlow,2024.1.5,None,2025-05-29 14h18.48.704698 +0700,
2,40,0,word/worden0401.png,image/False/imgf40.png,0,135,135,135,891.9109833750008,,,,,,,893.4051049999998,892.8917519999995,892.9063601670005,892.9063601670005,893.3930617080005,894.5252786670007,894.5252786670007,x,5.273546834001536,None,,,,,,,,,ypen,001,2025-05-29_14h18.39.961,MainFlow,2024.1.5,None,2025-05-29 14h18.48.704698 +0700,
2,52,1,word/worden0521.png,image/True/img52.png,0,136,136,136,899.8136562500003,,,,,,,901.3100878330006,900.7932107500001,900.8180542499995,900.8180542499995,901.3052226670006,902.4335076669995,902.4335076669995,z,7.8779407080000965,None,,,,,,,,,ypen,001,2025-05-29_14h18.39.961,MainFlow,2024.1.5,None,2025-05-29 14h18.48.704698 +0700,
2,30,1,word/worden0301.png,image/True/img30.png,0,137,137,137,910.326761667,,,,,,,911.8216510420007,911.3054782920008,911.3296382919998,911.3296382919998,911.8099709170001,912.9241258330003,912.9241258330003,z,3.298974041999827,None,,,,,,,,,ypen,001,2025-05-29_14h18.39.961,MainFlow,2024.1.5,None,2025-05-29 14h18.48.704698 +0700,
2,15,1,word/worden0151.png,image/True/img15.png,0,138,138,138,916.2381635000002,,,,,,,917.7382414170006,917.2219961249994,917.244846167001,917.244846167001,917.7262615420004,918.867829625,918.867829625,z,1.0275801670013607,None,917.244846167001,,,,,,,,ypen,001,2025-05-29_14h18.39.961,MainFlow,2024.1.5,None,2025-05-29 14h18.48.704698 +0700,
2,46,1,word/worden0461.png,image/True/img46.png,0,139,139,139,919.9134649999996,,,,,,,921.4093983330004,920.8933190829994,920.9173486250002,920.9173486250002,921.4049762079994,922.5425512080001,922.5425512080001,x,5.63994216699939,None,,,,,,,,,ypen,001,2025-05-29_14h18.39.961,MainFlow,2024.1.5,None,2025-05-29 14h18.48.704698 +0700,
2,14,1,word/worden0141.png,image/True/img14.png,0,140,140,140,928.1962722499993,,,,,,,929.6878653330004,929.1759215420007,929.1993109579998,929.1993109579998,929.6764872919994,930.8113884579998,930.8113884579998,z,0.9392843330006144,None,,,,,,,,,ypen,001,2025-05-29_14h18.39.961,MainFlow,2024.1.5,None,2025-05-29 14h18.48.704698 +0700,
2,66,0,word/worden0661.png,image/False/imgf66.png,0,141,141,141,931.7634152499995,,,,,,,933.2548819999993,932.7426854999994,932.7658132920005,932.7658132920005,933.2432459169995,934.3766941670001,934.3766941670001,x,1.679212875000303,None,,,,,,,,,ypen,001,2025-05-29_14h18.39.961,MainFlow,2024.1.5,None,2025-05-29 14h18.48.704698 +0700,
2,46,0,word/worden0461.png,image/False/imgf46.png,0,142,142,142,936.0714855000006,,,,,,,937.5715132500009,937.0552887920003,937.0788518749996,937.0788518749996,937.5594594169997,938.7094209999996,938.7094209999996,x,1.4578261250007927,None,937.0788518749996,,,,,,,,ypen,001,2025-05-29_14h18.39.961,MainFlow,2024.1.5,None,2025-05-29 14h18.48.704698 +0700,
2,18,1,word/worden0181.png,image/True/img18.png,0,143,143,143,940.1802086669995,,,,,,,941.6714869999996,941.1592659580001,941.1823855000002,941.1823855000002,941.6593282079994,942.7732355000007,942.7732355000007,z,0.8094148750005843,None,,,,,,,,,ypen,001,2025-05-29_14h18.39.961,MainFlow,2024.1.5,None,2025-05-29 14h18.48.704698 +0700,
2,51,0,word/worden0511.png,image/False/imgf51.png,0,144,144,144,943.5967597500003,,,,,,,945.0929062079995,944.5762326250006,944.5992962079999,944.5992962079999,945.0883111670009,946.193473542,946.193473542,x,3.301720707999266,None,,,,,,,,,ypen,001,2025-05-29_14h18.39.961,MainFlow,2024.1.5,None,2025-05-29 14h18.48.704698 +0700,
2,76,1,word/worden0761.png,image/True/img76.png,0,145,145,145,949.5128049169998,,,,,,,951.0048995830002,950.4925187919998,950.5166385829998,950.5166385829998,950.9930096250009,952.1242112500004,952.1242112500004,x,13.369780000000901,None,,,,,,,,,ypen,001,2025-05-29_14h18.39.961,MainFlow,2024.1.5,None,2025-05-29 14h18.48.704698 +0700,
2,57,1,word/worden0571.png,image/True/img57.png,0,146,146,146,965.5106169999999,,,,,,,967.0046992919997,966.4924048749999,966.5162709169999,966.5162709169999,966.9928877919992,968.1321111249999,968.1321111249999,z,0.8347658750008122,None,,,,,,,,,ypen,001,2025-05-29_14h18.39.961,MainFlow,2024.1.5,None,2025-05-29 14h18.48.704698 +0700,
2,48,0,word/worden0481.png,image/False/imgf48.png,0,147,147,147,968.9797426669993,,,,,,,970.4713483329997,969.9591005830007,969.9830960830004,969.9830960830004,970.4599524170007,971.6070959169992,971.6070959169992,x,1.3126172090014734,None,,,,,,,,,ypen,001,2025-05-29_14h18.39.961,MainFlow,2024.1.5,None,2025-05-29 14h18.48.704698 +0700,
2,37,0,word/worden0371.png,image/False/imgf37.png,0,148,148,148,972.9298385000002,,,,,,,974.4259845830002,973.9095250419996,973.9333216249997,973.9333216249997,974.4213522080008,975.5679023329994,975.5679023329994,x,2.1426732079999056,None,,,,,,,,,ypen,001,2025-05-29_14h18.39.961,MainFlow,2024.1.5,None,2025-05-29 14h18.48.704698 +0700,
2,60,0,word/worden0601.png,image/False/imgf60.png,0,149,149,149,977.7266627919998,,,,,,,979.2212722919994,978.7093313330006,978.7328822500003,978.7328822500003,979.2096542500003,980.338338042,980.338338042,x,2.6373226670002623,None,,,,,,,,,ypen,001,2025-05-29_14h18.39.961,MainFlow,2024.1.5,None,2025-05-29 14h18.48.704698 +0700,
2,24,1,word/worden0241.png,image/True/img24.png,0,150,150,150,982.9880075000001,,,,,,,984.4879020419994,983.9717001669997,983.9967990420009,983.9967990420009,984.4757853329993,985.5756021249999,985.5756021249999,x,6.008067083001151,None,983.9967990420009,,,,,,,,ypen,001,2025-05-29_14h18.39.961,MainFlow,2024.1.5,None,2025-05-29 14h18.48.704698 +0700,
2,40,1,word/worden0401.png,image/True/img40.png,0,151,151,151,991.595750542001,,,,,,,993.092582542,992.5763452080009,992.6001892500008,992.6001892500008,993.0878969580008,994.2322489170001,994.2322489170001,z,2.5354195830004755,None,,,,,,,,,ypen,001,2025-05-29_14h18.39.961,MainFlow,2024.1.5,None,2025-05-29 14h18.48.704698 +0700,
2,54,1,word/worden0541.png,image/True/img54.png,0,152,152,152,996.7790014170005,,,,,,,998.2711577499995,997.7588808330001,997.7834326249995,997.7834326249995,998.2590335420009,999.4072195829995,999.4072195829995,z,1.0715572499993868,None,,,,,,,,,ypen,001,2025-05-29_14h18.39.961,MainFlow,2024.1.5,None,2025-05-29 14h18.48.704698 +0700,
2,44,0,word/worden0441.png,image/False/imgf44.png,0,153,153,153,1000.495967625,,,,,,,1001.9878195420006,1001.4755506670008,1001.4996852500008,1001.4996852500008,1001.9756654169996,1003.1192492080008,1003.1192492080008,x,2.120034375000614,None,,,,,,,,,ypen,001,2025-05-29_14h18.39.961,MainFlow,2024.1.5,None,2025-05-29 14h18.48.704698 +0700,
2,79,1,word/worden0791.png,image/True/img79.png,0,154,154,154,1005.2545160419995,,,,,,,1006.7544176669999,1006.2382550420007,1006.2621671249999,1006.2621671249999,1006.7422788750009,1007.8725571670002,1007.8725571670002,z,3.5504506249999395,None,1006.2621671249999,,,,,,,,ypen,001,2025-05-29_14h18.39.961,MainFlow,2024.1.5,None,2025-05-29 14h18.48.704698 +0700,
2,95,1,word/worden0951.png,image/True/img95.png,0,155,155,155,1011.4376462079999,,,,,,,1012.9254477499999,1012.4210011249997,1012.4380867920008,1012.4380867920008,1012.9211640829999,1014.0684165420007,1014.0684165420007,z,0.9069862920005107,None,1012.4380867920008,,,,,,,,ypen,001,2025-05-29_14h18.39.961,MainFlow,2024.1.5,None,2025-05-29 14h18.48.704698 +0700,
2,37,1,word/worden0371.png,image/True/img37.png,0,156,156,156,1014.9876485000004,,,,,,,1016.4878570830006,1015.9714036669993,1015.9960080830006,1015.9960080830006,1016.4755160420009,1017.6263501249996,1017.6263501249996,x,2.2674985000012384,None,1015.9960080830006,,,,,,,,ypen,001,2025-05-29_14h18.39.961,MainFlow,2024.1.5,None,2025-05-29 14h18.48.704698 +0700,
2,70,1,word/worden0701.png,image/True/img70.png,0,157,157,157,1019.9095547500001,,,,,,,1021.4044198329993,1020.8921883330004,1020.917116042001,1020.917116042001,1021.3923059579993,1022.5278115830006,1022.5278115830006,z,2.503638583000793,None,,,,,,,,,ypen,001,2025-05-29_14h18.39.961,MainFlow,2024.1.5,None,2025-05-29 14h18.48.704698 +0700,
2,40,1,word/worden0401.png,image/True/img40.png,0,158,158,158,1025.0463985000006,,,,,,,1026.5376415419996,1026.0254168329993,1026.0490467920008,1026.0490467920008,1026.5255632499993,1027.6780507919993,1027.6780507919993,z,2.176929375000327,None,,,,,,,,,ypen,001,2025-05-29_14h18.39.961,MainFlow,2024.1.5,None,2025-05-29 14h18.48.704698 +0700,
2,30,0,word/worden0301.png,image/False/imgf30.png,0,159,159,159,1029.8710098329993,,,,,,,1031.3707150829996,1030.8546648749998,1030.8781987080001,1030.8781987080001,1031.3588612080002,1032.482255375,1032.482255375,x,3.7245470830002887,None,1030.8781987080001,,,,,,,,ypen,001,2025-05-29_14h18.39.961,MainFlow,2024.1.5,None,2025-05-29 14h18.48.704698 +0700,
2,88,1,word/worden0881.png,image/True/img88.png,0,160,160,160,1036.2208977499995,,,,,,,1037.7209975000005,1037.204573125,1037.2287417919997,1037.2287417919997,1037.7087384580009,1038.8469612080007,1038.8469612080007,z,3.8642159160008305,None,1037.2287417919997,,,,,,,,ypen,001,2025-05-29_14h18.39.961,MainFlow,2024.1.5,None,2025-05-29 14h18.48.704698 +0700,
2,15,1,word/worden0151.png,image/True/img15.png,0,161,161,161,1042.7293397499998,,,,,,,1044.2209388329993,1043.7089689999993,1043.7329334999995,1043.7329334999995,1044.2093814580003,1045.3534495000004,1045.3534495000004,z,0.877705083001274,None,,,,,,,,,ypen,001,2025-05-29_14h18.39.961,MainFlow,2024.1.5,None,2025-05-29 14h18.48.704698 +0700,
2,54,1,word/worden0541.png,image/True/img54.png,0,162,162,162,1046.2462118750009,,,,,,,1047.7418956670008,1047.2256406249999,1047.2490084170004,1047.2490084170004,1047.7376070829996,1048.874600000001,1048.874600000001,z,0.9806375839998509,None,,,,,,,,,ypen,001,2025-05-29_14h18.39.961,MainFlow,2024.1.5,None,2025-05-29 14h18.48.704698 +0700,
2,11,0,word/worden0111.png,image/False/imgf11.png,0,163,163,163,1049.8708678330004,,,,,,,1051.370974042,1050.8546099579999,1050.8789675829994,1050.8789675829994,1051.3590843330003,1052.5027252920008,1052.5027252920008,x,1.0243444170009752,None,1050.8789675829994,,,,,,,,ypen,001,2025-05-29_14h18.39.961,MainFlow,2024.1.5,None,2025-05-29 14h18.48.704698 +0700,
2,16,1,word/worden0161.png,image/True/img16.png,0,164,164,164,1053.5456467080003,,,,,,,1055.0375759170001,1054.525714292,1054.5500425829996,1054.5500425829996,1055.0259790420005,1056.175750667,1056.175750667,x,5.415828875000443,None,,,,,,,,,ypen,001,2025-05-29_14h18.39.961,MainFlow,2024.1.5,None,2025-05-29 14h18.48.704698 +0700,
2,1,1,word/worden0011.png,image/True/img01.png,0,165,165,165,1061.6041688749992,,,,,,,1063.1041619999996,1062.587751250001,1062.611493583001,1062.611493583001,1063.0920891250007,1064.230134542,1064.230134542,z,1.041383666000911,None,1062.611493583001,,,,,,,,ypen,001,2025-05-29_14h18.39.961,MainFlow,2024.1.5,None,2025-05-29 14h18.48.704698 +0700,
2,22,0,word/worden0221.png,image/False/imgf22.png,0,166,166,166,1065.2874057080007,,,,,,,1066.787432792,1066.2712707080009,1066.296857792,1066.296857792,1066.7753397079996,1067.914690042,1067.914690042,x,0.8847050000003946,None,1066.296857792,,,,,,,,ypen,001,2025-05-29_14h18.39.961,MainFlow,2024.1.5,None,2025-05-29 14h18.48.704698 +0700,
2,63,1,word/worden0631.png,image/True/img63.png,0,167,167,167,1068.811952125001,,,,,,,1070.3083272080003,1069.792064542,1069.8154887500004,1069.8154887500004,1070.3041472080004,1071.4268348749993,1071.4268348749993,z,11.279130917000657,None,,,,,,,,,ypen,001,2025-05-29_14h18.39.961,MainFlow,2024.1.5,None,2025-05-29 14h18.48.704698 +0700,
2,87,1,word/worden0871.png,image/True/img87.png,0,168,168,168,1082.720722,,,,,,,1084.220508167,1083.7043769169995,1083.7284666670002,1083.7284666670002,1084.2085522500001,1085.3419900829995,1085.3419900829995,z,7.2324254590002965,None,1083.7284666670002,,,,,,,,ypen,001,2025-05-29_14h18.39.961,MainFlow,2024.1.5,None,2025-05-29 14h18.48.704698 +0700,
2,57,0,word/worden0571.png,image/False/imgf57.png,0,169,169,169,1092.5871025830002,,,,,,,1094.0872653330007,1093.571060958,1093.5949258330002,1093.5949258330002,1094.0753839169993,1095.2084759999998,1095.2084759999998,x,1.3264943750000384,None,1093.5949258330002,,,,,,,,ypen,001,2025-05-29_14h18.39.961,MainFlow,2024.1.5,None,2025-05-29 14h18.48.704698 +0700,
2,94,0,word/worden0941.png,image/False/imgf94.png,0,170,170,170,1096.5455299999994,,,,,,,1098.037177667,1097.5249832499994,1097.548556875001,1097.548556875001,1098.0250838749998,1099.1708856669993,1099.1708856669993,x,1.1801372499994613,None,,,,,,,,,ypen,001,2025-05-29_14h18.39.961,MainFlow,2024.1.5,None,2025-05-29 14h18.48.704698 +0700,
2,93,0,word/worden0931.png,image/False/imgf93.png,0,171,171,171,1100.362491625001,,,,,,,1101.8582179580008,1101.3420488329994,1101.3656116250004,1101.3656116250004,1101.8539624580008,1102.9573556670002,1102.9573556670002,x,5.689953834000335,None,,,,,,,,,ypen,001,2025-05-29_14h18.39.961,MainFlow,2024.1.5,None,2025-05-29 14h18.48.704698 +0700,
2,61,1,word/worden0611.png,image/True/img61.png,0,172,172,172,1108.6621386250008,,,,,,,1110.1538504580003,1109.6413588750002,1109.6644776249996,1109.6644776249996,1110.1422894999996,1111.268494625001,1111.268494625001,z,3.514346583999213,None,,,,,,,,,ypen,001,2025-05-29_14h18.39.961,MainFlow,2024.1.5,None,2025-05-29 14h18.48.704698 +0700,
2,28,1,word/worden0281.png,image/True/img28.png,0,173,173,173,1114.7957601670005,,,,,,,1116.2913834579995,1115.7754252920004,1115.7991120419993,1115.7991120419993,1116.2872459169994,1117.4215293329999,1117.4215293329999,z,5.377610124998682,None,,,,,,,,,ypen,001,2025-05-29_14h18.39.961,MainFlow,2024.1.5,None,2025-05-29 14h18.48.704698 +0700,
2,46,1,word/worden0461.png,image/True/img46.png,0,174,174,174,1122.8122260830005,,,,,,,1124.3083599170004,1123.791930333,1123.8161889170005,1123.8161889170005,1124.3039387080007,1125.4441453750005,1125.4441453750005,z,12.354870415998448,None,,,,,,,,,ypen,001,2025-05-29_14h18.39.961,MainFlow,2024.1.5,None,2025-05-29 14h18.48.704698 +0700,
2,22,1,word/worden0221.png,image/True/img22.png,0,175,175,175,1137.8115887500007,,,,,,,1139.3079261250004,1138.7919873329993,1138.8147614169993,1138.8147614169993,1139.3037707500007,1140.448803958001,1140.448803958001,z,1.198062375000518,None,,,,,,,,,ypen,001,2025-05-29_14h18.39.961,MainFlow,2024.1.5,None,2025-05-29 14h18.48.704698 +0700,
2,93,1,word/worden0931.png,image/True/img93.png,0,176,176,176,1141.6620000830007,,,,,,,1143.15367075,1142.64128025,1142.6644035829995,1142.6644035829995,1143.1421420829993,1144.2612937079994,1144.2612937079994,z,8.913229249999858,None,,,,,,,,,ypen,001,2025-05-29_14h18.39.961,MainFlow,2024.1.5,None,2025-05-29 14h18.48.704698 +0700,
2,95,1,word/worden0951.png,image/True/img95.png,0,177,177,177,1153.186937417,,,,,,,1154.68692,1154.170734958001,1154.1948879579995,1154.1948879579995,1154.6748200830007,1155.8179918330006,1155.8179918330006,z,0.8695252910001727,None,1154.1948879579995,,,,,,,,ypen,001,2025-05-29_14h18.39.961,MainFlow,2024.1.5,None,2025-05-29 14h18.48.704698 +0700,
2,17,0,word/worden0171.png,image/False/imgf17.png,0,178,178,178,1156.7036149169999,,,,,,,1158.2035665830008,1157.687232917,1157.710783083001,1157.710783083001,1158.1914068330007,1159.3267382079994,1159.3267382079994,z,0.6879497500012803,None,1157.710783083001,,,,,,,,ypen,001,2025-05-29_14h18.39.961,MainFlow,2024.1.5,None,2025-05-29 14h18.48.704698 +0700,
2,26,1,word/worden0261.png,image/True/img26.png,0,179,179,179,1160.0289782500004,,,,,,,1161.5244369579996,1161.0084785420004,1161.0321544170001,1161.0321544170001,1161.5202711670008,1162.652162542001,1162.652162542001,z,5.6113398329998745,None,,,,,,,,,ypen,001,2025-05-29_14h18.39.961,MainFlow,2024.1.5,None,2025-05-29 14h18.48.704698 +0700,
2,27,1,word/worden0271.png,image/True/img27.png,0,180,180,180,1168.278609125,,,,,,,1169.7746519579996,1169.2587593749995,1169.282588,1169.282588,1169.7702085,1170.8804425830003,1170.8804425830003,z,2.9903364579986373,None,,,,,,,,,ypen,001,2025-05-29_14h18.39.961,MainFlow,2024.1.5,None,2025-05-29 14h18.48.704698 +0700,
2,31,1,word/worden0311.png,image/True/img31.png,0,181,181,181,1173.8867762080008,,,,,,,1175.386868042,1174.870619542,1174.8949322499993,1174.8949322499993,1175.375119708,1176.4984624999997,1176.4984624999997,z,0.7644147499995597,None,1174.8949322499993,,,,,,,,ypen,001,2025-05-29_14h18.39.961,MainFlow,2024.1.5,None,2025-05-29 14h18.48.704698 +0700,
2,33,0,word/worden0331.png,image/False/imgf33.png,0,182,182,182,1177.2790061670003,,,,,,,1178.7735565830008,1178.2583063750008,1178.2826831250004,1178.2826831250004,1178.7696569580003,1179.8955156249995,1179.8955156249995,x,3.919098958000177,None,,,,,,,,,ypen,001,2025-05-29_14h18.39.961,MainFlow,2024.1.5,None,2025-05-29 14h18.48.704698 +0700,
2,59,1,word/worden0591.png,image/True/img59.png,0,183,183,183,1183.8285844580005,,,,,,,1185.3244439999999,1184.808221667001,1184.8313727919995,1184.8313727919995,1185.3201992079994,1186.42015575,1186.42015575,z,2.730604416999995,None,,,,,,,,,ypen,001,2025-05-29_14h18.39.961,MainFlow,2024.1.5,None,2025-05-29 14h18.48.704698 +0700,
2,8,1,word/worden0081.png,image/True/img08.png,0,184,184,184,1189.1619896249995,,,,,,,1190.657643167,1190.1416979580008,1190.1654331249993,1190.1654331249993,1190.653430542001,1191.7551579579995,1191.7551579579995,z,2.95445912499963,None,,,,,,,,,ypen,001,2025-05-29_14h18.39.961,MainFlow,2024.1.5,None,2025-05-29 14h18.48.704698 +0700,
2,63,0,word/worden0631.png,image/False/imgf63.png,0,185,185,185,1194.7255097079997,,,,,,,1196.2200319999993,1195.7076366670008,1195.7302992080004,1195.7302992080004,1196.2080218329993,1197.3528255830006,1197.3528255830006,x,10.718765040999642,None,,,,,,,,,ypen,001,2025-05-29_14h18.39.961,MainFlow,2024.1.5,None,2025-05-29 14h18.48.704698 +0700,
2,30,0,word/worden0301.png,image/False/imgf30.png,0,186,186,186,1208.0865102919997,,,,,,,1209.5857071669998,1209.0703141249996,1209.0946192499996,1209.0946192499996,1209.5715490830007,1210.697729167001,1210.697729167001,x,2.7970197499998903,None,1209.0946192499996,,,,,,,,ypen,001,2025-05-29_14h18.39.961,MainFlow,2024.1.5,None,2025-05-29 14h18.48.704698 +0700,
2,15,0,word/worden0151.png,image/False/imgf15.png,0,187,187,187,1213.5119866250006,,,,,,,1215.007474,1214.4916701250004,1214.5143345420001,1214.5143345420001,1215.0033244999995,1216.1182669579994,1216.1182669579994,x,1.000204832998861,None,,,,,,,,,ypen,001,2025-05-29_14h18.39.961,MainFlow,2024.1.5,None,2025-05-29 14h18.48.704698 +0700,
2,71,0,word/worden0711.png,image/False/imgf71.png,0,188,188,188,1217.127884167001,,,,,,,1218.6243269170009,1218.108118958,1218.1324494170003,1218.1324494170003,1218.6199971669994,1219.7570648330002,1219.7570648330002,x,4.001702999999907,None,,,,,,,,,ypen,001,2025-05-29_14h18.39.961,MainFlow,2024.1.5,None,2025-05-29 14h18.48.704698 +0700,
2,10,0,word/worden0101.png,image/False/imgf10.png,0,189,189,189,1223.775233792001,,,,,,,1225.2698375420005,1224.757852625,1224.78101875,1224.78101875,1225.2579639169999,1226.3877577919993,1226.3877577919993,x,7.6998728749986185,None,,,,,,,,,ypen,001,2025-05-29_14h18.39.961,MainFlow,2024.1.5,None,2025-05-29 14h18.48.704698 +0700,
2,54,0,word/worden0541.png,image/False/imgf54.png,0,190,190,190,1234.1031276249996,,,,,,,1235.6030777920005,1235.0869401250002,1235.1104654579995,1235.1104654579995,1235.5910950830003,1236.716760792,1236.716760792,x,2.07375758300077,None,1235.1104654579995,,,,,,,,ypen,001,2025-05-29_14h18.39.961,MainFlow,2024.1.5,None,2025-05-29 14h18.48.704698 +0700,
2,60,0,word/worden0601.png,image/False/imgf60.png,0,191,191,191,1238.8077910829998,,,,,,,1240.3030952919999,1239.7912947500008,1239.8150972919993,1239.8150972919993,1240.2915106250002,1241.4196053329997,1241.4196053329997,x,17.226617542000895,None,1239.8150972919993,,,,,,,,ypen,001,2025-05-29_14h18.39.961,MainFlow,2024.1.5,None,2025-05-29 14h18.48.704698 +0700,
2,16,0,word/worden0161.png,image/False/imgf16.png,0,192,192,192,1258.6615496249997,,,,,,,1260.1572378750006,1259.641268333,1259.6638407499995,1259.6638407499995,1260.1530722919997,1261.2823927499994,1261.2823927499994,x,9.60551041600047,None,,,,,,,,,ypen,001,2025-05-29_14h18.39.961,MainFlow,2024.1.5,None,2025-05-29 14h18.48.704698 +0700,
2,50,1,word/worden0501.png,image/True/img50.png,0,193,193,193,1270.9029671669996,,,,,,,1272.4029530000007,1271.886599542,1271.912295125001,1271.912295125001,1272.3914149579996,1273.5178988330008,1273.5178988330008,x,8.928531667001153,None,1271.912295125001,,,,,,,,ypen,001,2025-05-29_14h18.39.961,MainFlow,2024.1.5,None,2025-05-29 14h18.48.704698 +0700,
2,63,1,word/worden0631.png,image/True/img63.png,0,194,194,194,1282.4617966250007,,,,,,,1283.9570530420006,1283.4407237079995,1283.4641776669996,1283.4641776669996,1283.9528901249996,1285.075391542001,1285.075391542001,x,0.8986934169988672,None,,,,,,,,,ypen,001,2025-05-29_14h18.39.961,MainFlow,2024.1.5,None,2025-05-29 14h18.48.704698 +0700,
2,24,0,word/worden0241.png,image/False/imgf24.png,0,195,195,195,1285.9860732920006,,,,,,,1287.4860862500009,1286.969843625,1286.9937483329995,1286.9937483329995,1287.4743637499996,1288.5896251670001,1288.5896251670001,x,7.081821416999446,None,1286.9937483329995,,,,,,,,ypen,001,2025-05-29_14h18.39.961,MainFlow,2024.1.5,None,2025-05-29 14h18.48.704698 +0700,
2,89,0,word/worden0891.png,image/False/imgf89.png,0,196,196,196,1295.6860729580003,,,,,,,1297.1860900419997,1296.669836125,1296.694246250001,1296.694246250001,1297.1739467080006,1298.296022292001,1298.296022292001,x,8.782114207999257,None,1296.694246250001,,,,,,,,ypen,001,2025-05-29_14h18.39.961,MainFlow,2024.1.5,None,2025-05-29 14h18.48.704698 +0700,
2,6,0,word/worden0061.png,image/False/imgf06.png,0,197,197,197,1307.0940121250005,,,,,,,1308.5861210420007,1308.0739439169993,1308.0979455830002,1308.0979455830002,1308.5740247499998,1309.6882946669994,1309.6882946669994,x,4.574795500000619,None,,,,,,,,,ypen,001,2025-05-29_14h18.39.961,MainFlow,2024.1.5,None,2025-05-29 14h18.48.704698 +0700,
2,41,0,word/worden0411.png,image/False/imgf41.png,0,198,198,198,1314.2779038749995,,,,,,,1315.7736480000003,1315.257644292,1315.2820692080004,1315.2820692080004,1315.7694541250003,1316.8659444999994,1316.8659444999994,x,5.39714316699974,None,,,,,,,,,ypen,001,2025-05-29_14h18.39.961,MainFlow,2024.1.5,None,2025-05-29 14h18.48.704698 +0700,
2,79,0,word/worden0791.png,image/False/imgf79.png,0,199,199,199,1322.2774555830001,,,,,,,1323.7692752080002,1323.2571054170003,1323.2814265830002,1323.2814265830002,1323.7572473750006,1324.8969527080008,1324.8969527080008,x,59.83998420899843,None,,,,,,,,,ypen,001,2025-05-29_14h18.39.961,MainFlow,2024.1.5,None,2025-05-29 14h18.48.704698 +0700,
2,70,1,word/worden0701.png,image/True/img70.png,0,200,200,200,1384.7524082920008,,,,,,,1386.2523849999998,1385.7358218749996,1385.760156708,1385.760156708,1386.2401544580007,1387.371926875001,1387.371926875001,z,3.690324249999321,None,1385.760156708,,,,,,,,ypen,001,2025-05-29_14h18.39.961,MainFlow,2024.1.5,None,2025-05-29 14h18.48.704698 +0700,
2,31,1,word/worden0311.png,image/True/img31.png,0,201,201,201,1391.0774646669997,,,,,,,1392.573005458,1392.0571837080006,1392.081266583,1392.081266583,1392.568908917001,1393.6843978750003,1393.6843978750003,z,1.2352481249999983,None,,,,,,,,,ypen,001,2025-05-29_14h18.39.961,MainFlow,2024.1.5,None,2025-05-29 14h18.48.704698 +0700,
2,9,1,word/worden0091.png,image/True/img09.png,0,202,202,202,1394.9355870830004,,,,,,,1396.4355792080005,1395.9193073330007,1395.9432487920003,1395.9432487920003,1396.4233876670005,1397.5185975000004,1397.5185975000004,z,7.831764374999693,None,1395.9432487920003,,,,,,,,ypen,001,2025-05-29_14h18.39.961,MainFlow,2024.1.5,None,2025-05-29 14h18.48.704698 +0700,
2,27,1,word/worden0271.png,image/True/img27.png,0,203,203,203,1405.3605242499998,,,,,,,1406.8564055829993,1406.3404219170006,1406.3645954580006,1406.3645954580006,1406.8522154170005,1407.9618370419994,1407.9618370419994,z,0.9412435829999595,None,,,,,,,,,ypen,001,2025-05-29_14h18.39.961,MainFlow,2024.1.5,None,2025-05-29 14h18.48.704698 +0700,
2,75,0,word/worden0751.png,image/False/imgf75.png,0,204,204,204,1408.918840542001,,,,,,,1410.418786667,1409.9022710419995,1409.926142833001,1409.926142833001,1410.4067162499996,1411.5341049170001,1411.5341049170001,x,5.22419224999976,None,1409.926142833001,,,,,,,,ypen,001,2025-05-29_14h18.39.961,MainFlow,2024.1.5,None,2025-05-29 14h18.48.704698 +0700,
2,87,0,word/worden0871.png,image/False/imgf87.png,0,205,205,205,1416.7739622499994,,,,,,,1418.268813625,1417.752602333001,1417.7767874170004,1417.7767874170004,1418.2567709169998,1419.3763243329995,1419.3763243329995,x,2.6535791250007605,None,,,,,,,,,ypen,001,2025-05-29_14h18.39.961,MainFlow,2024.1.5,None,2025-05-29 14h18.48.704698 +0700,
2,8,0,word/worden0081.png,image/False/imgf08.png,0,206,206,206,1422.0441316670003,,,,,,,1423.539614792,1423.0236365830006,1423.0469401249993,1423.0469401249993,1423.5354574169996,1424.6366030000008,1424.6366030000008,x,5.834131333000187,None,,,,,,,,,ypen,001,2025-05-29_14h18.39.961,MainFlow,2024.1.5,None,2025-05-29 14h18.48.704698 +0700,
2,24,1,word/worden0241.png,image/True/img24.png,0,207,207,207,1430.4852166670007,,,,,,,1431.9853687079994,1431.4692643750004,1431.4938676250003,1431.4938676250003,1431.9733787919995,1433.074738542,1433.074738542,x,4.955221166999763,None,1431.4938676250003,,,,,,,,ypen,001,2025-05-29_14h18.39.961,MainFlow,2024.1.5,None,2025-05-29 14h18.48.704698 +0700,
2,14,1,word/worden0141.png,image/True/img14.png,0,208,208,208,1438.0436032079997,,,,,,,1439.5395214580003,1439.0235102919996,1439.0472343330002,1439.0472343330002,1439.5353649999997,1440.6550472500003,1440.6550472500003,z,0.9352351670004282,None,,,,,,,,,ypen,001,2025-05-29_14h18.39.961,MainFlow,2024.1.5,None,2025-05-29 14h18.48.704698 +0700,
2,87,1,word/worden0871.png,image/True/img87.png,0,209,209,209,1441.6017571249995,,,,,,,1443.1019200829996,1442.5857060420003,1442.6098527920003,1442.6098527920003,1443.0898804999997,1444.2233259999994,1444.2233259999994,z,1.2224628750009288,None,1442.6098527920003,,,,,,,,ypen,001,2025-05-29_14h18.39.961,MainFlow,2024.1.5,None,2025-05-29 14h18.48.704698 +0700,
2,42,0,word/worden0421.png,image/False/imgf42.png,0,210,210,210,1445.4605205419994,,,,,,,1446.9562250420004,1446.440329000001,1446.4642736669994,1446.4642736669994,1446.9519890419997,1448.0858617079994,1448.0858617079994,x,1.3203996660013217,None,,,,,,,,,ypen,001,2025-05-29_14h18.39.961,MainFlow,2024.1.5,None,2025-05-29 14h18.48.704698 +0700,
2,48,0,word/worden0481.png,image/False/imgf48.png,0,211,211,211,1449.4185988749996,,,,,,,1450.9186480829994,1450.402189167,1450.4261955420006,1450.4261955420006,1450.906904458001,1452.0548190419995,1452.0548190419995,x,1.9836038330013253,None,1450.4261955420006,,,,,,,,ypen,001,2025-05-29_14h18.39.961,MainFlow,2024.1.5,None,2025-05-29 14h18.48.704698 +0700,
2,56,0,word/worden0561.png,image/False/imgf56.png,0,212,212,212,1454.0518192079999,,,,,,,1455.5518985830004,1455.0355949999994,1455.060447625001,1455.060447625001,1455.5400999579997,1456.6868477499993,1456.6868477499993,x,1.233040458000687,None,1455.060447625001,,,,,,,,ypen,001,2025-05-29_14h18.39.961,MainFlow,2024.1.5,None,2025-05-29 14h18.48.704698 +0700,
2,18,0,word/worden0181.png,image/False/imgf18.png,0,213,213,213,1457.9351996669993,,,,,,,1459.4352036250002,1458.9187994580006,1458.9422104580008,1458.9422104580008,1459.4231063330008,1460.5474762920003,1460.5474762920003,x,1.2262874580010248,None,1458.9422104580008,,,,,,,,ypen,001,2025-05-29_14h18.39.961,MainFlow,2024.1.5,None,2025-05-29 14h18.48.704698 +0700,
2,18,0,word/worden0181.png,image/False/imgf18.png,0,214,214,214,1461.7899540420003,,,,,,,1463.2852418750008,1462.7688751669994,1462.7923454579995,1462.7923454579995,1463.27310425,1464.397639875,1464.397639875,x,1.3444299579987273,None,,,,,,,,,ypen,001,2025-05-29_14h18.39.961,MainFlow,2024.1.5,None,2025-05-29 14h18.48.704698 +0700,
2,9,0,word/worden0091.png,image/False/imgf09.png,0,215,215,215,1465.7600560419996,,,,,,,1467.2560092080003,1466.740053083,1466.763141042,1466.763141042,1467.2518484169996,1468.345328417001,1468.345328417001,x,1.884740375000547,None,,,,,,,,,ypen,001,2025-05-29_14h18.39.961,MainFlow,2024.1.5,None,2025-05-29 14h18.48.704698 +0700,
2,55,0,word/worden0551.png,image/False/imgf55.png,0,216,216,216,1470.2436273750009,,,,,,,1471.7350736669996,1471.222879250001,1471.246006292,1471.246006292,1471.7233471670006,1472.851526333001,1472.851526333001,x,3.068432916999882,None,,,,,,,,,ypen,001,2025-05-29_14h18.39.961,MainFlow,2024.1.5,None,2025-05-29 14h18.48.704698 +0700,
2,17,0,word/worden0171.png,image/False/imgf17.png,0,217,217,217,1475.935032333,,,,,,,1477.4350333330003,1476.9188279999998,1476.942844792,1476.942844792,1477.4236678750003,1478.5564095419995,1478.5564095419995,z,3.546305542000482,None,1476.942844792,,,,,,,,ypen,001,2025-05-29_14h18.39.961,MainFlow,2024.1.5,None,2025-05-29 14h18.48.704698 +0700,
2,50,1,word/worden0501.png,image/True/img50.png,0,218,218,218,1482.1184278750006,,,,,,,1483.6183892080007,1483.102112167,1483.126436208,1483.126436208,1483.606359333,1484.7327396250002,1484.7327396250002,z,6.490111875000366,None,1483.126436208,,,,,,,,ypen,001,2025-05-29_14h18.39.961,MainFlow,2024.1.5,None,2025-05-29 14h18.48.704698 +0700,
2,20,0,word/worden0201.png,image/False/imgf20.png,0,219,219,219,1491.2349290000002,,,,,,,1492.7348851669994,1492.2188280419996,1492.2430492919993,1492.2430492919993,1492.7233547920005,1493.876702042,1493.876702042,x,5.761069999998654,None,1492.2430492919993,,,,,,,,ypen,001,2025-05-29_14h18.39.961,MainFlow,2024.1.5,None,2025-05-29 14h18.48.704698 +0700,
2,36,0,word/worden0361.png,image/False/imgf36.png,0,220,220,220,1499.6515907079993,,,,,,,1501.151576958,1500.6356202919997,1500.6599735830005,1500.6599735830005,1501.1399584579995,1502.2692712919998,1502.2692712919998,x,0.8884566659999109,None,1500.6599735830005,,,,,,,,ypen,001,2025-05-29_14h18.39.961,MainFlow,2024.1.5,None,2025-05-29 14h18.48.704698 +0700,
2,7,0,word/worden0071.png,image/False/imgf07.png,0,221,221,221,1503.1738225419995,,,,,,,1504.6725932919999,1504.1566189999994,1504.1808151669993,1504.1808151669993,1504.668336875,1505.7880345419999,1505.7880345419999,x,7.194372040999951,None,1504.1808151669993,,,,,,,,ypen,001,2025-05-29_14h18.39.961,MainFlow,2024.1.5,None,2025-05-29 14h18.48.704698 +0700,
2,7,1,word/worden0071.png,image/True/img07.png,0,222,222,222,1512.9935950830004,,,,,,,1514.4850273329994,1513.9723343330006,1513.9947210419996,1513.9947210419996,1514.4731112080008,1515.6167948750008,1515.6167948750008,z,5.957515250000142,None,,,,,,,,,ypen,001,2025-05-29_14h18.39.961,MainFlow,2024.1.5,None,2025-05-29 14h18.48.704698 +0700,
2,70,0,word/worden0701.png,image/False/imgf70.png,0,223,223,223,1521.590134958,,,,,,,1523.0890471250004,1522.5730821670004,1522.5966894579997,1522.5966894579997,1523.0848756249998,1524.199777875001,1524.199777875001,x,3.140857958000197,None,1522.5966894579997,,,,,,,,ypen,001,2025-05-29_14h18.39.961,MainFlow,2024.1.5,None,2025-05-29 14h18.48.704698 +0700,
2,68,0,word/worden0681.png,image/False/imgf68.png,0,224,224,224,1527.3570920420007,,,,,,,1528.8557182919994,1528.3398250419996,1528.3639991670007,1528.3639991670007,1528.8515086250009,1529.948447750001,1529.948447750001,z,2.9220789999999397,None,1528.3639991670007,,,,,,,,ypen,001,2025-05-29_14h18.39.961,MainFlow,2024.1.5,None,2025-05-29 14h18.48.704698 +0700,
2,23,0,word/worden0231.png,image/False/imgf23.png,0,225,225,225,1532.8846405000004,,,,,,,1534.3847456250005,1533.8685658329996,1533.892000625001,1533.892000625001,1534.3726089579995,1535.5251385419997,1535.5251385419997,x,1.1855310419996385,None,1533.892000625001,,,,,,,,ypen,001,2025-05-29_14h18.39.961,MainFlow,2024.1.5,None,2025-05-29 14h18.48.704698 +0700,
2,56,0,word/worden0561.png,image/False/imgf56.png,0,226,226,226,1536.7265045420008,,,,,,,1538.2223995000004,1537.7061659579995,1537.7297186249998,1537.7297186249998,1538.2181959999998,1539.3590182080006,1539.3590182080006,x,1.327003042000797,None,,,,,,,,,ypen,001,2025-05-29_14h18.39.961,MainFlow,2024.1.5,None,2025-05-29 14h18.48.704698 +0700,
2,17,1,word/worden0171.png,image/True/img17.png,0,227,227,227,1540.7012511249995,,,,,,,1542.2014977500003,1541.6850750419999,1541.7082817080009,1541.7082817080009,1542.1892214170002,1543.3128366250003,1543.3128366250003,z,0.8703871669986256,None,1541.7082817080009,,,,,,,,ypen,001,2025-05-29_14h18.39.961,MainFlow,2024.1.5,None,2025-05-29 14h18.48.704698 +0700,
2,94,1,word/worden0941.png,image/True/img94.png,0,228,228,228,1544.193430333,,,,,,,1545.684718292001,1545.1724922499998,1545.196674750001,1545.196674750001,1545.672644833001,1546.7971218750008,1546.7971218750008,z,3.0093465829995694,None,,,,,,,,,ypen,001,2025-05-29_14h18.39.961,MainFlow,2024.1.5,None,2025-05-29 14h18.48.704698 +0700,
2,96,0,word/worden0961.png,image/False/imgf96.png,0,229,229,229,1549.8231678329994,,,,,,,1551.3180555,1550.8017635830001,1550.8263069170007,1550.8263069170007,1551.305992083,1552.4396226669996,1552.4396226669996,x,1.7665432499998133,None,,,,,,,,,ypen,001,2025-05-29_14h18.39.961,MainFlow,2024.1.5,None,2025-05-29 14h18.48.704698 +0700,
2,82,0,word/worden0821.png,image/False/imgf82.png,0,230,230,230,1554.2177771250008,,,,,,,1555.7180775830002,1555.2016804579998,1555.225951208,1555.225951208,1555.7057179999993,1556.8275582919996,1556.8275582919996,x,1.5076220000009926,None,1555.225951208,,,,,,,,ypen,001,2025-05-29_14h18.39.961,MainFlow,2024.1.5,None,2025-05-29 14h18.48.704698 +0700,
2,36,1,word/worden0361.png,image/True/img36.png,0,231,231,231,1558.3513418330003,,,,,,,1559.8513644579998,1559.3349671670003,1559.357909417,1559.357909417,1559.839552417001,1560.9581512919995,1560.9581512919995,z,0.8870158329991682,None,1559.357909417,,,,,,,,ypen,001,2025-05-29_14h18.39.961,MainFlow,2024.1.5,None,2025-05-29 14h18.48.704698 +0700,
2,44,1,word/worden0441.png,image/True/img44.png,0,232,232,232,1561.859499708,,,,,,,1563.3554516250006,1562.839434042,1562.8629484169996,1562.8629484169996,1563.3512823330002,1564.4606659580004,1564.4606659580004,z,1.9694632089995139,None,,,,,,,,,ypen,001,2025-05-29_14h18.39.961,MainFlow,2024.1.5,None,2025-05-29 14h18.48.704698 +0700,
2,66,1,word/worden0661.png,image/True/img66.png,0,233,233,233,1566.4427378750006,,,,,,,1567.9345554169995,1567.422174583,1567.4450465419995,1567.4450465419995,1567.9224739170004,1569.0560225000008,1569.0560225000008,z,2.326840749999974,None,,,,,,,,,ypen,001,2025-05-29_14h18.39.961,MainFlow,2024.1.5,None,2025-05-29 14h18.48.704698 +0700,
2,38,0,word/worden0381.png,image/False/imgf38.png,0,234,234,234,1571.3929510830003,,,,,,,1572.8845855830004,1572.372155125,1572.3949419580003,1572.3949419580003,1572.873009500001,1574.0292892079997,1574.0292892079997,x,0.9534197920002043,None,,,,,,,,,ypen,001,2025-05-29_14h18.39.961,MainFlow,2024.1.5,None,2025-05-29 14h18.48.704698 +0700,
2,11,1,word/worden0111.png,image/True/img11.png,0,235,235,235,1574.9924375419996,,,,,,,1576.4845719580007,1575.9722940829997,1575.9956578330002,1575.9956578330002,1576.4724660829997,1577.6261044170005,1577.6261044170005,z,1.803749833999973,None,,,,,,,,,ypen,001,2025-05-29_14h18.39.961,MainFlow,2024.1.5,None,2025-05-29 14h18.48.704698 +0700,
2,94,1,word/worden0941.png,image/True/img94.png,0,236,236,236,1579.4425214170005,,,,,,,1580.9346145420004,1580.4222032920006,1580.4471158750002,1580.4471158750002,1580.9223201250006,1582.0444590000006,1582.0444590000006,z,1.0240565830008563,None,,,,,,,,,ypen,001,2025-05-29_14h18.39.961,MainFlow,2024.1.5,None,2025-05-29 14h18.48.704698 +0700,
2,28,0,word/worden0281.png,image/False/imgf28.png,0,237,237,237,1583.0843813749998,,,,,,,1584.5844443330006,1584.068158,1584.0921416670008,1584.0921416670008,1584.5723052499998,1585.6964848330008,1585.6964848330008,x,0.8539428330004739,None,1584.0921416670008,,,,,,,,ypen,001,2025-05-29_14h18.39.961,MainFlow,2024.1.5,None,2025-05-29 14h18.48.704698 +0700,
2,61,1,word/worden0611.png,image/True/img61.png,0,238,238,238,1586.5593243750009,,,,,,,1588.0559875,1587.5393150420005,1587.5633627080006,1587.5633627080006,1588.051244833001,1589.1660015830003,1589.1660015830003,z,3.001268166000955,None,,,,,,,,,ypen,001,2025-05-29_14h18.39.961,MainFlow,2024.1.5,None,2025-05-29 14h18.48.704698 +0700,
2,41,1,word/worden0411.png,image/True/img41.png,0,239,239,239,1592.1760764579994,,,,,,,1593.6719950419993,1593.1561753749993,1593.1795180419995,1593.1795180419995,1593.6677997080005,1594.796873542,1594.796873542,z,6.81711654100036,None,,,,,,,,,ypen,001,2025-05-29_14h18.39.961,MainFlow,2024.1.5,None,2025-05-29 14h18.48.704698 +0700,
,,,,,,,,,,,,,,,,,,,,,,,,,,,1601.6191548749994,1601.6259563330004,1601.6259563330004,1614.6354654999996,space,13.004085833999852,None,ypen,001,2025-05-29_14h18.39.961,MainFlow,2024.1.5,None,2025-05-29 14h18.48.704698 +0700,
