lang,wordid,truestate,worddir,imgdir,trials.thisRepN,trials.thisTrialN,trials.thisN,trials.thisIndex,thisRow.t,notes,tutorial.started,tutorial.stopped,key_instruct.keys,key_instruct.rt,key_instruct.duration,plusblank.started,wordshow.started,image.started,plsuer.started,wordshow.stopped,imageword.started,key_resp.started,key_resp.keys,key_resp.rt,key_resp.duration,plusblank.stopped,image.stopped,plsuer.stopped,ending.started,text_3.started,ending_key.started,ending.stopped,ending_key.keys,ending_key.rt,ending_key.duration,participant,session,date,expName,psychopyVersion,frameRate,expStart,
,,,,,,,,,,,0.0037728330007666955,4.952186000000438,space,4.900287667000157,None,,,,,,,,,,,,,,,,,,,,,ypth,001,2025-05-29_13h50.39.845,MainFlow,2024.1.5,None,2025-05-29 13h50.48.245043 +0700,
1,51,0,word/wordth0511.png,image/False/imgf51.png,0,0,0,0,5.01297437500034,,,,,,,6.453076833000523,5.936881875000836,5.974796708000213,5.974796708000213,6.440967415999694,7.579612790999818,7.579612790999818,x,4.4175116249989514,None,,,,,,,,,,,ypth,001,2025-05-29_13h50.39.845,MainFlow,2024.1.5,None,2025-05-29 13h50.48.245043 +0700,
1,66,1,word/wordth0661.png,image/True/img66.png,0,1,1,1,12.011711125000147,,,,,,,13.50633870800084,12.991392291000011,13.015950625000187,13.015950625000187,13.502987750000102,14.627380457999607,14.627380457999607,z,4.537581708000289,None,,,,,,,,,,,ypth,001,2025-05-29_13h50.39.845,MainFlow,2024.1.5,None,2025-05-29 13h50.48.245043 +0700,
1,60,1,word/wordth0601.png,image/True/img60.png,0,2,2,2,19.178318000000218,,,,,,,20.66972416600038,20.15742437500012,20.18094841600032,20.18094841600032,20.657490249999682,21.784106625000277,21.784106625000277,z,2.6455251250008587,None,,,,,,,,,,,ypth,001,2025-05-29_13h50.39.845,MainFlow,2024.1.5,None,2025-05-29 13h50.48.245043 +0700,
1,46,0,word/wordth0461.png,image/False/imgf46.png,0,3,3,3,24.44465666600081,,,,,,,25.936161916000856,25.424705790999724,25.44975866599998,25.44975866599998,25.924919375000172,27.07190220800112,27.07190220800112,x,4.532821499999045,None,,,,,,,,,,,ypth,001,2025-05-29_13h50.39.845,MainFlow,2024.1.5,None,2025-05-29 13h50.48.245043 +0700,
1,24,1,word/wordth0241.png,image/True/img24.png,0,4,4,4,31.61958845800109,,,,,,,33.119605040999886,32.60337504100062,32.62867666599959,32.62867666599959,33.10753820799982,34.208189916000265,34.208189916000265,z,4.355661915999008,None,32.62867666599959,,,,,,,,,,ypth,001,2025-05-29_13h50.39.845,MainFlow,2024.1.5,None,2025-05-29 13h50.48.245043 +0700,
1,68,1,word/wordth0681.png,image/True/img68.png,0,5,5,5,38.57767545800016,,,,,,,40.074287708001066,39.55750529100078,39.58143083300092,39.58143083300092,40.06965354100066,41.16289683300056,41.16289683300056,z,1.0104403749992343,None,,,,,,,,,,,ypth,001,2025-05-29_13h50.39.845,MainFlow,2024.1.5,None,2025-05-29 13h50.48.245043 +0700,
1,22,0,word/wordth0221.png,image/False/imgf22.png,0,6,6,6,42.18612800000119,,,,,,,43.68634700000075,43.16991349999989,43.194112958000915,43.194112958000915,43.67450141600057,44.81449733299996,44.81449733299996,x,1.542189125000732,None,43.194112958000915,,,,,,,,,,ypth,001,2025-05-29_13h50.39.845,MainFlow,2024.1.5,None,2025-05-29 13h50.48.245043 +0700,
1,36,1,word/wordth0361.png,image/True/img36.png,0,7,7,7,46.36962541600042,,,,,,,47.869461416001286,47.353222458001255,47.3766207080007,47.3766207080007,47.85738091600069,48.975142625000444,48.975142625000444,z,5.174610583000685,None,47.3766207080007,,,,,,,,,,ypth,001,2025-05-29_13h50.39.845,MainFlow,2024.1.5,None,2025-05-29 13h50.48.245043 +0700,
1,68,0,word/wordth0681.png,image/False/imgf68.png,0,8,8,8,54.160661791000166,,,,,,,55.6570559160009,55.14077254100084,55.164131333000114,55.164131333000114,55.65284154100118,56.74871583300046,56.74871583300046,x,1.4390555419995508,None,,,,,,,,,,,ypth,001,2025-05-29_13h50.39.845,MainFlow,2024.1.5,None,2025-05-29 13h50.48.245043 +0700,
1,16,1,word/wordth0161.png,image/True/img16.png,0,9,9,9,58.202783500000805,,,,,,,59.70281191600043,59.1865214999998,59.2108530000005,59.2108530000005,59.69076833300096,60.83837462500014,60.83837462500014,z,17.053908333000436,None,59.2108530000005,,,,,,,,,,ypth,001,2025-05-29_13h50.39.845,MainFlow,2024.1.5,None,2025-05-29 13h50.48.245043 +0700,
1,94,1,word/wordth0941.png,image/True/img94.png,0,10,10,10,77.90819650000049,,,,,,,79.40680120800062,78.89108812500126,78.91547041600097,78.91547041600097,79.40265900000122,80.51302441600092,80.51302441600092,z,0.8275842080001894,None,78.91547041600097,,,,,,,,,,ypth,001,2025-05-29_13h50.39.845,MainFlow,2024.1.5,None,2025-05-29 13h50.48.245043 +0700,
1,95,0,word/wordth0951.png,image/False/imgf95.png,0,11,11,11,81.35257749999982,,,,,,,82.8527144159998,82.33646425000006,82.36094512500131,82.36094512500131,82.84095483300007,83.97526174999985,83.97526174999985,x,4.078841124999599,None,82.36094512500131,,,,,,,,,,ypth,001,2025-05-29_13h50.39.845,MainFlow,2024.1.5,None,2025-05-29 13h50.48.245043 +0700,
1,30,0,word/wordth0301.png,image/False/imgf30.png,0,12,12,12,88.06925408300049,,,,,,,89.56917754099959,89.05311858300047,89.07833850000134,89.07833850000134,89.557192708,90.68116229100087,90.68116229100087,x,2.331607084001007,None,89.07833850000134,,,,,,,,,,ypth,001,2025-05-29_13h50.39.845,MainFlow,2024.1.5,None,2025-05-29 13h50.48.245043 +0700,
1,20,1,word/wordth0201.png,image/True/img20.png,0,13,13,13,93.02793854100128,,,,,,,94.51926933300092,94.0073503750009,94.03138187500008,94.03138187500008,94.50775345800139,95.6482491250008,95.6482491250008,z,6.932904875000531,None,,,,,,,,,,,ypth,001,2025-05-29_13h50.39.845,MainFlow,2024.1.5,None,2025-05-29 13h50.48.245043 +0700,
1,42,0,word/wordth0421.png,image/False/imgf42.png,0,14,14,14,102.5943633750012,,,,,,,104.086021041001,103.57359062500109,103.59749125000053,103.59749125000053,104.07364837500063,105.22146075000092,105.22146075000092,x,9.319544457999655,None,,,,,,,,,,,ypth,001,2025-05-29_13h50.39.845,MainFlow,2024.1.5,None,2025-05-29 13h50.48.245043 +0700,
1,31,1,word/wordth0311.png,image/True/img31.png,0,15,15,15,114.55781483300052,,,,,,,116.05236941600015,115.5407395000002,115.56429112499973,115.56429112499973,116.04080925000017,117.16518700000051,117.16518700000051,x,6.336239333000776,None,115.56429112499973,,,,,,,,,,ypth,001,2025-05-29_13h50.39.845,MainFlow,2024.1.5,None,2025-05-29 13h50.48.245043 +0700,
1,55,1,word/wordth0551.png,image/True/img55.png,0,16,16,16,123.51118775000032,,,,,,,125.00666091600033,124.49065150000024,124.51476554100009,124.51476554100009,125.0024626659997,126.13207320800029,126.13207320800029,z,4.456545667000682,None,,,,,,,,,,,ypth,001,2025-05-29_13h50.39.845,MainFlow,2024.1.5,None,2025-05-29 13h50.48.245043 +0700,
1,36,1,word/wordth0361.png,image/True/img36.png,0,17,17,17,130.6022584580005,,,,,,,132.1023782909997,131.58598037500087,131.60925966600007,131.60925966600007,132.09073366600023,133.21026266599984,133.21026266599984,z,4.586752750001324,None,131.60925966600007,,,,,,,,,,ypth,001,2025-05-29_13h50.39.845,MainFlow,2024.1.5,None,2025-05-29 13h50.48.245043 +0700,
1,9,1,word/wordth0091.png,image/True/img09.png,0,18,18,18,137.8110607079998,,,,,,,139.30671708299997,138.79085804100032,138.81663595800092,138.81663595800092,139.30254116600008,140.3888575410001,140.3888575410001,z,1.0806533340000897,None,,,,,,,,,,,ypth,001,2025-05-29_13h50.39.845,MainFlow,2024.1.5,None,2025-05-29 13h50.48.245043 +0700,
1,64,1,word/wordth0641.png,image/True/img64.png,0,19,19,19,141.48556604100122,,,,,,,142.98568187500132,142.46934466600032,142.49431308299972,142.49431308299972,142.9736085000004,144.08158191599978,144.08158191599978,z,16.754860208000537,None,142.49431308299972,,,,,,,,,,ypth,001,2025-05-29_13h50.39.845,MainFlow,2024.1.5,None,2025-05-29 13h50.48.245043 +0700,
1,95,1,word/wordth0951.png,image/True/img95.png,0,20,20,20,160.8520991660007,,,,,,,162.35216025000045,161.83584933299971,161.85969445800038,161.85969445800038,162.34014687499985,163.48314379099975,163.48314379099975,z,13.35430604100111,None,161.85969445800038,,,,,,,,,,ypth,001,2025-05-29_13h50.39.845,MainFlow,2024.1.5,None,2025-05-29 13h50.48.245043 +0700,
1,41,1,word/wordth0411.png,image/True/img41.png,0,21,21,21,176.8519522080005,,,,,,,178.3520905000005,177.83578954100085,177.85983295799997,177.85983295799997,178.3400150409998,179.47559295800056,179.47559295800056,z,11.681464625000444,None,177.85983295799997,,,,,,,,,,ypth,001,2025-05-29_13h50.39.845,MainFlow,2024.1.5,None,2025-05-29 13h50.48.245043 +0700,
1,8,1,word/wordth0081.png,image/True/img08.png,0,22,22,22,191.17388683300123,,,,,,,192.66875804099982,192.1523408330013,192.17648725000072,192.17648725000072,192.6566756250013,193.76997608300007,193.76997608300007,z,1.9795954170003824,None,,,,,,,,,,,ypth,001,2025-05-29_13h50.39.845,MainFlow,2024.1.5,None,2025-05-29 13h50.48.245043 +0700,
1,60,1,word/wordth0601.png,image/True/img60.png,0,23,23,23,195.76034620800056,,,,,,,197.251945041,196.73983979100012,196.7636026250002,196.7636026250002,197.24060933300098,198.36149716600085,198.36149716600085,z,3.0185107500001322,None,,,,,,,,,,,ypth,001,2025-05-29_13h50.39.845,MainFlow,2024.1.5,None,2025-05-29 13h50.48.245043 +0700,
1,48,0,word/wordth0481.png,image/False/imgf48.png,0,24,24,24,201.3939440410013,,,,,,,202.8900739159999,202.37361287500062,202.4008386660007,202.4008386660007,202.8854877499998,204.0205962910004,204.0205962910004,x,3.70307908399991,None,,,,,,,,,,,ypth,001,2025-05-29_13h50.39.845,MainFlow,2024.1.5,None,2025-05-29 13h50.48.245043 +0700,
1,41,0,word/wordth0411.png,image/False/imgf41.png,0,25,25,25,207.73425900000075,,,,,,,209.23524570799964,208.71895812500043,208.74370112500037,208.74370112500037,209.22320070800015,210.3238973330008,210.3238973330008,x,9.304469000000609,None,208.74370112500037,,,,,,,,,,ypth,001,2025-05-29_13h50.39.845,MainFlow,2024.1.5,None,2025-05-29 13h50.48.245043 +0700,
1,54,0,word/wordth0541.png,image/False/imgf54.png,0,26,26,26,219.64366275000066,,,,,,,221.13931137500003,220.62291433300015,220.6463879160001,220.6463879160001,221.13507016600124,222.25172475,222.25172475,x,5.2253385839994735,None,,,,,,,,,,,ypth,001,2025-05-29_13h50.39.845,MainFlow,2024.1.5,None,2025-05-29 13h50.48.245043 +0700,
1,54,1,word/wordth0541.png,image/True/img54.png,0,27,27,27,227.49338612500105,,,,,,,228.98977179100075,228.47343858299973,228.4987955409997,228.4987955409997,228.98510616600106,230.12233479099996,230.12233479099996,z,1.8735410419994878,None,,,,,,,,,,,ypth,001,2025-05-29_13h50.39.845,MainFlow,2024.1.5,None,2025-05-29 13h50.48.245043 +0700,
1,63,0,word/wordth0631.png,image/False/imgf63.png,0,28,28,28,232.01040375000048,,,,,,,233.5060882079997,232.98993062500085,233.01564408299964,233.01564408299964,233.50185779100138,234.633779916001,234.633779916001,z,23.74699637499907,None,,,,,,,,,,,ypth,001,2025-05-29_13h50.39.845,MainFlow,2024.1.5,None,2025-05-29 13h50.48.245043 +0700,
1,37,0,word/wordth0371.png,image/False/imgf37.png,0,29,29,29,258.39339491600003,,,,,,,259.8850225410006,259.3725903329996,259.3969272080012,259.3969272080012,259.87274462500136,261.0314634160004,261.0314634160004,x,5.7244061669989605,None,,,,,,,,,,,ypth,001,2025-05-29_13h50.39.845,MainFlow,2024.1.5,None,2025-05-29 13h50.48.245043 +0700,
1,54,0,word/wordth0541.png,image/False/imgf54.png,0,30,30,30,266.7681968329998,,,,,,,268.2682469580013,267.7520679999998,267.7763676659997,267.7763676659997,268.2567736250003,269.3848117079997,269.3848117079997,x,1.5959988749982585,None,267.7763676659997,,,,,,,,,,ypth,001,2025-05-29_13h50.39.845,MainFlow,2024.1.5,None,2025-05-29 13h50.48.245043 +0700,
1,48,1,word/wordth0481.png,image/True/img48.png,0,31,31,31,270.99388162499963,,,,,,,272.4848827910009,271.972615875,271.99671558299997,271.99671558299997,272.4727769580004,273.61026333300106,273.61026333300106,z,15.297323250000773,None,,,,,,,,,,,ypth,001,2025-05-29_13h50.39.845,MainFlow,2024.1.5,None,2025-05-29 13h50.48.245043 +0700,
1,26,0,word/wordth0261.png,image/False/imgf26.png,0,32,32,32,288.9236167500003,,,,,,,290.42253987500044,289.9064254160003,289.9312901659996,289.9312901659996,290.4182389159996,291.5529900830006,291.5529900830006,x,1.683697917000245,None,289.9312901659996,,,,,,,,,,ypth,001,2025-05-29_13h50.39.845,MainFlow,2024.1.5,None,2025-05-29 13h50.48.245043 +0700,
1,59,0,word/wordth0591.png,image/False/imgf59.png,0,33,33,33,293.2515910830007,,,,,,,294.75137925000126,294.2352454580014,294.26027941600114,294.26027941600114,294.7392560410008,295.8427042910007,295.8427042910007,x,3.8494147500005056,None,294.26027941600114,,,,,,,,,,ypth,001,2025-05-29_13h50.39.845,MainFlow,2024.1.5,None,2025-05-29 13h50.48.245043 +0700,
1,8,1,word/wordth0081.png,image/True/img08.png,0,34,34,34,299.710053666,,,,,,,301.2056857080006,300.68972445800136,300.7143177079997,300.7143177079997,301.2015189160011,302.3016939580011,302.3016939580011,z,1.6622382920013479,None,,,,,,,,,,,ypth,001,2025-05-29_13h50.39.845,MainFlow,2024.1.5,None,2025-05-29 13h50.48.245043 +0700,
1,66,1,word/wordth0661.png,image/True/img66.png,0,35,35,35,303.9764197500008,,,,,,,305.4680550000012,304.9557014580005,304.9794126249999,304.9794126249999,305.4559967080004,306.5870923750008,306.5870923750008,z,1.352818291999938,None,,,,,,,,,,,ypth,001,2025-05-29_13h50.39.845,MainFlow,2024.1.5,None,2025-05-29 13h50.48.245043 +0700,
1,24,0,word/wordth0241.png,image/False/imgf24.png,0,36,36,36,307.956338375001,,,,,,,309.45140133300083,308.9349715410008,308.9585252079996,308.9585252079996,309.4391754160006,310.5580334160004,310.5580334160004,x,14.359181917001479,None,,,,,,,,,,,ypth,001,2025-05-29_13h50.39.845,MainFlow,2024.1.5,None,2025-05-29 13h50.48.245043 +0700,
1,14,1,word/wordth0141.png,image/True/img14.png,0,37,37,37,324.9260762499998,,,,,,,326.4222735410003,325.9060111660001,325.9297855830009,325.9297855830009,326.4180410830013,327.5400602910013,327.5400602910013,z,1.2489583750011661,None,,,,,,,,,,,ypth,001,2025-05-29_13h50.39.845,MainFlow,2024.1.5,None,2025-05-29 13h50.48.245043 +0700,
1,20,0,word/wordth0201.png,image/False/imgf20.png,0,38,38,38,328.80111899999974,,,,,,,330.3012054580013,329.7849297080011,329.8085372080004,329.8085372080004,330.289104458001,331.4419652079996,331.4419652079996,x,2.162282833000063,None,329.8085372080004,,,,,,,,,,ypth,001,2025-05-29_13h50.39.845,MainFlow,2024.1.5,None,2025-05-29 13h50.48.245043 +0700,
1,89,0,word/wordth0891.png,image/False/imgf89.png,0,39,39,39,333.6179133750011,,,,,,,335.11785054100073,334.6018853330006,334.6267077499997,334.6267077499997,335.1062727910012,336.22564845800116,336.22564845800116,x,4.259797000000617,None,334.6267077499997,,,,,,,,,,ypth,001,2025-05-29_13h50.39.845,MainFlow,2024.1.5,None,2025-05-29 13h50.48.245043 +0700,
1,64,0,word/wordth0641.png,image/False/imgf64.png,0,40,40,40,340.500252541,,,,,,,341.98457391600095,341.4724057500007,341.49619175000043,341.49619175000043,341.9725736250002,343.07729199999994,343.07729199999994,x,2.134796083000765,None,,,,,,,,,,,ypth,001,2025-05-29_13h50.39.845,MainFlow,2024.1.5,None,2025-05-29 13h50.48.245043 +0700,
1,56,1,word/wordth0561.png,image/True/img56.png,0,41,41,41,345.22631920800086,,,,,,,346.7177969160002,346.20559766600127,346.2303030000003,346.2303030000003,346.7061711660008,347.8342580000008,347.8342580000008,z,6.92243716700068,None,,,,,,,,,,,ypth,001,2025-05-29_13h50.39.845,MainFlow,2024.1.5,None,2025-05-29 13h50.48.245043 +0700,
1,15,1,word/wordth0151.png,image/True/img15.png,0,42,42,42,354.772941833,,,,,,,356.2677820830013,355.7556889160005,355.7794604999999,355.7794604999999,356.2557519580005,357.40139466599976,357.40139466599976,z,3.859159292000186,None,355.7794604999999,,,,,,,,,,ypth,001,2025-05-29_13h50.39.845,MainFlow,2024.1.5,None,2025-05-29 13h50.48.245043 +0700,
1,88,0,word/wordth0881.png,image/False/imgf88.png,0,43,43,43,361.27582354100014,,,,,,,362.7677095830004,362.2554542079997,362.2799040830014,362.2799040830014,362.75560125000084,363.8838983750011,363.8838983750011,x,9.601657916999102,None,,,,,,,,,,,ypth,001,2025-05-29_13h50.39.845,MainFlow,2024.1.5,None,2025-05-29 13h50.48.245043 +0700,
1,94,1,word/wordth0941.png,image/True/img94.png,0,44,44,44,373.5010170410005,,,,,,,375.0011377910014,374.4846929160012,374.509317,374.509317,374.9888392499997,376.1085615410011,376.1085615410011,z,1.1990795000001526,None,374.509317,,,,,,,,,,ypth,001,2025-05-29_13h50.39.845,MainFlow,2024.1.5,None,2025-05-29 13h50.48.245043 +0700,
1,40,0,word/wordth0401.png,image/False/imgf40.png,0,45,45,45,377.32551520800007,,,,,,,378.82191616599994,378.3059226250007,378.32994599999984,378.32994599999984,378.81773262500064,379.93557537500055,379.93557537500055,x,4.213859249999587,None,,,,,,,,,,,ypth,001,2025-05-29_13h50.39.845,MainFlow,2024.1.5,None,2025-05-29 13h50.48.245043 +0700,
1,41,0,word/wordth0411.png,image/False/imgf41.png,0,46,46,46,384.15930758300055,,,,,,,385.6551943329996,385.13924037499964,385.1639220830002,385.1639220830002,385.65093720799996,386.74340333300097,386.74340333300097,x,3.932918874999814,None,,,,,,,,,,,ypth,001,2025-05-29_13h50.39.845,MainFlow,2024.1.5,None,2025-05-29 13h50.48.245043 +0700,
1,7,1,word/wordth0071.png,image/True/img07.png,0,47,47,47,390.692818083,,,,,,,392.1885445830012,391.6724416249999,391.700066333,391.700066333,392.18428525000127,393.31307629100047,393.31307629100047,x,10.522791040999437,None,,,,,,,,,,,ypth,001,2025-05-29_13h50.39.845,MainFlow,2024.1.5,None,2025-05-29 13h50.48.245043 +0700,
1,60,0,word/wordth0601.png,image/False/imgf60.png,0,48,48,48,403.85076137500073,,,,,,,405.35083445800046,404.8344347080001,404.85883450000074,404.85883450000074,405.33874108300006,406.4648565000007,406.4648565000007,x,1.5555229999990843,None,404.85883450000074,,,,,,,,,,ypth,001,2025-05-29_13h50.39.845,MainFlow,2024.1.5,None,2025-05-29 13h50.48.245043 +0700,
1,23,0,word/wordth0231.png,image/False/imgf23.png,0,49,49,49,408.0340321250005,,,,,,,409.53410008300125,409.01789545800057,409.0426193330004,409.0426193330004,409.5224077080002,410.6742262910011,410.6742262910011,x,2.249405000000479,None,409.0426193330004,,,,,,,,,,ypth,001,2025-05-29_13h50.39.845,MainFlow,2024.1.5,None,2025-05-29 13h50.48.245043 +0700,
1,68,0,word/wordth0681.png,image/False/imgf68.png,0,50,50,50,412.93934558300134,,,,,,,414.43871633300114,413.9223254160006,413.94803995800066,413.94803995800066,414.4341338329996,415.53140837499996,415.53140837499996,x,2.7207013750012266,None,413.94803995800066,,,,,,,,,,ypth,001,2025-05-29_13h50.39.845,MainFlow,2024.1.5,None,2025-05-29 13h50.48.245043 +0700,
1,26,1,word/wordth0261.png,image/True/img26.png,0,51,51,51,418.26737166600105,,,,,,,419.76742345800085,419.2510093330002,419.2746801659996,419.2746801659996,419.75531379099994,420.8958847499998,420.8958847499998,z,8.348334041000271,None,419.2746801659996,,,,,,,,,,ypth,001,2025-05-29_13h50.39.845,MainFlow,2024.1.5,None,2025-05-29 13h50.48.245043 +0700,
1,89,0,word/wordth0891.png,image/False/imgf89.png,0,52,52,52,429.25919616600004,,,,,,,430.7506665000001,430.2386582910003,430.26199291600096,430.26199291600096,430.7390728749997,431.86260491600115,431.86260491600115,x,1.685681040999043,None,,,,,,,,,,,ypth,001,2025-05-29_13h50.39.845,MainFlow,2024.1.5,None,2025-05-29 13h50.48.245043 +0700,
1,3,0,word/wordth0031.png,image/False/imgf03.png,0,53,53,53,433.55930575000093,,,,,,,435.0554848330012,434.53890800000045,434.5626410830009,434.5626410830009,435.05084783300117,436.1643701660014,436.1643701660014,x,1.4317834580015187,None,,,,,,,,,,,ypth,001,2025-05-29_13h50.39.845,MainFlow,2024.1.5,None,2025-05-29 13h50.48.245043 +0700,
1,55,1,word/wordth0551.png,image/True/img55.png,0,54,54,54,437.6089520410005,,,,,,,439.1005832080009,438.588358125,438.61231541600137,438.61231541600137,439.08844170799966,440.2295190830009,440.2295190830009,z,1.4224427080007445,None,,,,,,,,,,,ypth,001,2025-05-29_13h50.39.845,MainFlow,2024.1.5,None,2025-05-29 13h50.48.245043 +0700,
1,46,1,word/wordth0461.png,image/True/img46.png,0,55,55,55,441.66718204100107,,,,,,,443.167105333001,442.65106029100025,442.6754507910009,442.6754507910009,443.1552909580005,444.3001457500013,444.3001457500013,z,5.655811167000138,None,442.6754507910009,,,,,,,,,,ypth,001,2025-05-29_13h50.39.845,MainFlow,2024.1.5,None,2025-05-29 13h50.48.245043 +0700,
1,1,1,word/wordth0011.png,image/True/img01.png,0,56,56,56,449.9726673330006,,,,,,,451.46722995799973,450.954909166001,450.97912458300016,450.97912458300016,451.45566495800085,452.59670220800035,452.59670220800035,z,8.71138341599908,None,,,,,,,,,,,ypth,001,2025-05-29_13h50.39.845,MainFlow,2024.1.5,None,2025-05-29 13h50.48.245043 +0700,
1,3,1,word/wordth0031.png,image/True/img03.png,0,57,57,57,461.3256091660005,,,,,,,462.8213332080013,462.30557362500076,462.3290817500001,462.3290817500001,462.8171770000008,463.94858424999984,463.94858424999984,z,1.1429018750004616,None,,,,,,,,,,,ypth,001,2025-05-29_13h50.39.845,MainFlow,2024.1.5,None,2025-05-29 13h50.48.245043 +0700,
1,76,1,word/wordth0761.png,image/True/img76.png,0,58,58,58,465.10875012500037,,,,,,,466.6046959160012,466.0886642910009,466.11333037500117,466.11333037500117,466.60049762500057,467.71771824999996,467.71771824999996,z,5.92657245800001,None,,,,,,,,,,,ypth,001,2025-05-29_13h50.39.845,MainFlow,2024.1.5,None,2025-05-29 13h50.48.245043 +0700,
1,52,0,word/wordth0521.png,image/False/imgf52.png,0,59,59,59,473.6593612910001,,,,,,,475.154613875,474.6386902080012,474.6642487910012,474.6642487910012,475.15044204100013,476.25784708300125,476.25784708300125,x,1.059532750001381,None,,,,,,,,,,,ypth,001,2025-05-29_13h50.39.845,MainFlow,2024.1.5,None,2025-05-29 13h50.48.245043 +0700,
1,14,0,word/wordth0141.png,image/False/imgf14.png,0,60,60,60,477.33286954100004,,,,,,,478.83373554100035,478.31736595800066,478.3406732910007,478.3406732910007,478.8215259580011,479.9510722080013,479.9510722080013,x,1.3497697500006325,None,478.3406732910007,,,,,,,,,,ypth,001,2025-05-29_13h50.39.845,MainFlow,2024.1.5,None,2025-05-29 13h50.48.245043 +0700,
1,61,1,word/wordth0611.png,image/True/img61.png,0,61,61,61,481.3170255410005,,,,,,,482.81711158300095,482.3007247500009,482.32667712500006,482.32667712500006,482.8048292910007,483.9308361660005,483.9308361660005,z,6.089329500000531,None,482.32667712500006,,,,,,,,,,ypth,001,2025-05-29_13h50.39.845,MainFlow,2024.1.5,None,2025-05-29 13h50.48.245043 +0700,
1,93,0,word/wordth0931.png,image/False/imgf93.png,0,62,62,62,490.03350820800006,,,,,,,491.5336171660001,491.0173014160009,491.04114204100006,491.04114204100006,491.5216345830013,492.63394770800005,492.63394770800005,x,8.050097834000553,None,491.04114204100006,,,,,,,,,,ypth,001,2025-05-29_13h50.39.845,MainFlow,2024.1.5,None,2025-05-29 13h50.48.245043 +0700,
1,37,1,word/wordth0371.png,image/True/img37.png,0,63,63,63,500.7001219579997,,,,,,,502.2002677500004,501.68390808300137,501.7082612080012,501.7082612080012,502.18796016600027,503.3383702080009,503.3383702080009,z,5.466053624999404,None,501.7082612080012,,,,,,,,,,ypth,001,2025-05-29_13h50.39.845,MainFlow,2024.1.5,None,2025-05-29 13h50.48.245043 +0700,
1,79,0,word/wordth0791.png,image/False/imgf79.png,0,64,64,64,508.81667262500014,,,,,,,510.31681979099994,509.8006062500008,509.8250265830011,509.8250265830011,510.304878166,511.4397362910004,511.4397362910004,x,7.878135749999274,None,509.8250265830011,,,,,,,,,,ypth,001,2025-05-29_13h50.39.845,MainFlow,2024.1.5,None,2025-05-29 13h50.48.245043 +0700,
1,37,0,word/wordth0371.png,image/False/imgf37.png,0,65,65,65,519.3333491659996,,,,,,,520.8333359999997,520.3171152909999,520.3401236250011,520.3401236250011,520.8213705409999,521.9764700830001,521.9764700830001,x,13.691702666999845,None,520.3401236250011,,,,,,,,,,ypth,001,2025-05-29_13h50.39.845,MainFlow,2024.1.5,None,2025-05-29 13h50.48.245043 +0700,
1,3,1,word/wordth0031.png,image/True/img03.png,0,66,66,66,535.6832696250003,,,,,,,537.1833462909999,536.6671863330012,536.6898999580008,536.6898999580008,537.1715397500011,538.2997824160011,538.2997824160011,z,1.3925776249998307,None,536.6898999580008,,,,,,,,,,ypth,001,2025-05-29_13h50.39.845,MainFlow,2024.1.5,None,2025-05-29 13h50.48.245043 +0700,
1,93,0,word/wordth0931.png,image/False/imgf93.png,0,67,67,67,539.707888375,,,,,,,541.1999903329997,540.6878012910001,540.7122807080013,540.7122807080013,541.1883464580005,542.3032086250005,542.3032086250005,x,2.1803097079991858,None,,,,,,,,,,,ypth,001,2025-05-29_13h50.39.845,MainFlow,2024.1.5,None,2025-05-29 13h50.48.245043 +0700,
1,30,1,word/wordth0301.png,image/True/img30.png,0,68,68,68,544.4920171659996,,,,,,,545.9824220829996,545.4707254160003,545.4847872500013,545.4847872500013,545.9706411250008,547.0724842079999,547.0724842079999,z,3.7634680829996796,None,,545.9824220829996,545.9824220829996,,,,,,,,ypth,001,2025-05-29_13h50.39.845,MainFlow,2024.1.5,None,2025-05-29 13h50.48.245043 +0700,
1,46,0,word/wordth0461.png,image/False/imgf46.png,0,69,69,69,550.8500778750004,,,,,,,552.3499671660011,551.8336975410002,551.8578403749998,551.8578403749998,552.3378893330009,553.4824584580001,553.4824584580001,x,2.4402937079994445,None,551.8578403749998,,,,,,,,,,ypth,001,2025-05-29_13h50.39.845,MainFlow,2024.1.5,None,2025-05-29 13h50.48.245043 +0700,
1,27,0,word/wordth0271.png,image/False/imgf27.png,0,70,70,70,555.9384925410013,,,,,,,557.4372848330004,556.9208591250008,556.9439894999996,556.9439894999996,557.4332856660003,558.5480606250003,558.5480606250003,x,4.232703792000393,None,,,,,,,,,,,ypth,001,2025-05-29_13h50.39.845,MainFlow,2024.1.5,None,2025-05-29 13h50.48.245043 +0700,
1,37,1,word/wordth0371.png,image/True/img37.png,0,71,71,71,562.7900933330002,,,,,,,564.2830832500003,563.7701172079996,563.7926552080007,563.7926552080007,564.2711047499997,565.4243389160001,565.4243389160001,z,6.163791916998889,None,,,,,,,,,,,ypth,001,2025-05-29_13h50.39.845,MainFlow,2024.1.5,None,2025-05-29 13h50.48.245043 +0700,
1,20,1,word/wordth0201.png,image/True/img20.png,0,72,72,72,571.5997978329997,,,,,,,573.0998355000011,572.5837941660011,572.6087162910007,572.6087162910007,573.087783125,574.2257858749999,574.2257858749999,z,1.1777572909995797,None,572.6087162910007,,,,,,,,,,ypth,001,2025-05-29_13h50.39.845,MainFlow,2024.1.5,None,2025-05-29 13h50.48.245043 +0700,
1,17,1,word/wordth0171.png,image/True/img17.png,0,73,73,73,575.4165239160011,,,,,,,576.9165326660004,576.4001776660007,576.4252259160003,576.4252259160003,576.9042994160009,578.0285865410005,578.0285865410005,z,19.495075499999075,None,576.4252259160003,,,,,,,,,,ypth,001,2025-05-29_13h50.39.845,MainFlow,2024.1.5,None,2025-05-29 13h50.48.245043 +0700,
1,10,0,word/wordth0101.png,image/False/imgf10.png,0,74,74,74,597.5410407500003,,,,,,,599.0329991660001,598.5207476249998,598.5445892080006,598.5445892080006,599.0209220830002,600.1490924999998,600.1490924999998,x,1.255284415999995,None,,,,,,,,,,,ypth,001,2025-05-29_13h50.39.845,MainFlow,2024.1.5,None,2025-05-29 13h50.48.245043 +0700,
1,68,1,word/wordth0681.png,image/True/img68.png,0,75,75,75,601.4160222080009,,,,,,,602.9162624580003,602.399998791001,602.4241762910005,602.4241762910005,602.9041139159999,604.0082842909997,604.0082842909997,z,1.3473802080006863,None,602.4241762910005,,,,,,,,,,ypth,001,2025-05-29_13h50.39.845,MainFlow,2024.1.5,None,2025-05-29 13h50.48.245043 +0700,
1,82,0,word/wordth0821.png,image/False/imgf82.png,0,76,76,76,605.3718870829998,,,,,,,606.8705788750012,606.3547249580006,606.3786919579998,606.3786919579998,606.8663680410009,607.9827175829996,607.9827175829996,x,1.0688844169999356,None,606.3786919579998,,,,,,,,,,ypth,001,2025-05-29_13h50.39.845,MainFlow,2024.1.5,None,2025-05-29 13h50.48.245043 +0700,
1,42,1,word/wordth0421.png,image/True/img42.png,0,77,77,77,609.0663088750007,,,,,,,610.5663203330005,610.049961916,610.074147958001,610.074147958001,610.554061625,611.6826074159999,611.6826074159999,z,1.7615415829986887,None,610.074147958001,,,,,,,,,,ypth,001,2025-05-29_13h50.39.845,MainFlow,2024.1.5,None,2025-05-29 13h50.48.245043 +0700,
1,59,1,word/wordth0591.png,image/True/img59.png,0,78,78,78,613.4584652499998,,,,,,,614.9538853330014,614.4375708330008,614.4619322500002,614.4619322500002,614.9495390410011,616.046877625,616.046877625,z,1.3966282500005036,None,,,,,,,,,,,ypth,001,2025-05-29_13h50.39.845,MainFlow,2024.1.5,None,2025-05-29 13h50.48.245043 +0700,
1,18,1,word/wordth0181.png,image/True/img18.png,0,79,79,79,617.4575835409996,,,,,,,618.9495557080008,618.4373174579996,618.461113333,618.461113333,618.937952833001,620.0520660830007,620.0520660830007,z,12.15233791600076,None,,,,,,,,,,,ypth,001,2025-05-29_13h50.39.845,MainFlow,2024.1.5,None,2025-05-29 13h50.48.245043 +0700,
1,63,1,word/wordth0631.png,image/True/img63.png,0,80,80,80,632.2159265000009,,,,,,,633.7163110000001,633.1998015410009,633.2247543330013,633.2247543330013,633.704170291001,634.8345241660008,634.8345241660008,z,2.016670792001605,None,633.2247543330013,,,,,,,,,,ypth,001,2025-05-29_13h50.39.845,MainFlow,2024.1.5,None,2025-05-29 13h50.48.245043 +0700,
1,40,0,word/wordth0401.png,image/False/imgf40.png,0,81,81,81,636.866231041,,,,,,,638.3661085830008,637.8498731660002,637.8733724579997,637.8733724579997,638.3544868330009,639.4814734160009,639.4814734160009,x,2.2662775829994644,None,637.8733724579997,,,,,,,,,,ypth,001,2025-05-29_13h50.39.845,MainFlow,2024.1.5,None,2025-05-29 13h50.48.245043 +0700,
1,55,0,word/wordth0551.png,image/False/imgf55.png,0,82,82,82,641.7579225000009,,,,,,,643.2542756250004,642.737153041,642.7615110000006,642.7615110000006,643.2495446250014,644.3681045410012,644.3681045410012,x,9.949695291999888,None,,,,,,,,,,,ypth,001,2025-05-29_13h50.39.845,MainFlow,2024.1.5,None,2025-05-29 13h50.48.245043 +0700,
1,26,1,word/wordth0261.png,image/True/img26.png,0,83,83,83,654.3326559160014,,,,,,,655.832685708001,655.3164244580003,655.3405405000012,655.3405405000012,655.820515458001,656.9610766660007,656.9610766660007,x,7.555465041999923,None,655.3405405000012,,,,,,,,,,ypth,001,2025-05-29_13h50.39.845,MainFlow,2024.1.5,None,2025-05-29 13h50.48.245043 +0700,
1,28,0,word/wordth0281.png,image/False/imgf28.png,0,84,84,84,664.5327721249996,,,,,,,666.0326194580011,665.5164302080011,665.5416959579998,665.5416959579998,666.0207011660004,667.1444044580003,667.1444044580003,x,13.595693582999957,None,665.5416959579998,,,,,,,,,,ypth,001,2025-05-29_13h50.39.845,MainFlow,2024.1.5,None,2025-05-29 13h50.48.245043 +0700,
1,8,0,word/wordth0081.png,image/False/imgf08.png,0,85,85,85,680.7574793750009,,,,,,,682.2533992910012,681.737359666,681.7618306250006,681.7618306250006,682.2493342079997,683.350500083001,683.350500083001,x,2.3325932919997285,None,,,,,,,,,,,ypth,001,2025-05-29_13h50.39.845,MainFlow,2024.1.5,None,2025-05-29 13h50.48.245043 +0700,
1,9,1,word/wordth0091.png,image/True/img09.png,0,86,86,86,685.6992441250004,,,,,,,687.1993754160012,686.6829199160002,686.7065998750004,686.7065998750004,687.18708625,688.2827602500001,688.2827602500001,z,4.088796416999685,None,686.7065998750004,,,,,,,,,,ypth,001,2025-05-29_13h50.39.845,MainFlow,2024.1.5,None,2025-05-29 13h50.48.245043 +0700,
1,78,1,word/wordth0781.png,image/True/img78.png,0,87,87,87,692.3880766660004,,,,,,,693.8866956660004,693.370786458001,693.3946781249997,693.3946781249997,693.8825637500013,694.9881227500009,694.9881227500009,z,3.9443617920005636,None,693.3946781249997,,,,,,,,,,ypth,001,2025-05-29_13h50.39.845,MainFlow,2024.1.5,None,2025-05-29 13h50.48.245043 +0700,
1,1,0,word/wordth0011.png,image/False/imgf01.png,0,88,88,88,698.9411895000012,,,,,,,700.4366850000006,699.9204835830005,699.9441968330011,699.9441968330011,700.432490833,701.5439294999996,701.5439294999996,x,4.172514167001282,None,,,,,,,,,,,ypth,001,2025-05-29_13h50.39.845,MainFlow,2024.1.5,None,2025-05-29 13h50.48.245043 +0700,
1,71,1,word/wordth0711.png,image/True/img71.png,0,89,89,89,705.7324195410001,,,,,,,707.2323962500013,706.7162960000005,706.7411127080013,706.7411127080013,707.2203362910004,708.3593689999998,708.3593689999998,z,4.643746040999758,None,706.7411127080013,,,,,,,,,,ypth,001,2025-05-29_13h50.39.845,MainFlow,2024.1.5,None,2025-05-29 13h50.48.245043 +0700,
1,93,1,word/wordth0931.png,image/True/img93.png,0,90,90,90,713.0157981660013,,,,,,,714.5157650410001,713.9994589580001,714.0246765829997,714.0246765829997,714.5034712500001,715.6204438330005,715.6204438330005,z,5.303916167000352,None,714.0246765829997,,,,,,,,,,ypth,001,2025-05-29_13h50.39.845,MainFlow,2024.1.5,None,2025-05-29 13h50.48.245043 +0700,
1,78,0,word/wordth0781.png,image/False/imgf78.png,0,91,91,91,720.9407998330007,,,,,,,722.4322887500002,721.9204811660002,721.9439914579998,721.9439914579998,722.420802083001,723.535688375001,723.535688375001,x,1.4357678329997725,None,,,,,,,,,,,ypth,001,2025-05-29_13h50.39.845,MainFlow,2024.1.5,None,2025-05-29 13h50.48.245043 +0700,
1,8,0,word/wordth0081.png,image/False/imgf08.png,0,92,92,92,724.9878668750007,,,,,,,726.4865701660001,725.9705431250004,725.9945200000002,725.9945200000002,726.4823605410002,727.583742750001,727.583742750001,x,1.404285708000316,None,725.9945200000002,,,,,,,,,,ypth,001,2025-05-29_13h50.39.845,MainFlow,2024.1.5,None,2025-05-29 13h50.48.245043 +0700,
1,9,0,word/wordth0091.png,image/False/imgf09.png,0,93,93,93,729.0044651250009,,,,,,,730.5031262499997,729.987238791,730.0114344160011,730.0114344160011,730.4989611250003,731.59471175,731.59471175,x,1.401557708000837,None,730.0114344160011,,,,,,,,,,ypth,001,2025-05-29_13h50.39.845,MainFlow,2024.1.5,None,2025-05-29 13h50.48.245043 +0700,
1,75,1,word/wordth0751.png,image/True/img75.png,0,94,94,94,733.0069114159996,,,,,,,734.498858500001,733.9866379160012,734.0099282080009,734.0099282080009,734.4872448330007,735.6171951249999,735.6171951249999,z,2.9631845000003523,None,,,,,,,,,,,ypth,001,2025-05-29_13h50.39.845,MainFlow,2024.1.5,None,2025-05-29 13h50.48.245043 +0700,
1,95,0,word/wordth0951.png,image/False/imgf95.png,0,95,95,95,738.5907392910012,,,,,,,740.0821781249997,739.5701575410003,739.5941351660003,739.5941351660003,740.0703394160009,741.2088550410008,741.2088550410008,x,8.858815833000335,None,,,,,,,,,,,ypth,001,2025-05-29_13h50.39.845,MainFlow,2024.1.5,None,2025-05-29 13h50.48.245043 +0700,
1,70,1,word/wordth0701.png,image/True/img70.png,0,96,96,96,750.082305666001,,,,,,,751.5821991660014,751.0658796250009,751.0912521660011,751.0912521660011,751.5705257080008,752.7034122080004,752.7034122080004,z,8.931866041999456,None,751.0912521660011,,,,,,,,,,ypth,001,2025-05-29_13h50.39.845,MainFlow,2024.1.5,None,2025-05-29 13h50.48.245043 +0700,
1,94,0,word/wordth0941.png,image/False/imgf94.png,0,97,97,97,761.6486797500002,,,,,,,763.1487625000009,762.6325678330013,762.6585724160013,762.6585724160013,763.1366912080011,764.2801697499999,764.2801697499999,x,1.0752006670008996,None,762.6585724160013,,,,,,,,,,ypth,001,2025-05-29_13h50.39.845,MainFlow,2024.1.5,None,2025-05-29 13h50.48.245043 +0700,
1,9,0,word/wordth0091.png,image/False/imgf09.png,0,98,98,98,765.3737904160007,,,,,,,766.8696956660006,766.353737458001,766.3785860000007,766.3785860000007,766.8654555000012,767.9583177910008,767.9583177910008,x,2.989540582999325,None,,,,,,,,,,,ypth,001,2025-05-29_13h50.39.845,MainFlow,2024.1.5,None,2025-05-29 13h50.48.245043 +0700,
1,18,0,word/wordth0181.png,image/False/imgf18.png,0,99,99,99,770.9568242080004,,,,,,,772.453079416,771.9369874580007,771.960732083,771.960732083,772.4487559160007,773.5678577500003,773.5678577500003,x,3.9716478339996684,None,,,,,,,,,,,ypth,001,2025-05-29_13h50.39.845,MainFlow,2024.1.5,None,2025-05-29 13h50.48.245043 +0700,
1,28,1,word/wordth0281.png,image/True/img28.png,0,100,100,100,777.5570934160005,,,,,,,779.0530034160001,778.5368009160011,778.5608568750013,778.5608568750013,779.0487482910012,780.1821516660002,780.1821516660002,z,3.3182051250005316,None,,,,,,,,,,,ypth,001,2025-05-29_13h50.39.845,MainFlow,2024.1.5,None,2025-05-29 13h50.48.245043 +0700,
1,23,1,word/wordth0231.png,image/True/img23.png,0,101,101,101,783.5152823330009,,,,,,,785.0153095410005,784.4989484580001,784.5239196250004,784.5239196250004,785.0032183750009,786.1284732500008,786.1284732500008,z,3.9075256670003,None,784.5239196250004,,,,,,,,,,ypth,001,2025-05-29_13h50.39.845,MainFlow,2024.1.5,None,2025-05-29 13h50.48.245043 +0700,
1,30,0,word/wordth0301.png,image/False/imgf30.png,0,102,102,102,790.0486012500005,,,,,,,791.548557125001,791.032351625001,791.0565075410013,791.0565075410013,791.5365778329997,792.658978083,792.658978083,x,2.7048967919999996,None,791.0565075410013,,,,,,,,,,ypth,001,2025-05-29_13h50.39.845,MainFlow,2024.1.5,None,2025-05-29 13h50.48.245043 +0700,
1,11,1,word/wordth0111.png,image/True/img11.png,0,103,103,103,795.3737361250005,,,,,,,796.8652552500007,796.3530019580012,796.3776870410002,796.3776870410002,796.8531158330006,798.006155000001,798.006155000001,z,1.8773818329991627,None,,,,,,,,,,,ypth,001,2025-05-29_13h50.39.845,MainFlow,2024.1.5,None,2025-05-29 13h50.48.245043 +0700,
1,75,0,word/wordth0751.png,image/False/imgf75.png,0,104,104,104,799.8985515830009,,,,,,,801.39836775,800.882437708,800.9073852910005,800.9073852910005,801.3864542080009,802.5132717079996,802.5132717079996,x,3.819257084000128,None,800.9073852910005,,,,,,,,,,ypth,001,2025-05-29_13h50.39.845,MainFlow,2024.1.5,None,2025-05-29 13h50.48.245043 +0700,
1,6,0,word/wordth0061.png,image/False/imgf06.png,0,105,105,105,806.348387041,,,,,,,807.8485720000008,807.332262291,807.3568679580003,807.3568679580003,807.836311291001,808.9465422499998,808.9465422499998,x,2.729690666999886,None,807.3568679580003,,,,,,,,,,ypth,001,2025-05-29_13h50.39.845,MainFlow,2024.1.5,None,2025-05-29 13h50.48.245043 +0700,
1,27,1,word/wordth0271.png,image/True/img27.png,0,106,106,106,811.6899318750002,,,,,,,813.1817842910004,812.669451791,812.693457708001,812.693457708001,813.1695204999996,814.2920079160012,814.2920079160012,z,1.287963208000292,None,,,,,,,,,,,ypth,001,2025-05-29_13h50.39.845,MainFlow,2024.1.5,None,2025-05-29 13h50.48.245043 +0700,
1,1,1,word/wordth0011.png,image/True/img01.png,0,107,107,107,815.5902596249998,,,,,,,817.0859971660011,816.5696252500002,816.5940012080009,816.5940012080009,817.081924166001,818.2088075829997,818.2088075829997,z,4.490486917000453,None,,,,,,,,,,,ypth,001,2025-05-29_13h50.39.845,MainFlow,2024.1.5,None,2025-05-29 13h50.48.245043 +0700,
1,44,0,word/wordth0441.png,image/False/imgf44.png,0,108,108,108,822.7150735409996,,,,,,,824.2150694580014,823.6987791660013,823.7236850410009,823.7236850410009,824.2035205000011,825.3464995410013,825.3464995410013,x,1.0814414590004162,None,823.7236850410009,,,,,,,,,,ypth,001,2025-05-29_13h50.39.845,MainFlow,2024.1.5,None,2025-05-29 13h50.48.245043 +0700,
1,48,0,word/wordth0481.png,image/False/imgf48.png,0,109,109,109,826.4403477080014,,,,,,,827.93172375,827.4196206659999,827.4430972500013,827.4430972500013,827.9196719580013,829.0690199580004,829.0690199580004,x,1.2861085420008749,None,,,,,,,,,,,ypth,001,2025-05-29_13h50.39.845,MainFlow,2024.1.5,None,2025-05-29 13h50.48.245043 +0700,
1,60,0,word/wordth0601.png,image/False/imgf60.png,0,110,110,110,830.3727618330013,,,,,,,831.8693032080009,831.3531657080002,831.3773717500007,831.3773717500007,831.8651170829999,832.9805790829996,832.9805790829996,x,0.92680745799953,None,,,,,,,,,,,ypth,001,2025-05-29_13h50.39.845,MainFlow,2024.1.5,None,2025-05-29 13h50.48.245043 +0700,
1,96,1,word/wordth0961.png,image/True/img96.png,0,111,111,111,833.923806666,,,,,,,835.4149792500011,834.9032273330013,834.9282932500009,834.9282932500009,835.4033380000001,836.5379795830013,836.5379795830013,z,2.0114052909993916,None,,,,,,,,,,,ypth,001,2025-05-29_13h50.39.845,MainFlow,2024.1.5,None,2025-05-29 13h50.48.245043 +0700,
1,79,0,word/wordth0791.png,image/False/imgf79.png,0,112,112,112,838.5650270410006,,,,,,,840.0649755410013,839.5486048750008,839.571883083001,839.571883083001,840.0529305,841.1875967080014,841.1875967080014,x,1.9453352500004257,None,839.571883083001,,,,,,,,,,ypth,001,2025-05-29_13h50.39.845,MainFlow,2024.1.5,None,2025-05-29 13h50.48.245043 +0700,
1,7,0,word/wordth0071.png,image/False/imgf07.png,0,113,113,113,843.1483851660014,,,,,,,844.6482682500009,844.1320237910004,844.1564796660005,844.1564796660005,844.6366396249996,845.7621685000013,845.7621685000013,x,5.49685808400136,None,844.1564796660005,,,,,,,,,,ypth,001,2025-05-29_13h50.39.845,MainFlow,2024.1.5,None,2025-05-29 13h50.48.245043 +0700,
1,36,0,word/wordth0361.png,image/False/imgf36.png,0,114,114,114,851.2732381250007,,,,,,,852.7691506660012,852.2531354160001,852.2769292080011,852.2769292080011,852.764941458001,853.8851283330005,853.8851283330005,x,1.1341733339995699,None,,,,,,,,,,,ypth,001,2025-05-29_13h50.39.845,MainFlow,2024.1.5,None,2025-05-29 13h50.48.245043 +0700,
1,71,0,word/wordth0711.png,image/False/imgf71.png,0,115,115,115,855.0312088749997,,,,,,,856.5315851659998,856.0152864580014,856.0398197909999,856.0398197909999,856.5193910830003,857.6673025,857.6673025,x,1.48760408400085,None,856.0398197909999,,,,,,,,,,ypth,001,2025-05-29_13h50.39.845,MainFlow,2024.1.5,None,2025-05-29 13h50.48.245043 +0700,
1,20,0,word/wordth0201.png,image/False/imgf20.png,0,116,116,116,859.1705327500003,,,,,,,860.6675789580004,860.1525735000014,860.1773886250012,860.1773886250012,860.6641709579999,861.8093132499998,861.8093132499998,x,1.0824438750005356,None,,,,,,,,,,,ypth,001,2025-05-29_13h50.39.845,MainFlow,2024.1.5,None,2025-05-29 13h50.48.245043 +0700,
1,87,1,word/wordth0871.png,image/True/img87.png,0,117,117,117,862.9056255830001,,,,,,,864.3982329580012,863.8860265830008,863.9114215830014,863.9114215830014,864.3861535409997,865.5224475410014,865.5224475410014,x,2.9525607079995098,None,,,,,,,,,,,ypth,001,2025-05-29_13h50.39.845,MainFlow,2024.1.5,None,2025-05-29 13h50.48.245043 +0700,
1,50,0,word/wordth0501.png,image/False/imgf50.png,0,118,118,118,868.4903330830002,,,,,,,869.9815416660003,869.4691087080009,869.4940005000008,869.4940005000008,869.9694662500006,871.0949775410008,871.0949775410008,x,6.779955625001094,None,,,,,,,,,,,ypth,001,2025-05-29_13h50.39.845,MainFlow,2024.1.5,None,2025-05-29 13h50.48.245043 +0700,
1,18,1,word/wordth0181.png,image/True/img18.png,0,119,119,119,877.8900410410006,,,,,,,879.385684750001,878.8697375410011,878.893492833,878.893492833,879.3814924580001,880.485117708,880.485117708,z,1.1268467499994586,None,,,,,,,,,,,ypth,001,2025-05-29_13h50.39.845,MainFlow,2024.1.5,None,2025-05-29 13h50.48.245043 +0700,
1,71,0,word/wordth0711.png,image/False/imgf71.png,0,120,120,120,881.6230455000004,,,,,,,883.1193630830003,882.6025348330004,882.6262254579997,882.6262254579997,883.1147072080003,884.2530813330013,884.2530813330013,x,2.5740417079996405,None,,,,,,,,,,,ypth,001,2025-05-29_13h50.39.845,MainFlow,2024.1.5,None,2025-05-29 13h50.48.245043 +0700,
1,46,1,word/wordth0461.png,image/True/img46.png,0,121,121,121,886.839752541,,,,,,,888.3313629580007,887.8191746250013,887.8425002080003,887.8425002080003,888.3192787500011,889.4694227500004,889.4694227500004,x,5.726928833000784,None,,,,,,,,,,,ypth,001,2025-05-29_13h50.39.845,MainFlow,2024.1.5,None,2025-05-29 13h50.48.245043 +0700,
1,10,1,word/wordth0101.png,image/True/img10.png,0,122,122,122,895.2064937499999,,,,,,,896.6979730000003,896.1856826660005,896.2091037910013,896.2091037910013,896.6858451250009,897.8070636660013,897.8070636660013,z,1.500721500000509,None,,,,,,,,,,,ypth,001,2025-05-29_13h50.39.845,MainFlow,2024.1.5,None,2025-05-29 13h50.48.245043 +0700,
1,16,0,word/wordth0161.png,image/False/imgf16.png,0,123,123,123,899.3230387910007,,,,,,,900.8193453330005,900.3029357080013,900.3280403330009,900.3280403330009,900.8146727910007,901.9417067080012,901.9417067080012,x,3.6779432500006806,None,,,,,,,,,,,ypth,001,2025-05-29_13h50.39.845,MainFlow,2024.1.5,None,2025-05-29 13h50.48.245043 +0700,
1,15,0,word/wordth0151.png,image/False/imgf15.png,0,124,124,124,905.6303452499997,,,,,,,907.1312601250011,906.6149614580008,906.6399499159998,906.6399499159998,907.1193388330012,908.2430530830006,908.2430530830006,x,1.0894061670005613,None,906.6399499159998,,,,,,,,,,ypth,001,2025-05-29_13h50.39.845,MainFlow,2024.1.5,None,2025-05-29 13h50.48.245043 +0700,
1,59,0,word/wordth0591.png,image/False/imgf59.png,0,125,125,125,909.3478388750009,,,,,,,910.8479596249999,910.3315382500004,910.3558060409996,910.3558060409996,910.8356899999999,911.9388524160004,911.9388524160004,x,3.328138916000171,None,910.3558060409996,,,,,,,,,,ypth,001,2025-05-29_13h50.39.845,MainFlow,2024.1.5,None,2025-05-29 13h50.48.245043 +0700,
1,11,0,word/wordth0111.png,image/False/imgf11.png,0,126,126,126,915.2812031659996,,,,,,,916.7803456250003,916.2647053750006,916.2897523330012,916.2897523330012,916.768602958,917.8998498750007,917.8998498750007,x,2.046672166001372,None,916.2897523330012,,,,,,,,,,ypth,001,2025-05-29_13h50.39.845,MainFlow,2024.1.5,None,2025-05-29 13h50.48.245043 +0700,
1,75,1,word/wordth0751.png,image/True/img75.png,0,127,127,127,919.9526332500009,,,,,,,921.4478115830007,920.9316259160005,920.9561753329999,920.9561753329999,921.4357464580007,922.5612277079999,922.5612277079999,z,2.273562791000586,None,,,,,,,,,,,ypth,001,2025-05-29_13h50.39.845,MainFlow,2024.1.5,None,2025-05-29 13h50.48.245043 +0700,
1,33,1,word/wordth0331.png,image/True/img33.png,0,128,128,128,924.847605541001,,,,,,,926.3477892080009,925.8315661249999,925.8563417080004,925.8563417080004,926.3357171250009,927.4629967910005,927.4629967910005,z,1.7079001669990248,None,925.8563417080004,,,,,,,,,,ypth,001,2025-05-29_13h50.39.845,MainFlow,2024.1.5,None,2025-05-29 13h50.48.245043 +0700,
1,66,0,word/wordth0661.png,image/False/imgf66.png,0,129,129,129,929.1866454999999,,,,,,,930.6853778330005,930.1690751660008,930.1924738329999,930.1924738329999,930.681154666001,931.8017524160005,931.8017524160005,x,1.1303297499998735,None,,,,,,,,,,,ypth,001,2025-05-29_13h50.39.845,MainFlow,2024.1.5,None,2025-05-29 13h50.48.245043 +0700,
1,38,1,word/wordth0381.png,image/True/img38.png,0,130,130,130,932.9477690830008,,,,,,,934.4477822500012,933.9313752500002,933.9558514159999,933.9558514159999,934.4364298750006,935.5563695000001,935.5563695000001,z,1.2146553750008025,None,933.9558514159999,,,,,,,,,,ypth,001,2025-05-29_13h50.39.845,MainFlow,2024.1.5,None,2025-05-29 13h50.48.245043 +0700,
1,38,1,word/wordth0381.png,image/True/img38.png,0,131,131,131,936.7890571660009,,,,,,,938.2856996250011,937.7694524580002,937.7943664579998,937.7943664579998,938.2810957910006,939.4014883750006,939.4014883750006,z,1.0980667500007257,None,,,,,,,,,,,ypth,001,2025-05-29_13h50.39.845,MainFlow,2024.1.5,None,2025-05-29 13h50.48.245043 +0700,
1,63,1,word/wordth0631.png,image/True/img63.png,0,132,132,132,940.5145259159999,,,,,,,942.0144795409997,941.4979901660008,941.5219357500009,941.5219357500009,942.0028204999999,943.1333717079997,943.1333717079997,z,1.1497366669991607,None,941.5219357500009,,,,,,,,,,ypth,001,2025-05-29_13h50.39.845,MainFlow,2024.1.5,None,2025-05-29 13h50.48.245043 +0700,
1,33,0,word/wordth0331.png,image/False/imgf33.png,0,133,133,133,944.2975365410002,,,,,,,945.797811583001,945.281591125,945.3060537910005,945.3060537910005,945.7852731250005,946.9176007080005,946.9176007080005,x,1.173999417000232,None,945.3060537910005,,,,,,,,,,ypth,001,2025-05-29_13h50.39.845,MainFlow,2024.1.5,None,2025-05-29 13h50.48.245043 +0700,
1,52,1,word/wordth0521.png,image/True/img52.png,0,134,134,134,948.1063506250011,,,,,,,949.5976995830006,949.0853587910005,949.1085043750008,949.1085043750008,949.5854558749998,950.7264291660013,950.7264291660013,z,0.9889766670003155,None,,,,,,,,,,,ypth,001,2025-05-29_13h50.39.845,MainFlow,2024.1.5,None,2025-05-29 13h50.48.245043 +0700,
1,11,0,word/wordth0111.png,image/False/imgf11.png,0,135,135,135,951.7311060000011,,,,,,,953.230955291001,952.7148002909998,952.739750916,952.739750916,953.2188356250008,954.3598182080004,954.3598182080004,x,0.8752752910004347,None,952.739750916,,,,,,,,,,ypth,001,2025-05-29_13h50.39.845,MainFlow,2024.1.5,None,2025-05-29 13h50.48.245043 +0700,
1,1,0,word/wordth0011.png,image/False/imgf01.png,0,136,136,136,955.247591333,,,,,,,956.7478005000012,956.2313557079997,956.2556793750009,956.2556793750009,956.7354807499996,957.8535703750003,957.8535703750003,x,4.0541835830008495,None,956.2556793750009,,,,,,,,,,ypth,001,2025-05-29_13h50.39.845,MainFlow,2024.1.5,None,2025-05-29 13h50.48.245043 +0700,
1,96,0,word/wordth0961.png,image/False/imgf96.png,0,137,137,137,961.9226367909996,,,,,,,963.4142743749999,962.902546708001,962.9271677500001,962.9271677500001,963.4028098750005,964.5384052910013,964.5384052910013,x,1.472806584000864,None,,,,,,,,,,,ypth,001,2025-05-29_13h50.39.845,MainFlow,2024.1.5,None,2025-05-29 13h50.48.245043 +0700,
1,57,1,word/wordth0571.png,image/True/img57.png,0,138,138,138,966.0227421250001,,,,,,,967.5142902500011,967.0019292079996,967.0247776659999,967.0247776659999,967.5027260410006,968.6409667500011,968.6409667500011,z,1.0498316659995908,None,,,,,,,,,,,ypth,001,2025-05-29_13h50.39.845,MainFlow,2024.1.5,None,2025-05-29 13h50.48.245043 +0700,
1,30,1,word/wordth0301.png,image/True/img30.png,0,139,139,139,969.7059359160012,,,,,,,971.1973502500005,970.6853692910008,970.710247250001,970.710247250001,971.1858874160007,972.3042019160002,972.3042019160002,z,0.9545370000014373,None,,,,,,,,,,,ypth,001,2025-05-29_13h50.39.845,MainFlow,2024.1.5,None,2025-05-29 13h50.48.245043 +0700,
1,41,1,word/wordth0411.png,image/True/img41.png,0,140,140,140,973.2726000410003,,,,,,,974.7642841659999,974.2520771660002,974.275850166001,974.275850166001,974.7526247500009,975.8926968329997,975.8926968329997,z,5.62272883300102,None,,,,,,,,,,,ypth,001,2025-05-29_13h50.39.845,MainFlow,2024.1.5,None,2025-05-29 13h50.48.245043 +0700,
1,50,1,word/wordth0501.png,image/True/img50.png,0,141,141,141,981.5299112499997,,,,,,,983.0302205830012,982.514638916,982.5394881250013,982.5394881250013,983.0182565409996,984.1458974160014,984.1458974160014,z,0.9459907920008845,None,982.5394881250013,,,,,,,,,,ypth,001,2025-05-29_13h50.39.845,MainFlow,2024.1.5,None,2025-05-29 13h50.48.245043 +0700,
1,3,0,word/wordth0031.png,image/False/imgf03.png,0,142,142,142,985.1061655829999,,,,,,,986.6016569580006,986.085803416001,986.1100810410007,986.1100810410007,986.5975077910007,987.7232571250006,987.7232571250006,x,3.4413893750006537,None,,,,,,,,,,,ypth,001,2025-05-29_13h50.39.845,MainFlow,2024.1.5,None,2025-05-29 13h50.48.245043 +0700,
1,78,1,word/wordth0781.png,image/True/img78.png,0,143,143,143,991.180766083,,,,,,,992.6808897080009,992.1643824160001,992.1897927910013,992.1897927910013,992.6689879580008,993.785680166,993.785680166,z,2.8741054170004645,None,992.1897927910013,,,,,,,,,,ypth,001,2025-05-29_13h50.39.845,MainFlow,2024.1.5,None,2025-05-29 13h50.48.245043 +0700,
1,76,0,word/wordth0761.png,image/False/imgf76.png,0,144,144,144,996.6723753330007,,,,,,,998.1641049160007,997.6518319160004,997.6758424159998,997.6758424159998,998.1519965830012,999.2981599160012,999.2981599160012,x,1.0333692910007812,None,,,,,,,,,,,ypth,001,2025-05-29_13h50.39.845,MainFlow,2024.1.5,None,2025-05-29 13h50.48.245043 +0700,
1,6,1,word/wordth0061.png,image/True/img06.png,0,145,145,145,1000.3474312079998,,,,,,,1001.8474277500009,1001.3311460000004,1001.355181416,1001.355181416,1001.8356248330001,1002.9472467080013,1002.9472467080013,z,1.0081472500005475,None,1001.355181416,,,,,,,,,,ypth,001,2025-05-29_13h50.39.845,MainFlow,2024.1.5,None,2025-05-29 13h50.48.245043 +0700,
1,31,0,word/wordth0311.png,image/False/imgf31.png,0,146,146,146,1003.9721284999996,,,,,,,1005.4639725830002,1004.9517617500005,1004.9755814159998,1004.9755814159998,1005.4518981660003,1006.5538327909999,1006.5538327909999,x,4.658348249999108,None,,,,,,,,,,,ypth,001,2025-05-29_13h50.39.845,MainFlow,2024.1.5,None,2025-05-29 13h50.48.245043 +0700,
1,22,0,word/wordth0221.png,image/False/imgf22.png,0,147,147,147,1011.2220618749998,,,,,,,1012.7182077910002,1012.2021641660012,1012.2266258750005,1012.2266258750005,1012.7140523329999,1013.8450983750008,1013.8450983750008,x,3.821541541999977,None,,,,,,,,,,,ypth,001,2025-05-29_13h50.39.845,MainFlow,2024.1.5,None,2025-05-29 13h50.48.245043 +0700,
1,28,0,word/wordth0281.png,image/False/imgf28.png,0,148,148,148,1017.6804006660004,,,,,,,1019.1806633329998,1018.6643008330011,1018.6888443330008,1018.6888443330008,1019.169204916001,1020.293517166001,1020.293517166001,x,1.1102734579999378,None,1018.6888443330008,,,,,,,,,,ypth,001,2025-05-29_13h50.39.845,MainFlow,2024.1.5,None,2025-05-29 13h50.48.245043 +0700,
1,57,0,word/wordth0571.png,image/False/imgf57.png,0,149,149,149,1021.4219877080013,,,,,,,1022.918146,1022.4021457910003,1022.4254964580014,1022.4254964580014,1022.9139879160011,1024.041695291,1024.041695291,x,0.7774104169984639,None,,,,,,,,,,,ypth,001,2025-05-29_13h50.39.845,MainFlow,2024.1.5,None,2025-05-29 13h50.48.245043 +0700,
1,7,0,word/wordth0071.png,image/False/imgf07.png,0,150,150,150,1024.8354020000006,,,,,,,1026.3305882080003,1025.8141985000002,1025.8378702910013,1025.8378702910013,1026.3189769580003,1027.4456267500009,1027.4456267500009,z,0.8940038750006352,None,,,,,,,,,,,ypth,001,2025-05-29_13h50.39.845,MainFlow,2024.1.5,None,2025-05-29 13h50.48.245043 +0700,
1,56,1,word/wordth0561.png,image/True/img56.png,0,151,151,151,1028.3553755829998,,,,,,,1029.8472934580004,1029.334823000001,1029.358682041,1029.358682041,1029.8352426660003,1030.9623577500006,1030.9623577500006,x,8.634140333000687,None,,,,,,,,,,,ypth,001,2025-05-29_13h50.39.845,MainFlow,2024.1.5,None,2025-05-29 13h50.48.245043 +0700,
1,6,0,word/wordth0061.png,image/False/imgf06.png,0,152,152,152,1039.6054949580011,,,,,,,1041.1010685830006,1040.5853511250007,1040.608500708,1040.608500708,1041.0970584160004,1042.1989147910008,1042.1989147910008,x,2.148835041998609,None,,,,,,,,,,,ypth,001,2025-05-29_13h50.39.845,MainFlow,2024.1.5,None,2025-05-29 13h50.48.245043 +0700,
1,36,0,word/wordth0361.png,image/False/imgf36.png,0,153,153,153,1044.3638835410002,,,,,,,1045.8638206249998,1045.3475733329997,1045.372248791,1045.372248791,1045.8516639160007,1046.9803730410003,1046.9803730410003,x,2.0786246249990654,None,1045.372248791,,,,,,,,,,ypth,001,2025-05-29_13h50.39.845,MainFlow,2024.1.5,None,2025-05-29 13h50.48.245043 +0700,
1,79,1,word/wordth0791.png,image/True/img79.png,0,154,154,154,1049.0721522080003,,,,,,,1050.563916250001,1050.0515692910012,1050.0746737910013,1050.0746737910013,1050.552072583001,1051.6851752500006,1051.6851752500006,z,1.549702416999935,None,,,,,,,,,,,ypth,001,2025-05-29_13h50.39.845,MainFlow,2024.1.5,None,2025-05-29 13h50.48.245043 +0700,
1,52,0,word/wordth0521.png,image/False/imgf52.png,0,155,155,155,1053.2471703749998,,,,,,,1054.7470513750013,1054.230916583001,1054.2536540830006,1054.2536540830006,1054.7349923330003,1055.8523582500002,1055.8523582500002,x,0.7273965419990418,None,1054.2536540830006,,,,,,,,,,ypth,001,2025-05-29_13h50.39.845,MainFlow,2024.1.5,None,2025-05-29 13h50.48.245043 +0700,
1,18,0,word/wordth0181.png,image/False/imgf18.png,0,156,156,156,1056.5881641659998,,,,,,,1058.0803667910004,1057.5641732910008,1057.5893676249998,1057.5893676249998,1058.0687489580014,1059.1950694999996,1059.1950694999996,x,15.488110416001291,None,,,,,,,,,,,ypth,001,2025-05-29_13h50.39.845,MainFlow,2024.1.5,None,2025-05-29 13h50.48.245043 +0700,
1,23,1,word/wordth0231.png,image/True/img23.png,0,157,157,157,1074.6967872080004,,,,,,,1076.196939083,1075.680660041,1075.7053726249997,1075.7053726249997,1076.184782458,1077.3118046660002,1077.3118046660002,z,1.0527755830007663,None,1075.7053726249997,,,,,,,,,,ypth,001,2025-05-29_13h50.39.845,MainFlow,2024.1.5,None,2025-05-29 13h50.48.245043 +0700,
1,61,1,word/wordth0611.png,image/True/img61.png,0,158,158,158,1078.3803366250013,,,,,,,1079.8803311250012,1079.3640914999996,1079.3897471250002,1079.3897471250002,1079.8682380829996,1080.9928358329998,1080.9928358329998,z,2.4584794170004898,None,1079.3897471250002,,,,,,,,,,ypth,001,2025-05-29_13h50.39.845,MainFlow,2024.1.5,None,2025-05-29 13h50.48.245043 +0700,
1,44,1,word/wordth0441.png,image/True/img44.png,0,159,159,159,1083.463540875,,,,,,,1084.9635974579996,1084.4473580000013,1084.4723395,1084.4723395,1084.9518597080005,1086.0706958749997,1086.0706958749997,z,1.5082680420000543,None,1084.4723395,,,,,,,,,,ypth,001,2025-05-29_13h50.39.845,MainFlow,2024.1.5,None,2025-05-29 13h50.48.245043 +0700,
1,10,1,word/wordth0101.png,image/True/img10.png,0,160,160,160,1087.5885853750005,,,,,,,1089.0801621660012,1088.5682131659996,1088.591776958001,1088.591776958001,1089.068647041,1090.1903468750006,1090.1903468750006,z,1.1488784579996718,None,,,,,,,,,,,ypth,001,2025-05-29_13h50.39.845,MainFlow,2024.1.5,None,2025-05-29 13h50.48.245043 +0700,
1,31,1,word/wordth0311.png,image/True/img31.png,0,161,161,161,1091.3555050410014,,,,,,,1092.851202541,1092.3349867910001,1092.3589916250003,1092.3589916250003,1092.8470459159998,1093.9599905000014,1093.9599905000014,z,0.755679500000042,None,,,,,,,,,,,ypth,001,2025-05-29_13h50.39.845,MainFlow,2024.1.5,None,2025-05-29 13h50.48.245043 +0700,
1,14,0,word/wordth0141.png,image/False/imgf14.png,0,162,162,162,1094.7300293330009,,,,,,,1096.230187000001,1095.713942583001,1095.7381877080006,1095.7381877080006,1096.2181092910014,1097.3469008330012,1097.3469008330012,x,1.1999203329996817,None,1095.7381877080006,,,,,,,,,,ypth,001,2025-05-29_13h50.39.845,MainFlow,2024.1.5,None,2025-05-29 13h50.48.245043 +0700,
1,15,0,word/wordth0151.png,image/False/imgf15.png,0,163,163,163,1098.5552236660005,,,,,,,1100.0510498330004,1099.534808458,1099.5593392910014,1099.5593392910014,1100.0468230000006,1101.1603774160012,1101.1603774160012,x,1.0832852909989015,None,,,,,,,,,,,ypth,001,2025-05-29_13h50.39.845,MainFlow,2024.1.5,None,2025-05-29 13h50.48.245043 +0700,
1,51,1,word/wordth0511.png,image/True/img51.png,0,164,164,164,1102.2551698750012,,,,,,,1103.7508775000006,1103.2349515000005,1103.2598685829998,1103.2598685829998,1103.7467412080005,1104.8712523329996,1104.8712523329996,z,4.843821292000939,None,,,,,,,,,,,ypth,001,2025-05-29_13h50.39.845,MainFlow,2024.1.5,None,2025-05-29 13h50.48.245043 +0700,
1,82,1,word/wordth0821.png,image/True/img82.png,0,165,165,165,1109.7300790410009,,,,,,,1111.230062916,1110.713747625001,1110.7366504580004,1110.7366504580004,1111.2178979580003,1112.3180111660004,1112.3180111660004,z,1.0682576250001148,None,1110.7366504580004,,,,,,,,,,ypth,001,2025-05-29_13h50.39.845,MainFlow,2024.1.5,None,2025-05-29 13h50.48.245043 +0700,
1,27,0,word/wordth0271.png,image/False/imgf27.png,0,166,166,166,1113.4022940410014,,,,,,,1114.9016323750002,1114.3849291660008,1114.4086191250008,1114.4086191250008,1114.8968942909996,1116.009867416,1116.009867416,x,5.657055791998573,None,,,,,,,,,,,ypth,001,2025-05-29_13h50.39.845,MainFlow,2024.1.5,None,2025-05-29 13h50.48.245043 +0700,
1,78,0,word/wordth0781.png,image/False/imgf78.png,0,167,167,167,1121.6799657909996,,,,,,,1123.1800356250005,1122.6637132080014,1122.6876564579998,1122.6876564579998,1123.1677424580012,1124.279613666,1124.279613666,x,1.6850741670004936,None,1122.6876564579998,,,,,,,,,,ypth,001,2025-05-29_13h50.39.845,MainFlow,2024.1.5,None,2025-05-29 13h50.48.245043 +0700,
1,89,1,word/wordth0891.png,image/True/img89.png,0,168,168,168,1125.9800985000002,,,,,,,1127.4799492500006,1126.9637967079998,1126.9889112500005,1126.9889112500005,1127.4679434160007,1128.5792899999997,1128.5792899999997,z,2.734667624999929,None,1126.9889112500005,,,,,,,,,,ypth,001,2025-05-29_13h50.39.845,MainFlow,2024.1.5,None,2025-05-29 13h50.48.245043 +0700,
1,76,1,word/wordth0761.png,image/True/img76.png,0,169,169,169,1131.3300465000011,,,,,,,1132.8299903330008,1132.313625625,1132.3383044580005,1132.3383044580005,1132.8179355410011,1133.9435320829998,1133.9435320829998,z,5.868589959000019,None,1132.3383044580005,,,,,,,,,,ypth,001,2025-05-29_13h50.39.845,MainFlow,2024.1.5,None,2025-05-29 13h50.48.245043 +0700,
1,17,0,word/wordth0171.png,image/False/imgf17.png,0,170,170,170,1139.8216592910012,,,,,,,1141.313265875,1140.8012711250012,1140.8246202080009,1140.8246202080009,1141.3017165410001,1142.4392438329996,1142.4392438329996,z,1.2753505829987262,None,,,,,,,,,,,ypth,001,2025-05-29_13h50.39.845,MainFlow,2024.1.5,None,2025-05-29 13h50.48.245043 +0700,
1,95,1,word/wordth0951.png,image/True/img95.png,0,171,171,171,1143.7298273750002,,,,,,,1145.2299029580008,1144.713694125001,1144.737906708,1144.737906708,1145.2176889580005,1146.3626184580007,1146.3626184580007,z,5.592603417000646,None,1144.737906708,,,,,,,,,,ypth,001,2025-05-29_13h50.39.845,MainFlow,2024.1.5,None,2025-05-29 13h50.48.245043 +0700,
1,61,0,word/wordth0611.png,image/False/imgf61.png,0,172,172,172,1151.9718339580013,,,,,,,1153.4674620410005,1152.9515244579998,1152.975191208001,1152.975191208001,1153.463199666001,1154.5922475410007,1154.5922475410007,x,3.43520291599998,None,,,,,,,,,,,ypth,001,2025-05-29_13h50.39.845,MainFlow,2024.1.5,None,2025-05-29 13h50.48.245043 +0700,
1,82,1,word/wordth0821.png,image/True/img82.png,0,173,173,173,1158.037909083001,,,,,,,1159.5340880830008,1159.0182962079998,1159.0425348750014,1159.0425348750014,1159.529901041,1160.6207359159998,1160.6207359159998,z,0.8072015420002572,None,,,,,,,,,,,ypth,001,2025-05-29_13h50.39.845,MainFlow,2024.1.5,None,2025-05-29 13h50.48.245043 +0700,
1,14,1,word/wordth0141.png,image/True/img14.png,0,174,174,174,1161.4381407910005,,,,,,,1162.9295102080014,1162.4135642500005,1162.437665208001,1162.437665208001,1162.916831583001,1164.0499334160013,1164.0499334160013,z,0.8646602089993394,None,,,,,,,,,,,ypth,001,2025-05-29_13h50.39.845,MainFlow,2024.1.5,None,2025-05-29 13h50.48.245043 +0700,
1,38,0,word/wordth0381.png,image/False/imgf38.png,0,175,175,175,1164.9298492910002,,,,,,,1166.429778541,1165.9136433330004,1165.9390657080003,1165.9390657080003,1166.417638791001,1167.569772500001,1167.569772500001,x,2.2014919580014976,None,1165.9390657080003,,,,,,,,,,ypth,001,2025-05-29_13h50.39.845,MainFlow,2024.1.5,None,2025-05-29 13h50.48.245043 +0700,
1,17,0,word/wordth0171.png,image/False/imgf17.png,0,176,176,176,1169.7877530410005,,,,,,,1171.279699666,1170.7674383330013,1170.790888208001,1170.790888208001,1171.2676229160006,1172.4033540830005,1172.4033540830005,z,0.9117870409991156,None,,,,,,,,,,,ypth,001,2025-05-29_13h50.39.845,MainFlow,2024.1.5,None,2025-05-29 13h50.48.245043 +0700,
1,42,0,word/wordth0421.png,image/False/imgf42.png,0,177,177,177,1173.3296312910006,,,,,,,1174.8295767910004,1174.313539750001,1174.3385952080007,1174.3385952080007,1174.817658416001,1175.9589313329998,1175.9589313329998,x,4.660425332998784,None,1174.3385952080007,,,,,,,,,,ypth,001,2025-05-29_13h50.39.845,MainFlow,2024.1.5,None,2025-05-29 13h50.48.245043 +0700,
1,24,1,word/wordth0241.png,image/True/img24.png,0,178,178,178,1180.6350673329998,,,,,,,1182.1295879999998,1181.6175484160012,1181.641625708,1181.641625708,1182.1181148750002,1183.2227058750013,1183.2227058750013,z,1.763532375000068,None,,,,,,,,,,,ypth,001,2025-05-29_13h50.39.845,MainFlow,2024.1.5,None,2025-05-29 13h50.48.245043 +0700,
1,51,1,word/wordth0511.png,image/True/img51.png,0,179,179,179,1185.0051528330005,,,,,,,1186.501096291,1185.984501500001,1186.0082858330006,1186.0082858330006,1186.496441833,1187.620906,1187.620906,z,0.7982080000001588,None,,,,,,,,,,,ypth,001,2025-05-29_13h50.39.845,MainFlow,2024.1.5,None,2025-05-29 13h50.48.245043 +0700,
1,24,0,word/wordth0241.png,image/False/imgf24.png,0,180,180,180,1188.435240625,,,,,,,1189.9339107080013,1189.4179385830012,1189.4414324580011,1189.4414324580011,1189.9297300409999,1191.0381500410003,1191.0381500410003,x,8.525739832999534,None,1189.4414324580011,,,,,,,,,,ypth,001,2025-05-29_13h50.39.845,MainFlow,2024.1.5,None,2025-05-29 13h50.48.245043 +0700,
1,23,0,word/wordth0231.png,image/False/imgf23.png,0,181,181,181,1199.579605125,,,,,,,1201.0796105830013,1200.563249416,1200.5875617910006,1200.5875617910006,1201.0675707910013,1202.2189497079999,1202.2189497079999,x,2.495596041999306,None,1200.5875617910006,,,,,,,,,,ypth,001,2025-05-29_13h50.39.845,MainFlow,2024.1.5,None,2025-05-29 13h50.48.245043 +0700,
1,6,1,word/wordth0061.png,image/True/img06.png,0,182,182,182,1204.729552666,,,,,,,1206.2294866660013,1205.7132002079998,1205.7367685000008,1205.7367685000008,1206.217413208,1207.3251611659998,1207.3251611659998,z,1.2941899580000609,None,1205.7367685000008,,,,,,,,,,ypth,001,2025-05-29_13h50.39.845,MainFlow,2024.1.5,None,2025-05-29 13h50.48.245043 +0700,
1,93,1,word/wordth0931.png,image/True/img93.png,0,183,183,183,1208.637417541,,,,,,,1210.1295883750008,1209.617348875001,1209.64183925,1209.64183925,1210.1176542499998,1211.2360960000005,1211.2360960000005,z,1.4073426250015473,None,,,,,,,,,,,ypth,001,2025-05-29_13h50.39.845,MainFlow,2024.1.5,None,2025-05-29 13h50.48.245043 +0700,
1,38,0,word/wordth0381.png,image/False/imgf38.png,0,184,184,184,1212.6549209580007,,,,,,,1214.1503829579997,1213.6339454160006,1213.6590482909996,1213.6590482909996,1214.1461944580005,1215.2897790830011,1215.2897790830011,x,1.5605404170000838,None,,,,,,,,,,,ypth,001,2025-05-29_13h50.39.845,MainFlow,2024.1.5,None,2025-05-29 13h50.48.245043 +0700,
1,57,1,word/wordth0571.png,image/True/img57.png,0,185,185,185,1216.8628239580012,,,,,,,1218.3627674159998,1217.8466591249999,1217.871391083001,1217.871391083001,1218.3506859160007,1219.4856533750008,1219.4856533750008,z,0.981489583999064,None,1217.871391083001,,,,,,,,,,ypth,001,2025-05-29_13h50.39.845,MainFlow,2024.1.5,None,2025-05-29 13h50.48.245043 +0700,
1,40,1,word/wordth0401.png,image/True/img40.png,0,186,186,186,1220.479282708,,,,,,,1221.9794635409999,1221.4631408330006,1221.4869307080007,1221.4869307080007,1221.9673912910002,1223.1185583750012,1223.1185583750012,z,2.9964343329993426,None,1221.4869307080007,,,,,,,,,,ypth,001,2025-05-29_13h50.39.845,MainFlow,2024.1.5,None,2025-05-29 13h50.48.245043 +0700,
1,50,0,word/wordth0501.png,image/False/imgf50.png,0,187,187,187,1226.1292649999996,,,,,,,1227.6294320830002,1227.1131192909997,1227.138154958,1227.138154958,1227.6178368750006,1228.739018708,1228.739018708,x,1.1281792079989827,None,1227.138154958,,,,,,,,,,ypth,001,2025-05-29_13h50.39.845,MainFlow,2024.1.5,None,2025-05-29 13h50.48.245043 +0700,
1,66,0,word/wordth0661.png,image/False/imgf66.png,0,188,188,188,1229.8793809580002,,,,,,,1231.3794390410003,1230.8631045830007,1230.8862540829996,1230.8862540829996,1231.3673207499996,1232.495733875001,1232.495733875001,x,0.9634252920004656,None,1230.8862540829996,,,,,,,,,,ypth,001,2025-05-29_13h50.39.845,MainFlow,2024.1.5,None,2025-05-29 13h50.48.245043 +0700,
1,44,0,word/wordth0441.png,image/False/imgf44.png,0,189,189,189,1233.4706382500008,,,,,,,1234.9627183330012,1234.4505212080003,1234.4753450410008,1234.4753450410008,1234.9506336249997,1236.0941176249999,1236.0941176249999,x,1.1247831669988955,None,,,,,,,,,,,ypth,001,2025-05-29_13h50.39.845,MainFlow,2024.1.5,None,2025-05-29 13h50.48.245043 +0700,
1,75,0,word/wordth0751.png,image/False/imgf75.png,0,190,190,190,1237.2347526249996,,,,,,,1238.7336552079996,1238.2178552080004,1238.2423678329997,1238.2423678329997,1238.7294082910012,1239.8629492500004,1239.8629492500004,x,1.0758888750006008,None,1238.2423678329997,,,,,,,,,,ypth,001,2025-05-29_13h50.39.845,MainFlow,2024.1.5,None,2025-05-29 13h50.48.245043 +0700,
1,31,0,word/wordth0311.png,image/False/imgf31.png,0,191,191,191,1240.9546048330012,,,,,,,1242.4460703330005,1241.9336678750005,1241.9578247080008,1241.9578247080008,1242.43395375,1243.5359862910009,1243.5359862910009,x,8.41876270800094,None,,,,,,,,,,,ypth,001,2025-05-29_13h50.39.845,MainFlow,2024.1.5,None,2025-05-29 13h50.48.245043 +0700,
1,87,1,word/wordth0871.png,image/True/img87.png,0,192,192,192,1251.971116916,,,,,,,1253.4667470410004,1252.950712875001,1252.9747240409997,1252.9747240409997,1253.4626184999997,1254.5870594999997,1254.5870594999997,z,0.9676994999990711,None,,,,,,,,,,,ypth,001,2025-05-29_13h50.39.845,MainFlow,2024.1.5,None,2025-05-29 13h50.48.245043 +0700,
1,33,1,word/wordth0331.png,image/True/img33.png,0,193,193,193,1255.5709612910014,,,,,,,1257.0669239159997,1256.5509077080005,1256.5753479160012,1256.5753479160012,1257.062707166,1258.1822056250003,1258.1822056250003,z,2.115987082999709,None,,,,,,,,,,,ypth,001,2025-05-29_13h50.39.845,MainFlow,2024.1.5,None,2025-05-29 13h50.48.245043 +0700,
1,70,0,word/wordth0701.png,image/False/imgf70.png,0,194,194,194,1260.3125182910007,,,,,,,1261.8125856660008,1261.2962458330003,1261.3212128329997,1261.3212128329997,1261.8002991249996,1262.924962291001,1262.924962291001,x,2.645187166001051,None,1261.3212128329997,,,,,,,,,,ypth,001,2025-05-29_13h50.39.845,MainFlow,2024.1.5,None,2025-05-29 13h50.48.245043 +0700,
1,27,1,word/wordth0271.png,image/True/img27.png,0,195,195,195,1265.5875302910008,,,,,,,1267.083467333001,1266.5674236659997,1266.5914097910008,1266.5914097910008,1267.0792661659998,1268.1871441250005,1268.1871441250005,z,0.9442867500001739,None,,,,,,,,,,,ypth,001,2025-05-29_13h50.39.845,MainFlow,2024.1.5,None,2025-05-29 13h50.48.245043 +0700,
1,88,1,word/wordth0881.png,image/True/img88.png,0,196,196,196,1269.1457556660007,,,,,,,1270.645836916001,1270.1293475000002,1270.1531468330013,1270.1531468330013,1270.634297875,1271.771357083,1271.771357083,z,1.718488458000138,None,1270.1531468330013,,,,,,,,,,ypth,001,2025-05-29_13h50.39.845,MainFlow,2024.1.5,None,2025-05-29 13h50.48.245043 +0700,
1,87,0,word/wordth0871.png,image/False/imgf87.png,0,197,197,197,1273.503952000001,,,,,,,1274.9958419579998,1274.483620500001,1274.5067763330007,1274.5067763330007,1274.9837213749997,1276.1063166660006,1276.1063166660006,x,1.0162250829998811,None,,,,,,,,,,,ypth,001,2025-05-29_13h50.39.845,MainFlow,2024.1.5,None,2025-05-29 13h50.48.245043 +0700,
1,11,1,word/wordth0111.png,image/True/img11.png,0,198,198,198,1277.1373201660008,,,,,,,1278.633473916001,1278.1172649159998,1278.1414440830013,1278.1414440830013,1278.629237000001,1279.7683948330014,1279.7683948330014,z,2.2335001249994093,None,,,,,,,,,,,ypth,001,2025-05-29_13h50.39.845,MainFlow,2024.1.5,None,2025-05-29 13h50.48.245043 +0700,
1,61,0,word/wordth0611.png,image/False/imgf61.png,0,199,199,199,1282.017969083001,,,,,,,1283.5166322080004,1283.0007325000006,1283.025368916,1283.025368916,1283.5125504999996,1284.639033708001,1284.639033708001,x,1.291497749998598,None,1283.025368916,,,,,,,,,,ypth,001,2025-05-29_13h50.39.845,MainFlow,2024.1.5,None,2025-05-29 13h50.48.245043 +0700,
1,15,1,word/wordth0151.png,image/True/img15.png,0,200,200,200,1285.9448298330008,,,,,,,1287.4458055000014,1286.929363958001,1286.9528663330002,1286.9528663330002,1287.4335130830004,1288.5743180830013,1288.5743180830013,z,1.1650999580015196,None,1286.9528663330002,,,,,,,,,,ypth,001,2025-05-29_13h50.39.845,MainFlow,2024.1.5,None,2025-05-29 13h50.48.245043 +0700,
1,16,0,word/wordth0161.png,image/False/imgf16.png,0,201,201,201,1289.7541868750013,,,,,,,1291.2500505000007,1290.734044500001,1290.7580634160004,1290.7580634160004,1291.2458275410008,1292.3758457500007,1292.3758457500007,x,3.7308622079999623,None,,,,,,,,,,,ypth,001,2025-05-29_13h50.39.845,MainFlow,2024.1.5,None,2025-05-29 13h50.48.245043 +0700,
1,63,0,word/wordth0631.png,image/False/imgf63.png,0,202,202,202,1296.1208586660014,,,,,,,1297.6123898330006,1297.1001756660007,1297.1243844159999,1297.1243844159999,1297.6003210830004,1298.741924625001,1298.741924625001,x,3.8551719580009376,None,,,,,,,,,,,ypth,001,2025-05-29_13h50.39.845,MainFlow,2024.1.5,None,2025-05-29 13h50.48.245043 +0700,
1,28,1,word/wordth0281.png,image/True/img28.png,0,203,203,203,1302.6121363750008,,,,,,,1304.1122382080011,1303.5960237079998,1303.6203725409996,1303.6203725409996,1304.1006337500003,1305.2422798750013,1305.2422798750013,z,1.001157458000307,None,1303.6203725409996,,,,,,,,,,ypth,001,2025-05-29_13h50.39.845,MainFlow,2024.1.5,None,2025-05-29 13h50.48.245043 +0700,
1,89,1,word/wordth0891.png,image/True/img89.png,0,204,204,204,1306.2537448330004,,,,,,,1307.7498691660003,1307.2336489999998,1307.2574083750005,1307.2574083750005,1307.745675708,1308.848619833001,1308.848619833001,z,2.547711833998619,None,,,,,,,,,,,ypth,001,2025-05-29_13h50.39.845,MainFlow,2024.1.5,None,2025-05-29 13h50.48.245043 +0700,
1,76,0,word/wordth0761.png,image/False/imgf76.png,0,205,205,205,1311.412266833,,,,,,,1312.9123089160003,1312.396084625001,1312.4199759580006,1312.4199759580006,1312.900637916,1314.0460360409998,1314.0460360409998,x,0.9970088339996437,None,1312.4199759580006,,,,,,,,,,ypth,001,2025-05-29_13h50.39.845,MainFlow,2024.1.5,None,2025-05-29 13h50.48.245043 +0700,
1,51,0,word/wordth0511.png,image/False/imgf51.png,0,206,206,206,1315.053776416,,,,,,,1316.5499325830006,1316.0335249580003,1316.0568524160008,1316.0568524160008,1316.5456924580012,1317.6526276660006,1317.6526276660006,x,1.0134485830003541,None,,,,,,,,,,,ypth,001,2025-05-29_13h50.39.845,MainFlow,2024.1.5,None,2025-05-29 13h50.48.245043 +0700,
1,26,0,word/wordth0261.png,image/False/imgf26.png,0,207,207,207,1318.678850958,,,,,,,1320.1788582080007,1319.6626148750001,1319.6868560830007,1319.6868560830007,1320.1666905410002,1321.3116452080012,1321.3116452080012,x,0.9321121659995697,None,1319.6868560830007,,,,,,,,,,ypth,001,2025-05-29_13h50.39.845,MainFlow,2024.1.5,None,2025-05-29 13h50.48.245043 +0700,
1,16,1,word/wordth0161.png,image/True/img16.png,0,208,208,208,1322.2540840410002,,,,,,,1323.7499807500008,1323.2337987910014,1323.257522541,1323.257522541,1323.745551375001,1324.8828079579998,1324.8828079579998,z,3.567914249999376,None,,,,,,,,,,,ypth,001,2025-05-29_13h50.39.845,MainFlow,2024.1.5,None,2025-05-29 13h50.48.245043 +0700,
1,64,1,word/wordth0641.png,image/True/img64.png,0,209,209,209,1328.4672221250003,,,,,,,1329.9621737079997,1329.445863291001,1329.4708060410012,1329.4708060410012,1329.9504428330001,1331.0607438330007,1331.0607438330007,z,1.0372415839992755,None,,,,,,,,,,,ypth,001,2025-05-29_13h50.39.845,MainFlow,2024.1.5,None,2025-05-29 13h50.48.245043 +0700,
1,7,1,word/wordth0071.png,image/True/img07.png,0,210,210,210,1332.1120946660012,,,,,,,1333.612127833001,1333.0959195409996,1333.120390416001,1333.120390416001,1333.600013958001,1334.7379760830008,1334.7379760830008,z,3.0076660830000037,None,1333.120390416001,,,,,,,,,,ypth,001,2025-05-29_13h50.39.845,MainFlow,2024.1.5,None,2025-05-29 13h50.48.245043 +0700,
1,10,0,word/wordth0101.png,image/False/imgf10.png,0,211,211,211,1337.7540201250013,,,,,,,1339.2454342910005,1338.7330301250004,1338.7563448330002,1338.7563448330002,1339.2333309580008,1340.3641694159996,1340.3641694159996,x,0.927011666000908,None,,,,,,,,,,,ypth,001,2025-05-29_13h50.39.845,MainFlow,2024.1.5,None,2025-05-29 13h50.48.245043 +0700,
1,22,1,word/wordth0221.png,image/True/img22.png,0,212,212,212,1341.3039091250012,,,,,,,1342.7996701250013,1342.2835488330002,1342.3076586660009,1342.3076586660009,1342.7954417910005,1343.9411834580005,1343.9411834580005,z,5.693549332998373,None,,,,,,,,,,,ypth,001,2025-05-29_13h50.39.845,MainFlow,2024.1.5,None,2025-05-29 13h50.48.245043 +0700,
1,40,1,word/wordth0401.png,image/True/img40.png,0,213,213,213,1349.6513492909999,,,,,,,1351.1500077500004,1350.6332029160003,1350.655511416,1350.655511416,1351.1454985,1352.2858099580008,1352.2858099580008,z,0.9322927499997604,None,,,,,,,,,,,ypth,001,2025-05-29_13h50.39.845,MainFlow,2024.1.5,None,2025-05-29 13h50.48.245043 +0700,
1,57,0,word/wordth0571.png,image/False/imgf57.png,0,214,214,214,1353.2341567080002,,,,,,,1354.728752166,1354.2164124160008,1354.2396578330008,1354.2396578330008,1354.7171593330004,1355.8552355829997,1355.8552355829997,x,0.7799991249994491,None,,,,,,,,,,,ypth,001,2025-05-29_13h50.39.845,MainFlow,2024.1.5,None,2025-05-29 13h50.48.245043 +0700,
1,50,1,word/wordth0501.png,image/True/img50.png,0,215,215,215,1356.6538695830004,,,,,,,1358.1454074579997,1357.633126791001,1357.6558321250013,1357.6558321250013,1358.1334473750012,1359.2591592080007,1359.2591592080007,z,0.7590517080006975,None,,,,,,,,,,,ypth,001,2025-05-29_13h50.39.845,MainFlow,2024.1.5,None,2025-05-29 13h50.48.245043 +0700,
1,64,0,word/wordth0641.png,image/False/imgf64.png,0,216,216,216,1360.0344734999999,,,,,,,1361.5328725,1361.0171502499998,1361.0415508750011,1361.0415508750011,1361.5287259160013,1362.619997791,1362.619997791,x,1.046551666000596,None,,,,,,,,,,,ypth,001,2025-05-29_13h50.39.845,MainFlow,2024.1.5,None,2025-05-29 13h50.48.245043 +0700,
1,42,1,word/wordth0421.png,image/True/img42.png,0,217,217,217,1363.6778735830012,,,,,,,1365.1786399579996,1364.6624538329997,1364.6871873750006,1364.6871873750006,1365.1664885829996,1366.2970413750008,1366.2970413750008,z,2.4331882919996133,None,1364.6871873750006,,,,,,,,,,ypth,001,2025-05-29_13h50.39.845,MainFlow,2024.1.5,None,2025-05-29 13h50.48.245043 +0700,
1,56,0,word/wordth0561.png,image/False/imgf56.png,0,218,218,218,1368.7452996250013,,,,,,,1370.2453545000008,1369.7288872910012,1369.7537360410006,1369.7537360410006,1370.2331102500011,1371.382199916001,1371.382199916001,x,1.1080034579990752,None,1369.7537360410006,,,,,,,,,,ypth,001,2025-05-29_13h50.39.845,MainFlow,2024.1.5,None,2025-05-29 13h50.48.245043 +0700,
1,22,1,word/wordth0221.png,image/True/img22.png,0,219,219,219,1372.5038402080008,,,,,,,1373.9995763750012,1373.4836892080002,1373.507924083,1373.507924083,1373.995326458,1375.1416420410005,1375.1416420410005,z,2.4133969159993285,None,,,,,,,,,,,ypth,001,2025-05-29_13h50.39.845,MainFlow,2024.1.5,None,2025-05-29 13h50.48.245043 +0700,
1,82,0,word/wordth0821.png,image/False/imgf82.png,0,220,220,220,1377.570088583001,,,,,,,1379.0660509580011,1378.5501041250009,1378.5734240830006,1378.5734240830006,1379.061919916001,1380.176563291001,1380.176563291001,x,1.4661357499990118,None,,,,,,,,,,,ypth,001,2025-05-29_13h50.39.845,MainFlow,2024.1.5,None,2025-05-29 13h50.48.245043 +0700,
1,54,1,word/wordth0541.png,image/True/img54.png,0,221,221,221,1381.653629458,,,,,,,1383.149518708,1382.6335818330008,1382.657010541001,1382.657010541001,1383.1452589580003,1384.2801385410003,1384.2801385410003,z,2.225747250000495,None,,,,,,,,,,,ypth,001,2025-05-29_13h50.39.845,MainFlow,2024.1.5,None,2025-05-29 13h50.48.245043 +0700,
1,55,0,word/wordth0551.png,image/False/imgf55.png,0,222,222,222,1386.5203520410014,,,,,,,1388.0118091660006,1387.499642375,1387.522691166001,1387.522691166001,1388.000313333001,1389.1292232080013,1389.1292232080013,x,2.5857036670004163,None,,,,,,,,,,,ypth,001,2025-05-29_13h50.39.845,MainFlow,2024.1.5,None,2025-05-29 13h50.48.245043 +0700,
1,48,1,word/wordth0481.png,image/True/img48.png,0,223,223,223,1391.728478125,,,,,,,1393.228366458001,1392.7123374580005,1392.737612125,1392.737612125,1393.2164062499996,1394.3512604160005,1394.3512604160005,z,3.1076170839987753,None,1392.737612125,,,,,,,,,,ypth,001,2025-05-29_13h50.39.845,MainFlow,2024.1.5,None,2025-05-29 13h50.48.245043 +0700,
1,44,1,word/wordth0441.png,image/True/img44.png,0,224,224,224,1397.4702844160001,,,,,,,1398.9665198330003,1398.4500490829996,1398.4747045830009,1398.4747045830009,1398.9618725,1400.0717566660005,1400.0717566660005,z,1.0663863330009917,None,,,,,,,,,,,ypth,001,2025-05-29_13h50.39.845,MainFlow,2024.1.5,None,2025-05-29 13h50.48.245043 +0700,
1,87,0,word/wordth0871.png,image/False/imgf87.png,0,225,225,225,1401.153300291,,,,,,,1402.6451385830005,1402.1327867910004,1402.1558994999996,1402.1558994999996,1402.6333305830012,1403.7528970830008,1403.7528970830008,x,2.410085416999209,None,,,,,,,,,,,ypth,001,2025-05-29_13h50.39.845,MainFlow,2024.1.5,None,2025-05-29 13h50.48.245043 +0700,
1,70,1,word/wordth0701.png,image/True/img70.png,0,226,226,226,1406.1774158330009,,,,,,,1407.6784966249998,1407.1621534160004,1407.1872414580012,1407.1872414580012,1407.6661430410004,1408.7996473750009,1408.7996473750009,z,2.091191624998828,None,1407.1872414580012,,,,,,,,,,ypth,001,2025-05-29_13h50.39.845,MainFlow,2024.1.5,None,2025-05-29 13h50.48.245043 +0700,
1,33,0,word/wordth0331.png,image/False/imgf33.png,0,227,227,227,1410.9033367909997,,,,,,,1412.3992742910013,1411.882905208,1411.906204375,1411.906204375,1412.3950629160008,1413.521213416001,1413.521213416001,x,1.1937178749994928,None,,,,,,,,,,,ypth,001,2025-05-29_13h50.39.845,MainFlow,2024.1.5,None,2025-05-29 13h50.48.245043 +0700,
1,52,1,word/wordth0521.png,image/True/img52.png,0,228,228,228,1414.7283638750014,,,,,,,1416.2283594159999,1415.7120726250014,1415.7363619160005,1415.7363619160005,1416.216302375,1417.3523456250005,1417.3523456250005,z,0.8976353329999256,None,1415.7363619160005,,,,,,,,,,ypth,001,2025-05-29_13h50.39.845,MainFlow,2024.1.5,None,2025-05-29 13h50.48.245043 +0700,
1,59,1,word/wordth0591.png,image/True/img59.png,0,229,229,229,1418.261554791001,,,,,,,1419.7616308750003,1419.2450868329997,1419.2704997910005,1419.2704997910005,1419.7496178750007,1420.8568706250007,1420.8568706250007,z,1.265026000000944,None,1419.2704997910005,,,,,,,,,,ypth,001,2025-05-29_13h50.39.845,MainFlow,2024.1.5,None,2025-05-29 13h50.48.245043 +0700,
1,56,0,word/wordth0561.png,image/False/imgf56.png,0,230,230,230,1422.136614041001,,,,,,,1423.6281785829997,1423.1160984580001,1423.1397195410009,1423.1397195410009,1423.616206666,1424.767947458,1424.767947458,x,0.962246041999606,None,,,,,,,,,,,ypth,001,2025-05-29_13h50.39.845,MainFlow,2024.1.5,None,2025-05-29 13h50.48.245043 +0700,
1,79,1,word/wordth0791.png,image/True/img79.png,0,231,231,231,1425.7449215409997,,,,,,,1427.2448824580006,1426.7287218330002,1426.751721916,1426.751721916,1427.2327119580004,1428.3628391660004,1428.3628391660004,z,2.0964565419999417,None,1426.751721916,,,,,,,,,,ypth,001,2025-05-29_13h50.39.845,MainFlow,2024.1.5,None,2025-05-29 13h50.48.245043 +0700,
1,96,1,word/wordth0961.png,image/True/img96.png,0,232,232,232,1430.4701514160006,,,,,,,1431.965859,1431.4498344580006,1431.473820583,1431.473820583,1431.9616904160011,1433.0868553750006,1433.0868553750006,z,0.7467044999993959,None,,,,,,,,,,,ypth,001,2025-05-29_13h50.39.845,MainFlow,2024.1.5,None,2025-05-29 13h50.48.245043 +0700,
1,88,0,word/wordth0881.png,image/False/imgf88.png,0,233,233,233,1433.8503426660009,,,,,,,1435.3499225409996,1434.8335057500008,1434.8575606659997,1434.8575606659997,1435.3450275409996,1436.459183291001,1436.459183291001,x,9.678787542001373,None,1434.8575606659997,,,,,,,,,,ypth,001,2025-05-29_13h50.39.845,MainFlow,2024.1.5,None,2025-05-29 13h50.48.245043 +0700,
1,96,0,word/wordth0961.png,image/False/imgf96.png,0,234,234,234,1446.1531365829997,,,,,,,1447.6490183330006,1447.13324775,1447.1567410000007,1447.1567410000007,1447.6449699160003,1448.7700694579999,1448.7700694579999,x,1.9436082079992048,None,,,,,,,,,,,ypth,001,2025-05-29_13h50.39.845,MainFlow,2024.1.5,None,2025-05-29 13h50.48.245043 +0700,
1,88,1,word/wordth0881.png,image/True/img88.png,0,235,235,235,1450.7280375829996,,,,,,,1452.2281137080008,1451.7118678330007,1451.737023875001,1451.737023875001,1452.2160375410003,1453.3540728330008,1453.3540728330008,z,0.9119735000003857,None,1451.737023875001,,,,,,,,,,ypth,001,2025-05-29_13h50.39.845,MainFlow,2024.1.5,None,2025-05-29 13h50.48.245043 +0700,
1,70,0,word/wordth0701.png,image/False/imgf70.png,0,236,236,236,1454.2778885410007,,,,,,,1455.7780770410009,1455.2618758330009,1455.2853656250008,1455.2853656250008,1455.766594625,1456.8899193329999,1456.8899193329999,x,0.9530312080005388,None,1455.2853656250008,,,,,,,,,,ypth,001,2025-05-29_13h50.39.845,MainFlow,2024.1.5,None,2025-05-29 13h50.48.245043 +0700,
1,71,1,word/wordth0711.png,image/True/img71.png,0,237,237,237,1457.853083416001,,,,,,,1459.349204125001,1458.8329829579998,1458.856543625001,1458.856543625001,1459.3448483749999,1460.4740450000008,1460.4740450000008,z,1.29709295900102,None,,,,,,,,,,,ypth,001,2025-05-29_13h50.39.845,MainFlow,2024.1.5,None,2025-05-29 13h50.48.245043 +0700,
1,94,0,word/wordth0941.png,image/False/imgf94.png,0,238,238,238,1461.7860744160007,,,,,,,1463.278078958001,1462.7648428330012,1462.7873479999998,1462.7873479999998,1463.2664692500002,1464.4143692500002,1464.4143692500002,x,1.1005440000008093,None,,,,,,,,,,,ypth,001,2025-05-29_13h50.39.845,MainFlow,2024.1.5,None,2025-05-29 13h50.48.245043 +0700,
1,17,1,word/wordth0171.png,image/True/img17.png,0,239,239,239,1465.5279231660006,,,,,,,1467.028095916001,1466.5118761659996,1466.536591166001,1466.536591166001,1467.016033916001,1468.1424941660007,1468.1424941660007,z,8.563048459000129,None,1466.536591166001,,,,,,,,,,ypth,001,2025-05-29_13h50.39.845,MainFlow,2024.1.5,None,2025-05-29 13h50.48.245043 +0700,
,,,,,,,,,,,,,,,,,,,,,,,,,,,,,1476.7128475830013,1476.7192869160008,1476.7192869160008,1482.062556500001,space,5.339924207999502,None,ypth,001,2025-05-29_13h50.39.845,MainFlow,2024.1.5,None,2025-05-29 13h50.48.245043 +0700,
