lang,wordid,truestate,worddir,imgdir,trials.thisRepN,trials.thisTrialN,trials.thisN,trials.thisIndex,thisRow.t,notes,tutorial.started,tutorial.stopped,key_instruct.keys,key_instruct.rt,key_instruct.duration,plusblank.started,wordshow.started,image.started,plsuer.started,wordshow.stopped,imageword.started,key_resp.started,key_resp.keys,key_resp.rt,key_resp.duration,plusblank.stopped,image.stopped,plsuer.stopped,ending.started,text_3.started,ending_key.started,ending.stopped,ending_key.keys,ending_key.rt,ending_key.duration,participant,session,date,expName,psychopyVersion,frameRate,expStart,
,,,,,,,,,,,0.00408729199989466,4.529920041999503,space,4.47960216699903,None,,,,,,,,,,,,,,,,,,,,,yupaen,001,2025-02-27_15h08.33.218,MainFlow,2024.1.5,None,2025-02-27 15h08.43.435955 +0700,
2,87,0,word/worden0871.png,image/False/imgf87.png,0,0,0,0,4.588781042000846,,,,,,,6.034222250000312,5.51785241700054,5.555647750001299,5.555647750001299,6.021974459001285,7.159198667000965,7.159198667000965,x,8.76297749999867,None,,,,,,,,,,,yupaen,001,2025-02-27_15h08.33.218,MainFlow,2024.1.5,None,2025-02-27 15h08.43.435955 +0700,
2,93,0,word/worden0931.png,image/False/imgf93.png,0,1,1,1,15.933107000000746,,,,,,,17.434117541999512,16.917693499999586,16.943052667000302,16.943052667000302,17.4220332090008,18.536164167000607,18.536164167000607,x,3.3690094169996883,None,16.943052667000302,,,,,,,,,,yupaen,001,2025-02-27_15h08.33.218,MainFlow,2024.1.5,None,2025-02-27 15h08.43.435955 +0700,
2,23,0,word/worden0231.png,image/False/imgf23.png,0,2,2,2,21.918563375000303,,,,,,,23.417259709000064,22.901131709000765,22.925925542000186,22.925925542000186,23.405143750000207,24.55972558400026,24.55972558400026,x,2.769938417000958,None,,,,,,,,,,,yupaen,001,2025-02-27_15h08.33.218,MainFlow,2024.1.5,None,2025-02-27 15h08.43.435955 +0700,
2,10,1,word/worden0101.png,image/True/img10.png,0,3,3,3,27.342297917000906,,,,,,,28.838297750000493,28.322306584001126,28.346918334000293,28.346918334000293,28.834076167000603,29.94320825000068,29.94320825000068,x,10.00261754100029,None,,,,,,,,,,,yupaen,001,2025-02-27_15h08.33.218,MainFlow,2024.1.5,None,2025-02-27 15h08.43.435955 +0700,
2,50,0,word/worden0501.png,image/False/imgf50.png,0,4,4,4,39.958477250000215,,,,,,,41.45057358400118,40.938888959000906,40.96821045900106,40.96821045900106,41.43913795899971,42.564658792000046,42.564658792000046,x,1.436740291001115,None,,,,,,,,,,,yupaen,001,2025-02-27_15h08.33.218,MainFlow,2024.1.5,None,2025-02-27 15h08.43.435955 +0700,
2,33,1,word/worden0331.png,image/True/img33.png,0,5,5,5,44.01703325000017,,,,,,,45.51720495900008,45.00106487500125,45.02589441700002,45.02589441700002,45.50566516700019,46.639821500000835,46.639821500000835,z,1.562121291000949,None,45.02589441700002,,,,,,,,,,yupaen,001,2025-02-27_15h08.33.218,MainFlow,2024.1.5,None,2025-02-27 15h08.43.435955 +0700,
2,95,0,word/worden0951.png,image/False/imgf95.png,0,6,6,6,48.21702562500104,,,,,,,49.71718295900064,49.20090100000016,49.226736374999746,49.226736374999746,49.70510404200104,50.84402366700124,50.84402366700124,x,9.5266128330004,None,49.226736374999746,,,,,,,,,,yupaen,001,2025-02-27_15h08.33.218,MainFlow,2024.1.5,None,2025-02-27 15h08.43.435955 +0700,
2,7,0,word/worden0071.png,image/False/imgf07.png,0,7,7,7,60.38289066700054,,,,,,,61.88387258399962,61.36750895899968,61.39347025000097,61.39347025000097,61.871603999999934,62.99825362500087,62.99825362500087,x,3.780235166001148,None,61.39347025000097,,,,,,,,,,yupaen,001,2025-02-27_15h08.33.218,MainFlow,2024.1.5,None,2025-02-27 15h08.43.435955 +0700,
2,28,1,word/worden0281.png,image/True/img28.png,0,8,8,8,66.79205995899974,,,,,,,68.28822829199999,67.77204075000009,67.79582445900087,67.79582445900087,68.28398583400121,69.41886429199985,69.41886429199985,z,4.832670375000816,None,,,,,,,,,,,yupaen,001,2025-02-27_15h08.33.218,MainFlow,2024.1.5,None,2025-02-27 15h08.43.435955 +0700,
2,38,1,word/worden0381.png,image/True/img38.png,0,9,9,9,74.2670163340008,,,,,,,75.76708725000026,75.25088937500004,75.27533566700004,75.27533566700004,75.75498741699994,76.87523083400083,76.87523083400083,x,2.8389646249997895,None,75.27533566700004,,,,,,,,,,yupaen,001,2025-02-27_15h08.33.218,MainFlow,2024.1.5,None,2025-02-27 15h08.43.435955 +0700,
2,33,0,word/worden0331.png,image/False/imgf33.png,0,10,10,10,79.725358959,,,,,,,81.2170753749997,80.7048462920011,80.72906925000098,80.72906925000098,81.2053929169997,82.34141441700012,82.34141441700012,x,3.621088249999957,None,,,,,,,,,,,yupaen,001,2025-02-27_15h08.33.218,MainFlow,2024.1.5,None,2025-02-27 15h08.43.435955 +0700,
2,76,1,word/worden0761.png,image/True/img76.png,0,11,11,11,85.97522558400124,,,,,,,87.47180775000015,86.95528462500079,86.9805192090007,86.9805192090007,87.46719587500047,88.58460741700037,88.58460741700037,x,4.929346916000213,None,,,,,,,,,,,yupaen,001,2025-02-27_15h08.33.218,MainFlow,2024.1.5,None,2025-02-27 15h08.43.435955 +0700,
2,75,0,word/worden0751.png,image/False/imgf75.png,0,12,12,12,93.5252637499998,,,,,,,95.01691399999982,94.50492987500002,94.5282583749995,94.5282583749995,95.00549666699953,96.13419137500023,96.13419137500023,x,4.939300125000955,None,,,,,,,,,,,yupaen,001,2025-02-27_15h08.33.218,MainFlow,2024.1.5,None,2025-02-27 15h08.43.435955 +0700,
2,7,1,word/worden0071.png,image/True/img07.png,0,13,13,13,101.0914927089998,,,,,,,102.58369250000032,102.07105629200123,102.09481312500066,102.09481312500066,102.57199395899988,103.71342333400025,103.71342333400025,z,5.472279833998982,None,,,,,,,,,,,yupaen,001,2025-02-27_15h08.33.218,MainFlow,2024.1.5,None,2025-02-27 15h08.43.435955 +0700,
2,51,1,word/worden0511.png,image/True/img51.png,0,14,14,14,109.20030616700024,,,,,,,110.7003021670007,110.18388887500078,110.20899337500123,110.20899337500123,110.68867408400001,111.82007658400107,111.82007658400107,z,4.510088834000271,None,110.20899337500123,,,,,,,,,,yupaen,001,2025-02-27_15h08.33.218,MainFlow,2024.1.5,None,2025-02-27 15h08.43.435955 +0700,
2,59,0,word/worden0591.png,image/False/imgf59.png,0,15,15,15,116.34207224999955,,,,,,,117.83344566699998,117.32161045900102,117.34640737500013,117.34640737500013,117.82183633400018,118.92611995900006,118.92611995900006,x,4.915567457999714,None,,,,,,,,,,,yupaen,001,2025-02-27_15h08.33.218,MainFlow,2024.1.5,None,2025-02-27 15h08.43.435955 +0700,
2,54,0,word/worden0541.png,image/False/imgf54.png,0,16,16,16,123.8582145420005,,,,,,,125.35454620900055,124.83843945900117,124.86125495899978,124.86125495899978,125.35021116700045,126.46688504200029,126.46688504200029,x,2.855079334000038,None,,,,,,,,,,,yupaen,001,2025-02-27_15h08.33.218,MainFlow,2024.1.5,None,2025-02-27 15h08.43.435955 +0700,
2,6,1,word/worden0061.png,image/True/img06.png,0,17,17,17,129.33839012499993,,,,,,,130.8335215420011,130.31705933400008,130.34079250000104,130.34079250000104,130.8216827920005,131.93320354200114,131.93320354200114,z,5.124290417001248,None,,,,,,,,,,,yupaen,001,2025-02-27_15h08.33.218,MainFlow,2024.1.5,None,2025-02-27 15h08.43.435955 +0700,
2,41,1,word/worden0411.png,image/True/img41.png,0,18,18,18,137.07506450000074,,,,,,,138.5666944170007,138.05451695900047,138.07781299999988,138.07781299999988,138.55463000000054,139.69365779200052,139.69365779200052,x,3.38844333400084,None,,,,,,,,,,,yupaen,001,2025-02-27_15h08.33.218,MainFlow,2024.1.5,None,2025-02-27 15h08.43.435955 +0700,
2,42,0,word/worden0421.png,image/False/imgf42.png,0,19,19,19,143.09140483400006,,,,,,,144.58758845900047,144.07190654199985,144.09693408400017,144.09693408400017,144.58341670899972,145.72902537499976,145.72902537499976,x,7.096638208000513,None,,,,,,,,,,,yupaen,001,2025-02-27_15h08.33.218,MainFlow,2024.1.5,None,2025-02-27 15h08.43.435955 +0700,
2,64,0,word/worden0641.png,image/False/imgf64.png,0,20,20,20,152.84174754200103,,,,,,,154.33788758400078,153.82183541700033,153.8468101670005,153.8468101670005,154.33344254199983,155.4228773750001,155.4228773750001,x,4.250954707998972,None,,,,,,,,,,,yupaen,001,2025-02-27_15h08.33.218,MainFlow,2024.1.5,None,2025-02-27 15h08.43.435955 +0700,
2,96,1,word/worden0961.png,image/True/img96.png,0,21,21,21,159.6913894999998,,,,,,,161.18323004200101,160.67104883399952,160.69554870899992,160.69554870899992,161.17164033399968,162.30421141700026,162.30421141700026,x,9.282128542001374,None,,,,,,,,,,,yupaen,001,2025-02-27_15h08.33.218,MainFlow,2024.1.5,None,2025-02-27 15h08.43.435955 +0700,
2,76,0,word/worden0761.png,image/False/imgf76.png,0,22,22,22,171.59974879200126,,,,,,,173.0998584170011,172.5837273340003,172.60813254200002,172.60813254200002,173.08781004199955,174.23262058399996,174.23262058399996,x,1.641389166999943,None,172.60813254200002,,,,,,,,,,yupaen,001,2025-02-27_15h08.33.218,MainFlow,2024.1.5,None,2025-02-27 15h08.43.435955 +0700,
2,17,1,word/worden0171.png,image/True/img17.png,0,23,23,23,175.89107041700117,,,,,,,177.3831529170002,176.8669749590008,176.89200449999953,176.89200449999953,177.37105487500048,178.49662400000125,178.49662400000125,z,10.002370666999923,None,,,,,,,,,,,yupaen,001,2025-02-27_15h08.33.218,MainFlow,2024.1.5,None,2025-02-27 15h08.43.435955 +0700,
2,6,1,word/worden0061.png,image/True/img06.png,0,24,24,24,188.50815195900032,,,,,,,189.99974275000022,189.4835803750011,189.50721987500037,189.50721987500037,189.98810520900042,191.096530625,191.096530625,z,1.065200791999814,None,,,,,,,,,,,yupaen,001,2025-02-27_15h08.33.218,MainFlow,2024.1.5,None,2025-02-27 15h08.43.435955 +0700,
2,88,1,word/worden0881.png,image/True/img88.png,0,25,25,25,192.1749367499997,,,,,,,193.67106516700005,193.15467779200117,193.1784702920013,193.1784702920013,193.66641354199965,194.79784325000037,194.79784325000037,z,1.0031759169996803,None,,,,,,,,,,,yupaen,001,2025-02-27_15h08.33.218,MainFlow,2024.1.5,None,2025-02-27 15h08.43.435955 +0700,
2,44,1,word/worden0441.png,image/True/img44.png,0,26,26,26,195.816231625,,,,,,,197.31632658400122,196.80015512499995,196.82520925000063,196.82520925000063,197.30479520900008,198.42074720900018,198.42074720900018,z,1.4131742919998942,None,196.82520925000063,,,,,,,,,,yupaen,001,2025-02-27_15h08.33.218,MainFlow,2024.1.5,None,2025-02-27 15h08.43.435955 +0700,
2,27,0,word/worden0271.png,image/False/imgf27.png,0,27,27,27,199.8487355420002,,,,,,,201.3497172919997,200.83333495900115,200.85677700000087,200.85677700000087,201.3376664999996,202.4590824170009,202.4590824170009,x,5.062372000000323,None,200.85677700000087,,,,,,,,,,yupaen,001,2025-02-27_15h08.33.218,MainFlow,2024.1.5,None,2025-02-27 15h08.43.435955 +0700,
2,14,0,word/worden0141.png,image/False/imgf14.png,0,28,28,28,207.5379321670007,,,,,,,209.0329304170009,208.51669100000072,208.5405254590005,208.5405254590005,209.02087320899955,210.1484439169999,210.1484439169999,x,2.261336957999447,None,,,,,,,,,,,yupaen,001,2025-02-27_15h08.33.218,MainFlow,2024.1.5,None,2025-02-27 15h08.43.435955 +0700,
2,40,0,word/worden0401.png,image/False/imgf40.png,0,29,29,29,212.42467412500082,,,,,,,213.91606208400117,213.40461633400082,213.42789387500125,213.42789387500125,213.90466720900076,215.03794150000067,215.03794150000067,x,5.931655000000319,None,,,,,,,,,,,yupaen,001,2025-02-27_15h08.33.218,MainFlow,2024.1.5,None,2025-02-27 15h08.43.435955 +0700,
2,1,0,word/worden0011.png,image/False/imgf01.png,0,30,30,30,220.98283695899954,,,,,,,222.48284508399956,221.9667929999996,221.9918018340013,221.9918018340013,222.4712605420009,223.59090958399975,223.59090958399975,x,4.402902375000849,None,221.9918018340013,,,,,,,,,,yupaen,001,2025-02-27_15h08.33.218,MainFlow,2024.1.5,None,2025-02-27 15h08.43.435955 +0700,
2,3,0,word/worden0031.png,image/False/imgf03.png,0,31,31,31,228.00771754200105,,,,,,,229.4995146250003,228.98704225000074,229.01027083400004,229.01027083400004,229.48771808400124,230.6131594590006,230.6131594590006,x,2.108397583999249,None,,,,,,,,,,,yupaen,001,2025-02-27_15h08.33.218,MainFlow,2024.1.5,None,2025-02-27 15h08.43.435955 +0700,
2,57,1,word/worden0571.png,image/True/img57.png,0,32,32,32,232.73828549999962,,,,,,,234.23696708399984,233.7210603750009,233.74501637499998,233.74501637499998,234.23276816700127,235.3607424590009,235.3607424590009,x,7.673695792000217,None,233.74501637499998,,,,,,,,,,yupaen,001,2025-02-27_15h08.33.218,MainFlow,2024.1.5,None,2025-02-27 15h08.43.435955 +0700,
2,88,0,word/worden0881.png,image/False/imgf88.png,0,33,33,33,243.04950479200124,,,,,,,244.54937916699964,244.03318020900042,244.05731904200002,244.05731904200002,244.5373390420009,245.6613736670006,245.6613736670006,x,8.82702587499989,None,244.05731904200002,,,,,,,,,,yupaen,001,2025-02-27_15h08.33.218,MainFlow,2024.1.5,None,2025-02-27 15h08.43.435955 +0700,
2,52,0,word/worden0521.png,image/False/imgf52.png,0,34,34,34,254.50487383400105,,,,,,,256.0035972500009,255.487681042001,255.5136072919995,255.5136072919995,255.999414584001,257.10801395900125,257.10801395900125,x,4.606598374999521,None,255.5136072919995,,,,,,,,,,yupaen,001,2025-02-27_15h08.33.218,MainFlow,2024.1.5,None,2025-02-27 15h08.43.435955 +0700,
2,50,0,word/worden0501.png,image/False/imgf50.png,0,35,35,35,261.72455654199985,,,,,,,263.21596212500117,262.7041034169997,262.7286422090001,262.7286422090001,263.20437816699996,264.32842695900035,264.32842695900035,x,4.522019834001185,None,,,,,,,,,,,yupaen,001,2025-02-27_15h08.33.218,MainFlow,2024.1.5,None,2025-02-27 15h08.43.435955 +0700,
2,78,1,word/worden0781.png,image/True/img78.png,0,36,36,36,268.8651490000011,,,,,,,270.3660141250002,269.849595959,269.872650917001,269.872650917001,270.35399179200067,271.46889820900105,271.46889820900105,z,4.615062000000762,None,269.872650917001,,,,,,,,,,yupaen,001,2025-02-27_15h08.33.218,MainFlow,2024.1.5,None,2025-02-27 15h08.43.435955 +0700,
2,61,0,word/worden0611.png,image/False/imgf61.png,0,37,37,37,276.0992338340002,,,,,,,277.59930166699996,277.08298891699997,277.106790834001,277.106790834001,277.58705391700096,278.7231619590002,278.7231619590002,x,3.5347548339996138,None,277.106790834001,,,,,,,,,,yupaen,001,2025-02-27_15h08.33.218,MainFlow,2024.1.5,None,2025-02-27 15h08.43.435955 +0700,
2,36,0,word/worden0361.png,image/False/imgf36.png,0,38,38,38,282.2742016250013,,,,,,,283.77007391699954,283.2541414589996,283.27807504200064,283.27807504200064,283.7658642919996,284.885844542001,284.885844542001,x,8.564131457998883,None,,,,,,,,,,,yupaen,001,2025-02-27_15h08.33.218,MainFlow,2024.1.5,None,2025-02-27 15h08.43.435955 +0700,
2,10,1,word/worden0101.png,image/True/img10.png,0,39,39,39,293.465816625001,,,,,,,294.9658825839997,294.4495556670008,294.4740355419999,294.4740355419999,294.95387587500045,296.07296370900076,296.07296370900076,x,5.67274316700059,None,294.4740355419999,,,,,,,,,,yupaen,001,2025-02-27_15h08.33.218,MainFlow,2024.1.5,None,2025-02-27 15h08.43.435955 +0700,
2,75,1,word/worden0751.png,image/True/img75.png,0,40,40,40,301.75703516700014,,,,,,,303.2491411250012,302.73668050000015,302.7609389999998,302.7609389999998,303.2370889169997,304.36832583400064,304.36832583400064,x,6.816991540999879,None,,,,,,,,,,,yupaen,001,2025-02-27_15h08.33.218,MainFlow,2024.1.5,None,2025-02-27 15h08.43.435955 +0700,
2,1,1,word/worden0011.png,image/True/img01.png,0,41,41,41,311.19890187500096,,,,,,,312.6990469169996,312.18286675000127,312.20700212500014,312.20700212500014,312.6869408340008,313.824065625,313.824065625,z,2.6745940829987376,None,312.20700212500014,,,,,,,,,,yupaen,001,2025-02-27_15h08.33.218,MainFlow,2024.1.5,None,2025-02-27 15h08.43.435955 +0700,
2,37,1,word/worden0371.png,image/True/img37.png,0,42,42,42,316.50718479200077,,,,,,,318.003788334001,317.4873583339995,317.51151341700097,317.51151341700097,317.99913208399994,319.1376805,319.1376805,x,3.40768133399979,None,,,,,,,,,,,yupaen,001,2025-02-27_15h08.33.218,MainFlow,2024.1.5,None,2025-02-27 15h08.43.435955 +0700,
2,66,0,word/worden0661.png,image/False/imgf66.png,0,43,43,43,322.5574577919997,,,,,,,324.05333370900007,323.5371971250006,323.5610868750009,323.5610868750009,324.04914950000057,325.1685738750002,325.1685738750002,x,7.536711332999403,None,,,,,,,,,,,yupaen,001,2025-02-27_15h08.33.218,MainFlow,2024.1.5,None,2025-02-27 15h08.43.435955 +0700,
2,55,1,word/worden0551.png,image/True/img55.png,0,44,44,44,332.72099116699974,,,,,,,334.21563375000005,333.7039088340007,333.72835291699994,333.72835291699994,334.20419287500044,335.34510262500044,335.34510262500044,z,5.728211666000789,None,333.72835291699994,,,,,,,,,,yupaen,001,2025-02-27_15h08.33.218,MainFlow,2024.1.5,None,2025-02-27 15h08.43.435955 +0700,
2,70,0,word/worden0701.png,image/False/imgf70.png,0,45,45,45,341.090232292001,,,,,,,342.5863980840004,342.0700549590001,342.0934622500008,342.0934622500008,342.5821907919999,343.6991963340006,343.6991963340006,x,3.3838157919999503,None,,,,,,,,,,,yupaen,001,2025-02-27_15h08.33.218,MainFlow,2024.1.5,None,2025-02-27 15h08.43.435955 +0700,
2,68,0,word/worden0681.png,image/False/imgf68.png,0,46,46,46,347.09869845899993,,,,,,,348.5989005419997,348.08257683400006,348.10664687499957,348.10664687499957,348.5868706250003,349.6943467500005,349.6943467500005,z,5.523279749999347,None,348.10664687499957,,,,,,,,,,yupaen,001,2025-02-27_15h08.33.218,MainFlow,2024.1.5,None,2025-02-27 15h08.43.435955 +0700,
2,75,1,word/worden0751.png,image/True/img75.png,0,47,47,47,355.2318753340005,,,,,,,356.73221545900014,356.21581266700014,356.2404409999999,356.2404409999999,356.72014024999953,357.8472682499996,357.8472682499996,x,4.970546416001525,None,356.2404409999999,,,,,,,,,,yupaen,001,2025-02-27_15h08.33.218,MainFlow,2024.1.5,None,2025-02-27 15h08.43.435955 +0700,
2,38,1,word/worden0381.png,image/True/img38.png,0,48,48,48,362.8321012920005,,,,,,,364.33207200000106,363.815928334001,363.8407420000003,363.8407420000003,364.32000804200106,365.4407959170003,365.4407959170003,z,5.409212958000353,None,363.8407420000003,,,,,,,,,,yupaen,001,2025-02-27_15h08.33.218,MainFlow,2024.1.5,None,2025-02-27 15h08.43.435955 +0700,
2,42,1,word/worden0421.png,image/True/img42.png,0,49,49,49,370.8654358750009,,,,,,,372.3654526250011,371.8490399170005,371.87249616699955,371.87249616699955,372.35324533400126,373.4839153339999,373.4839153339999,z,4.062042458999713,None,371.87249616699955,,,,,,,,,,yupaen,001,2025-02-27_15h08.33.218,MainFlow,2024.1.5,None,2025-02-27 15h08.43.435955 +0700,
2,11,0,word/worden0111.png,image/False/imgf11.png,0,50,50,50,377.5571637920002,,,,,,,379.0531352500002,378.5369063340004,378.5608632090007,378.5608632090007,379.0488380000006,380.1833680840009,380.1833680840009,x,3.8656484160001128,None,,,,,,,,,,,yupaen,001,2025-02-27_15h08.33.218,MainFlow,2024.1.5,None,2025-02-27 15h08.43.435955 +0700,
2,41,0,word/worden0411.png,image/False/imgf41.png,0,51,51,51,384.06469729200035,,,,,,,385.5653586669996,385.0491578750007,385.07288937500016,385.07288937500016,385.5532195420001,386.6567422090011,386.6567422090011,x,5.043050332998973,None,385.07288937500016,,,,,,,,,,yupaen,001,2025-02-27_15h08.33.218,MainFlow,2024.1.5,None,2025-02-27 15h08.43.435955 +0700,
2,82,1,word/worden0821.png,image/True/img82.png,0,52,52,52,391.7152050000004,,,,,,,393.2152488749998,392.699058917,392.7236711250007,392.7236711250007,393.203200209,394.3013459169997,394.3013459169997,x,5.3984811669997725,None,392.7236711250007,,,,,,,,,,yupaen,001,2025-02-27_15h08.33.218,MainFlow,2024.1.5,None,2025-02-27 15h08.43.435955 +0700,
2,88,0,word/worden0881.png,image/False/imgf88.png,0,53,53,53,399.71517074999974,,,,,,,401.21518429200114,400.6989414590007,400.7221054170004,400.7221054170004,401.20310054200127,402.3270864999995,402.3270864999995,x,3.7711337500004447,None,400.7221054170004,,,,,,,,,,yupaen,001,2025-02-27_15h08.33.218,MainFlow,2024.1.5,None,2025-02-27 15h08.43.435955 +0700,
2,8,1,word/worden0081.png,image/True/img08.png,0,54,54,54,406.1073831670001,,,,,,,407.59859937500005,407.0869090840006,407.1110645000008,407.1110645000008,407.58696766700086,408.7011383749996,408.7011383749996,z,3.532727000001614,None,,,,,,,,,,,yupaen,001,2025-02-27_15h08.33.218,MainFlow,2024.1.5,None,2025-02-27 15h08.43.435955 +0700,
2,16,0,word/worden0161.png,image/False/imgf16.png,0,55,55,55,412.24844891700013,,,,,,,413.7485250419995,413.2321047500009,413.25541112500105,413.25541112500105,413.73643933400126,414.87436233399967,414.87436233399967,x,4.630519874999663,None,413.25541112500105,,,,,,,,,,yupaen,001,2025-02-27_15h08.33.218,MainFlow,2024.1.5,None,2025-02-27 15h08.43.435955 +0700,
2,10,0,word/worden0101.png,image/False/imgf10.png,0,56,56,56,419.5231404590013,,,,,,,421.0193444590004,420.50332612500097,420.5271338750008,420.5271338750008,421.01516095900115,422.1327522499996,422.1327522499996,x,3.684523457999603,None,,,,,,,,,,,yupaen,001,2025-02-27_15h08.33.218,MainFlow,2024.1.5,None,2025-02-27 15h08.43.435955 +0700,
2,76,0,word/worden0761.png,image/False/imgf76.png,0,57,57,57,425.8316744170006,,,,,,,427.3316106250004,426.81530399999974,426.8393084170002,426.8393084170002,427.3196950420006,428.4649279590012,428.4649279590012,x,2.7769632919989817,None,426.8393084170002,,,,,,,,,,yupaen,001,2025-02-27_15h08.33.218,MainFlow,2024.1.5,None,2025-02-27 15h08.43.435955 +0700,
2,42,1,word/worden0421.png,image/True/img42.png,0,58,58,58,431.25736574999974,,,,,,,432.7482926249995,432.2360173750003,432.2590321250009,432.2590321250009,432.7362295840012,433.87054066699966,433.87054066699966,z,1.4117195409999113,None,,,,,,,,,,,yupaen,001,2025-02-27_15h08.33.218,MainFlow,2024.1.5,None,2025-02-27 15h08.43.435955 +0700,
2,26,0,word/worden0261.png,image/False/imgf26.png,0,59,59,59,435.2982473339998,,,,,,,436.79836799999975,436.28232000000025,436.30723770900113,436.30723770900113,436.7862949999999,437.93128929200066,437.93128929200066,x,3.005602582999927,None,436.30723770900113,,,,,,,,,,yupaen,001,2025-02-27_15h08.33.218,MainFlow,2024.1.5,None,2025-02-27 15h08.43.435955 +0700,
2,26,1,word/worden0261.png,image/True/img26.png,0,60,60,60,440.9539413340008,,,,,,,442.4525407500005,441.936639042,441.9610296669998,441.9610296669998,442.4483533340008,443.57925708400035,443.57925708400035,x,2.973771791999752,None,441.9610296669998,,,,,,,,,,yupaen,001,2025-02-27_15h08.33.218,MainFlow,2024.1.5,None,2025-02-27 15h08.43.435955 +0700,
2,48,1,word/worden0481.png,image/True/img48.png,0,61,61,61,446.56491529199957,,,,,,,448.0649970000013,447.5486626670008,447.5722813749999,447.5722813749999,448.0533932920007,449.18719712500024,449.18719712500024,z,3.2628934159984055,None,447.5722813749999,,,,,,,,,,yupaen,001,2025-02-27_15h08.33.218,MainFlow,2024.1.5,None,2025-02-27 15h08.43.435955 +0700,
2,71,0,word/worden0711.png,image/False/imgf71.png,0,62,62,62,452.46490279200043,,,,,,,453.9648572090009,453.4486061250009,453.47194587500053,453.47194587500053,453.9527858340007,455.101597750001,455.101597750001,z,7.836140790999707,None,453.47194587500053,,,,,,,,,,yupaen,001,2025-02-27_15h08.33.218,MainFlow,2024.1.5,None,2025-02-27 15h08.43.435955 +0700,
2,93,1,word/worden0931.png,image/True/img93.png,0,63,63,63,462.9537284170001,,,,,,,464.45241258399983,463.93643879199954,463.9602064589999,463.9602064589999,464.44826829200065,465.5570085420004,465.5570085420004,z,8.996180874999482,None,463.9602064589999,,,,,,,,,,yupaen,001,2025-02-27_15h08.33.218,MainFlow,2024.1.5,None,2025-02-27 15h08.43.435955 +0700,
2,51,1,word/worden0511.png,image/True/img51.png,0,64,64,64,474.5638223750011,,,,,,,476.06481208399964,475.5483898340008,475.5724005000011,475.5724005000011,476.052795167001,477.18869149999955,477.18869149999955,x,4.364567959000851,None,475.5724005000011,,,,,,,,,,yupaen,001,2025-02-27_15h08.33.218,MainFlow,2024.1.5,None,2025-02-27 15h08.43.435955 +0700,
2,78,0,word/worden0781.png,image/False/imgf78.png,0,65,65,65,481.5637391670007,,,,,,,483.06467033400077,482.5485668750007,482.5720340000007,482.5720340000007,483.0530352500009,484.16488349999963,484.16488349999963,x,1.9338861249998445,None,482.5720340000007,,,,,,,,,,yupaen,001,2025-02-27_15h08.33.218,MainFlow,2024.1.5,None,2025-02-27 15h08.43.435955 +0700,
2,64,0,word/worden0641.png,image/False/imgf64.png,0,66,66,66,486.114834,,,,,,,487.61465854200105,487.0984980000012,487.124229209001,487.124229209001,487.6026559590009,488.7034481669998,488.7034481669998,x,2.3217968749995634,None,487.124229209001,,,,,,,,,,yupaen,001,2025-02-27_15h08.33.218,MainFlow,2024.1.5,None,2025-02-27 15h08.43.435955 +0700,
2,68,1,word/worden0681.png,image/True/img68.png,0,67,67,67,491.04002466699967,,,,,,,492.5355634589996,492.0195425840011,492.0434911250013,492.0434911250013,492.5314516670005,493.62481420900076,493.62481420900076,z,4.36790212500091,None,,,,,,,,,,,yupaen,001,2025-02-27_15h08.33.218,MainFlow,2024.1.5,None,2025-02-27 15h08.43.435955 +0700,
2,57,0,word/worden0571.png,image/False/imgf57.png,0,68,68,68,498.0064774170005,,,,,,,499.5023031670007,498.98614799999996,499.011439584001,499.011439584001,499.4980859589996,500.62424716700116,500.62424716700116,x,7.216601709000315,None,,,,,,,,,,,yupaen,001,2025-02-27_15h08.33.218,MainFlow,2024.1.5,None,2025-02-27 15h08.43.435955 +0700,
2,31,0,word/worden0311.png,image/False/imgf31.png,0,69,69,69,507.85662050000064,,,,,,,509.34804675000123,508.8357187500005,508.8601440420007,508.8601440420007,509.3361972500006,510.43693350000103,510.43693350000103,z,6.924444041998868,None,,,,,,,,,,,yupaen,001,2025-02-27_15h08.33.218,MainFlow,2024.1.5,None,2025-02-27 15h08.43.435955 +0700,
2,31,0,word/worden0311.png,image/False/imgf31.png,0,70,70,70,517.3727820840013,,,,,,,518.8689784170001,518.3529399590007,518.3766655,518.3766655,518.8646401670012,519.9521950840008,519.9521950840008,x,2.033568375001778,None,,,,,,,,,,,yupaen,001,2025-02-27_15h08.33.218,MainFlow,2024.1.5,None,2025-02-27 15h08.43.435955 +0700,
2,55,1,word/worden0551.png,image/True/img55.png,0,71,71,71,521.9976971670003,,,,,,,523.4978393750007,522.9816874589997,523.00630275,523.00630275,523.4860551250003,524.6254748749998,524.6254748749998,z,2.815955166001004,None,523.00630275,,,,,,,,,,yupaen,001,2025-02-27_15h08.33.218,MainFlow,2024.1.5,None,2025-02-27 15h08.43.435955 +0700,
2,36,1,word/worden0361.png,image/True/img36.png,0,72,72,72,527.4564162919996,,,,,,,528.9478836670005,528.4354406250004,528.4585138750008,528.4585138750008,528.9362152499998,530.0572463339995,530.0572463339995,z,1.9596147920001386,None,,,,,,,,,,,yupaen,001,2025-02-27_15h08.33.218,MainFlow,2024.1.5,None,2025-02-27 15h08.43.435955 +0700,
2,8,0,word/worden0081.png,image/False/imgf08.png,0,73,73,73,532.0310857090008,,,,,,,533.5312338340009,533.0149265420005,533.0391979169999,533.0391979169999,533.5189412920008,534.6287605420002,534.6287605420002,x,1.6749048330002552,None,533.0391979169999,,,,,,,,,,yupaen,001,2025-02-27_15h08.33.218,MainFlow,2024.1.5,None,2025-02-27 15h08.43.435955 +0700,
2,82,0,word/worden0821.png,image/False/imgf82.png,0,74,74,74,536.3198935420005,,,,,,,537.8144990000001,537.3021329170006,537.3255265000007,537.3255265000007,537.8022410840003,538.9293449590004,538.9293449590004,x,4.616568958001153,None,,,,,,,,,,,yupaen,001,2025-02-27_15h08.33.218,MainFlow,2024.1.5,None,2025-02-27 15h08.43.435955 +0700,
2,14,0,word/worden0141.png,image/False/imgf14.png,0,75,75,75,543.5560422920007,,,,,,,545.0476875000004,544.5359902920009,544.5601264590005,544.5601264590005,545.0361894590005,546.1662061670013,546.1662061670013,x,1.2512279589991522,None,,,,,,,,,,,yupaen,001,2025-02-27_15h08.33.218,MainFlow,2024.1.5,None,2025-02-27 15h08.43.435955 +0700,
2,71,1,word/worden0711.png,image/True/img71.png,0,76,76,76,547.4310647090006,,,,,,,548.9310785840007,548.414687292001,548.4381085839996,548.4381085839996,548.9189987090012,550.0583609590012,550.0583609590012,z,3.589881082998545,None,548.4381085839996,,,,,,,,,,yupaen,001,2025-02-27_15h08.33.218,MainFlow,2024.1.5,None,2025-02-27 15h08.43.435955 +0700,
2,22,0,word/worden0221.png,image/False/imgf22.png,0,77,77,77,553.6641569170006,,,,,,,555.1643290000011,554.6481954170013,554.673299125001,554.673299125001,555.1526445420004,556.291014167,556.291014167,x,2.5906238749994372,None,554.673299125001,,,,,,,,,,yupaen,001,2025-02-27_15h08.33.218,MainFlow,2024.1.5,None,2025-02-27 15h08.43.435955 +0700,
2,78,1,word/worden0781.png,image/True/img78.png,0,78,78,78,558.897572625001,,,,,,,560.39758325,559.881423750001,559.9048755000003,559.9048755000003,560.3852921670004,561.4992246670008,561.4992246670008,z,2.0379814169991732,None,559.9048755000003,,,,,,,,,,yupaen,001,2025-02-27_15h08.33.218,MainFlow,2024.1.5,None,2025-02-27 15h08.43.435955 +0700,
2,51,0,word/worden0511.png,image/False/imgf51.png,0,79,79,79,563.5535632089995,,,,,,,565.0519655420012,564.536068292,564.5610700840007,564.5610700840007,565.047761459,566.1554879590003,566.1554879590003,z,4.365540834000058,None,,,,,,,,,,,yupaen,001,2025-02-27_15h08.33.218,MainFlow,2024.1.5,None,2025-02-27 15h08.43.435955 +0700,
2,56,1,word/worden0561.png,image/True/img56.png,0,80,80,80,570.5393444590009,,,,,,,572.0308966249995,571.5186318750002,571.542150792,571.542150792,572.019163125,573.1438885420012,573.1438885420012,z,2.8965959580000344,None,,,,,,,,,,,yupaen,001,2025-02-27_15h08.33.218,MainFlow,2024.1.5,None,2025-02-27 15h08.43.435955 +0700,
2,60,1,word/worden0601.png,image/True/img60.png,0,81,81,81,576.0559025840012,,,,,,,577.5475863339998,577.0351603340005,577.0584345839998,577.0584345839998,577.5354609170008,578.6576653749999,578.6576653749999,z,2.2416397079996386,None,,,,,,,,,,,yupaen,001,2025-02-27_15h08.33.218,MainFlow,2024.1.5,None,2025-02-27 15h08.43.435955 +0700,
2,96,0,word/worden0961.png,image/False/imgf96.png,0,82,82,82,580.9142118340005,,,,,,,582.4142267919997,581.8979414590012,581.9229489999998,581.9229489999998,582.401948959001,583.5350062500002,583.5350062500002,x,7.058409790999576,None,581.9229489999998,,,,,,,,,,yupaen,001,2025-02-27_15h08.33.218,MainFlow,2024.1.5,None,2025-02-27 15h08.43.435955 +0700,
2,3,0,word/worden0031.png,image/False/imgf03.png,0,83,83,83,590.6062641669996,,,,,,,592.0975289170001,591.5851895420001,591.6084372090008,591.6084372090008,592.0856655420012,593.2088154590001,593.2088154590001,x,2.6163753340006224,None,,,,,,,,,,,yupaen,001,2025-02-27_15h08.33.218,MainFlow,2024.1.5,None,2025-02-27 15h08.43.435955 +0700,
2,55,0,word/worden0551.png,image/False/imgf55.png,0,84,84,84,595.8393343340013,,,,,,,597.3307776670008,596.8183532090006,596.8419342920006,596.8419342920006,597.3187198750002,598.4474921670007,598.4474921670007,x,4.40994099999989,None,,,,,,,,,,,yupaen,001,2025-02-27_15h08.33.218,MainFlow,2024.1.5,None,2025-02-27 15h08.43.435955 +0700,
2,71,1,word/worden0711.png,image/True/img71.png,0,85,85,85,602.8725155419997,,,,,,,604.3683719590008,603.8521528750007,603.8756625000005,603.8756625000005,604.3641345420001,605.4943304999997,605.4943304999997,z,2.4038271670015092,None,,,,,,,,,,,yupaen,001,2025-02-27_15h08.33.218,MainFlow,2024.1.5,None,2025-02-27 15h08.43.435955 +0700,
2,3,1,word/worden0031.png,image/True/img03.png,0,86,86,86,607.9141287500006,,,,,,,609.4140048339996,608.8979562500008,608.9220327500007,608.9220327500007,609.4019066250003,610.5352058339995,610.5352058339995,z,1.7538179580005817,None,608.9220327500007,,,,,,,,,,yupaen,001,2025-02-27_15h08.33.218,MainFlow,2024.1.5,None,2025-02-27 15h08.43.435955 +0700,
2,52,1,word/worden0521.png,image/True/img52.png,0,87,87,87,612.3060474590002,,,,,,,613.7973864169999,613.285012667,613.3090376250002,613.3090376250002,613.7853152500011,614.9249222500002,614.9249222500002,z,3.5638674159999937,None,,,,,,,,,,,yupaen,001,2025-02-27_15h08.33.218,MainFlow,2024.1.5,None,2025-02-27 15h08.43.435955 +0700,
2,95,0,word/worden0951.png,image/False/imgf95.png,0,88,88,88,618.5059833340001,,,,,,,619.9973319590008,619.4849816250007,619.5084667089995,619.5084667089995,619.9850424590004,621.1258265420001,621.1258265420001,z,6.355465832999471,None,,,,,,,,,,,yupaen,001,2025-02-27_15h08.33.218,MainFlow,2024.1.5,None,2025-02-27 15h08.43.435955 +0700,
2,6,0,word/worden0061.png,image/False/imgf06.png,0,89,89,89,627.4973174170009,,,,,,,628.9972280000002,628.4810209999996,628.5052204590011,628.5052204590011,628.9856071249997,630.0929264999995,630.0929264999995,x,5.053179083000941,None,628.5052204590011,,,,,,,,,,yupaen,001,2025-02-27_15h08.33.218,MainFlow,2024.1.5,None,2025-02-27 15h08.43.435955 +0700,
2,79,1,word/worden0791.png,image/True/img79.png,0,90,90,90,635.1555233340005,,,,,,,636.6515252090012,636.135456,636.1596167500011,636.1596167500011,636.6473074170008,637.7670203340003,637.7670203340003,z,10.098075417001382,None,,,,,,,,,,,yupaen,001,2025-02-27_15h08.33.218,MainFlow,2024.1.5,None,2025-02-27 15h08.43.435955 +0700,
2,61,0,word/worden0611.png,image/False/imgf61.png,0,91,91,91,647.8802951670004,,,,,,,649.3803700839999,648.864331834,648.8900290000001,648.8900290000001,649.3688401250001,650.506837125,650.506837125,z,7.422450709000259,None,648.8900290000001,,,,,,,,,,yupaen,001,2025-02-27_15h08.33.218,MainFlow,2024.1.5,None,2025-02-27 15h08.43.435955 +0700,
2,46,0,word/worden0461.png,image/False/imgf46.png,0,92,92,92,657.9386352500005,,,,,,,659.4348099170002,658.9185128749996,658.9423095840011,658.9423095840011,659.4305308750008,660.5686859590005,660.5686859590005,x,2.096522541000013,None,,,,,,,,,,,yupaen,001,2025-02-27_15h08.33.218,MainFlow,2024.1.5,None,2025-02-27 15h08.43.435955 +0700,
2,89,1,word/worden0891.png,image/True/img89.png,0,93,93,93,662.6802670840007,,,,,,,664.1804887920007,663.6639940420009,663.6877789170012,663.6877789170012,664.1683533340001,665.2788485000001,665.2788485000001,z,2.937661666001077,None,663.6877789170012,,,,,,,,,,yupaen,001,2025-02-27_15h08.33.218,MainFlow,2024.1.5,None,2025-02-27 15h08.43.435955 +0700,
2,26,0,word/worden0261.png,image/False/imgf26.png,0,94,94,94,668.2303224170009,,,,,,,669.7303696670006,669.2141099590008,669.2378598750001,669.2378598750001,669.7182896249997,670.8633704590011,670.8633704590011,x,1.5207552499996382,None,669.2378598750001,,,,,,,,,,yupaen,001,2025-02-27_15h08.33.218,MainFlow,2024.1.5,None,2025-02-27 15h08.43.435955 +0700,
2,44,0,word/worden0441.png,image/False/imgf44.png,0,95,95,95,672.3970203749996,,,,,,,673.8970340420001,673.3807815,673.4054021250013,673.4054021250013,673.8847628340009,675.0275780000011,675.0275780000011,z,2.477844915998503,None,673.4054021250013,,,,,,,,,,yupaen,001,2025-02-27_15h08.33.218,MainFlow,2024.1.5,None,2025-02-27 15h08.43.435955 +0700,
2,82,1,word/worden0821.png,image/True/img82.png,0,96,96,96,677.5215861249999,,,,,,,679.0180506670004,678.5017891250009,678.5259999999998,678.5259999999998,679.0137467500008,680.104433292001,680.104433292001,z,7.0407932920006715,None,,,,,,,,,,,yupaen,001,2025-02-27_15h08.33.218,MainFlow,2024.1.5,None,2025-02-27 15h08.43.435955 +0700,
2,16,1,word/worden0161.png,image/True/img16.png,0,97,97,97,687.1551293339999,,,,,,,688.6513045419997,688.1351395840011,688.1584206669995,688.1584206669995,688.6470835,689.7840078749996,689.7840078749996,x,3.2886769579999964,None,,,,,,,,,,,yupaen,001,2025-02-27_15h08.33.218,MainFlow,2024.1.5,None,2025-02-27 15h08.43.435955 +0700,
2,20,1,word/worden0201.png,image/True/img20.png,0,98,98,98,693.088448292001,,,,,,,694.5851136250003,694.0685611669996,694.0932424170005,694.0932424170005,694.580372542001,695.710191084001,695.710191084001,x,3.9950421249995998,None,,,,,,,,,,,yupaen,001,2025-02-27_15h08.33.218,MainFlow,2024.1.5,None,2025-02-27 15h08.43.435955 +0700,
2,20,1,word/worden0201.png,image/True/img20.png,0,99,99,99,699.7214225420012,,,,,,,701.2135248750001,700.6973669590006,700.7224912090005,700.7224912090005,701.2021343340002,702.3383845839999,702.3383845839999,z,7.07904895899992,None,,,,,,,,,,,yupaen,001,2025-02-27_15h08.33.218,MainFlow,2024.1.5,None,2025-02-27 15h08.43.435955 +0700,
2,96,1,word/worden0961.png,image/True/img96.png,0,100,100,100,709.4300331249997,,,,,,,710.930190000001,710.4137583749998,710.4377157090003,710.4377157090003,710.9180771669999,712.0479539589996,712.0479539589996,z,6.4816608330002055,None,710.4377157090003,,,,,,,,,,yupaen,001,2025-02-27_15h08.33.218,MainFlow,2024.1.5,None,2025-02-27 15h08.43.435955 +0700,
2,64,1,word/worden0641.png,image/True/img64.png,0,101,101,101,718.5379864170009,,,,,,,720.030076084,719.5178155000012,719.5424776250002,719.5424776250002,720.0185598340013,721.1313775840008,721.1313775840008,z,2.572853915999076,None,,,,,,,,,,,yupaen,001,2025-02-27_15h08.33.218,MainFlow,2024.1.5,None,2025-02-27 15h08.43.435955 +0700,
2,78,0,word/worden0781.png,image/False/imgf78.png,0,102,102,102,723.7217297919997,,,,,,,725.2181840840003,724.7015950000005,724.7252318749997,724.7252318749997,725.2134882090013,726.3162903749999,726.3162903749999,x,1.6520244579987775,None,,,,,,,,,,,yupaen,001,2025-02-27_15h08.33.218,MainFlow,2024.1.5,None,2025-02-27 15h08.43.435955 +0700,
2,20,0,word/worden0201.png,image/False/imgf20.png,0,103,103,103,727.9790292500002,,,,,,,729.4800945420011,728.9637426669997,728.9880612500001,728.9880612500001,729.4679442920005,730.620271834001,730.620271834001,x,1.8363016250004875,None,728.9880612500001,,,,,,,,,,yupaen,001,2025-02-27_15h08.33.218,MainFlow,2024.1.5,None,2025-02-27 15h08.43.435955 +0700,
2,89,1,word/worden0891.png,image/True/img89.png,0,104,104,104,732.4722017500007,,,,,,,733.963355584001,733.4513312090003,733.4745176670003,733.4745176670003,733.9517582090011,735.065255042,735.065255042,z,6.767794916999264,None,,,,,,,,,,,yupaen,001,2025-02-27_15h08.33.218,MainFlow,2024.1.5,None,2025-02-27 15h08.43.435955 +0700,
2,59,0,word/worden0591.png,image/False/imgf59.png,0,105,105,105,741.8467454590009,,,,,,,743.3465716669998,742.8306088749996,742.8550011250009,742.8550011250009,743.334487125001,744.4366583749998,744.4366583749998,x,4.732025166000312,None,742.8550011250009,,,,,,,,,,yupaen,001,2025-02-27_15h08.33.218,MainFlow,2024.1.5,None,2025-02-27 15h08.43.435955 +0700,
2,24,0,word/worden0241.png,image/False/imgf24.png,0,106,106,106,749.1854132919998,,,,,,,750.6840670000001,750.1680332920005,750.1911683750004,750.1911683750004,750.6798427499998,751.7880487500006,751.7880487500006,x,6.180861042001197,None,,,,,,,,,,,yupaen,001,2025-02-27_15h08.33.218,MainFlow,2024.1.5,None,2025-02-27 15h08.43.435955 +0700,
2,28,0,word/worden0281.png,image/False/imgf28.png,0,107,107,107,757.9852198749995,,,,,,,759.4846126249995,758.968135000001,758.991933792,758.991933792,759.4799623750005,760.5927655840005,760.5927655840005,z,6.7429127499999595,None,758.991933792,,,,,,,,,,yupaen,001,2025-02-27_15h08.33.218,MainFlow,2024.1.5,None,2025-02-27 15h08.43.435955 +0700,
2,15,0,word/worden0151.png,image/False/imgf15.png,0,108,108,108,767.3518318340011,,,,,,,768.850743459001,768.33465325,768.3580949170009,768.3580949170009,768.8465395000003,769.9600788750013,769.9600788750013,x,2.137696165998932,None,768.3580949170009,,,,,,,,,,yupaen,001,2025-02-27_15h08.33.218,MainFlow,2024.1.5,None,2025-02-27 15h08.43.435955 +0700,
2,30,1,word/worden0301.png,image/True/img30.png,0,109,109,109,772.1130783339995,,,,,,,773.612948,773.0968568340013,773.1215426670005,773.1215426670005,773.6014532500012,774.7179982090001,774.7179982090001,x,5.298945167000056,None,773.1215426670005,,,,,,,,,,yupaen,001,2025-02-27_15h08.33.218,MainFlow,2024.1.5,None,2025-02-27 15h08.43.435955 +0700,
2,64,1,word/worden0641.png,image/True/img64.png,0,110,110,110,780.0295959590003,,,,,,,781.5297613340008,781.0135528339997,781.0383727919998,781.0383727919998,781.5176363749997,782.6249566250008,782.6249566250008,z,2.1599794590001693,None,781.0383727919998,,,,,,,,,,yupaen,001,2025-02-27_15h08.33.218,MainFlow,2024.1.5,None,2025-02-27 15h08.43.435955 +0700,
2,52,0,word/worden0521.png,image/False/imgf52.png,0,111,111,111,784.8019128750002,,,,,,,786.2963880420011,785.7846179589997,785.8082063750007,785.8082063750007,786.2846786250011,787.4058668750004,787.4058668750004,x,1.754955833999702,None,785.8082063750007,,,,,,,,,,yupaen,001,2025-02-27_15h08.33.218,MainFlow,2024.1.5,None,2025-02-27 15h08.43.435955 +0700,
2,33,1,word/worden0331.png,image/True/img33.png,0,112,112,112,789.1714632090006,,,,,,,790.663092584,790.1508751250003,790.1758673340009,790.1758673340009,790.651245084,791.7815218340002,791.7815218340002,x,5.2348544579999725,None,,,,,,,,,,,yupaen,001,2025-02-27_15h08.33.218,MainFlow,2024.1.5,None,2025-02-27 15h08.43.435955 +0700,
2,23,1,word/worden0231.png,image/True/img23.png,0,113,113,113,797.0295238340004,,,,,,,798.5296855420002,798.0132927499999,798.0375005000005,798.0375005000005,798.5178471670006,799.6433474170008,799.6433474170008,x,3.1972261249993608,None,798.0375005000005,,,,,,,,,,yupaen,001,2025-02-27_15h08.33.218,MainFlow,2024.1.5,None,2025-02-27 15h08.43.435955 +0700,
2,11,1,word/worden0111.png,image/True/img11.png,0,114,114,114,802.8545926250008,,,,,,,804.3462990420012,803.8337077920005,803.8574749590007,803.8574749590007,804.3341490000003,805.4853370420005,805.4853370420005,z,2.4042070420000528,None,,,,,,,,,,,yupaen,001,2025-02-27_15h08.33.218,MainFlow,2024.1.5,None,2025-02-27 15h08.43.435955 +0700,
2,22,1,word/worden0221.png,image/True/img22.png,0,115,115,115,807.9045235840003,,,,,,,809.4004555840002,808.8844616670012,808.9078156249998,808.9078156249998,809.3963057500005,810.5400892090001,810.5400892090001,x,11.34047833400109,None,,,,,,,,,,,yupaen,001,2025-02-27_15h08.33.218,MainFlow,2024.1.5,None,2025-02-27 15h08.43.435955 +0700,
2,37,0,word/worden0371.png,image/False/imgf37.png,0,116,116,116,821.8961773749998,,,,,,,823.3959850840001,822.8799179170001,822.9043471250006,822.9043471250006,823.3840493750013,824.537493875001,824.537493875001,x,3.160184416999982,None,822.9043471250006,,,,,,,,,,yupaen,001,2025-02-27_15h08.33.218,MainFlow,2024.1.5,None,2025-02-27 15h08.43.435955 +0700,
2,79,0,word/worden0791.png,image/False/imgf79.png,0,117,117,117,827.7127985420011,,,,,,,829.2128672920007,828.6964431249999,828.7212523340004,828.7212523340004,829.200786667001,830.3354318340007,830.3354318340007,x,3.4004922920012177,None,828.7212523340004,,,,,,,,,,yupaen,001,2025-02-27_15h08.33.218,MainFlow,2024.1.5,None,2025-02-27 15h08.43.435955 +0700,
2,56,1,word/worden0561.png,image/True/img56.png,0,118,118,118,833.7539644999997,,,,,,,835.2460276250004,834.7338985000006,834.757221875001,834.757221875001,835.2343762090004,836.3616621670008,836.3616621670008,z,4.710652207999374,None,,,,,,,,,,,yupaen,001,2025-02-27_15h08.33.218,MainFlow,2024.1.5,None,2025-02-27 15h08.43.435955 +0700,
2,68,1,word/worden0681.png,image/True/img68.png,0,119,119,119,841.0881178340005,,,,,,,842.583760042,842.0670543750002,842.0904490419998,842.0904490419998,842.5795511249999,843.6763924170009,843.6763924170009,z,2.5003800419999607,None,,,,,,,,,,,yupaen,001,2025-02-27_15h08.33.218,MainFlow,2024.1.5,None,2025-02-27 15h08.43.435955 +0700,
2,27,0,word/worden0271.png,image/False/imgf27.png,0,120,120,120,846.1878000420002,,,,,,,847.6793927090002,847.1670343750011,847.1905573340009,847.1905573340009,847.6673225840004,848.7926523340011,848.7926523340011,x,4.639636832998804,None,,,,,,,,,,,yupaen,001,2025-02-27_15h08.33.218,MainFlow,2024.1.5,None,2025-02-27 15h08.43.435955 +0700,
2,3,1,word/worden0031.png,image/True/img03.png,0,121,121,121,853.4459973749999,,,,,,,854.9459612499995,854.4298870840012,854.4546444999996,854.4546444999996,854.9338920000009,856.0618665420006,856.0618665420006,z,1.0735976249998203,None,854.4546444999996,,,,,,,,,,yupaen,001,2025-02-27_15h08.33.218,MainFlow,2024.1.5,None,2025-02-27 15h08.43.435955 +0700,
2,38,0,word/worden0381.png,image/False/imgf38.png,0,122,122,122,857.1514000000006,,,,,,,858.6460741250012,858.133602584001,858.1564858340007,858.1564858340007,858.633986584,859.7885816670005,859.7885816670005,x,6.29198179100058,None,,,,,,,,,,,yupaen,001,2025-02-27_15h08.33.218,MainFlow,2024.1.5,None,2025-02-27 15h08.43.435955 +0700,
2,59,1,word/worden0591.png,image/True/img59.png,0,123,123,123,866.0958531249998,,,,,,,867.5957845419998,867.0796154170002,867.1037534589996,867.1037534589996,867.5841727919997,868.6903272090003,868.6903272090003,x,7.239556417000131,None,867.1037534589996,,,,,,,,,,yupaen,001,2025-02-27_15h08.33.218,MainFlow,2024.1.5,None,2025-02-27 15h08.43.435955 +0700,
2,18,1,word/worden0181.png,image/True/img18.png,0,124,124,124,875.9458986250011,,,,,,,877.4458117499998,876.9295270840012,876.9529913750011,876.9529913750011,877.4336609170005,878.543476709001,878.543476709001,z,1.5922255000004952,None,876.9529913750011,,,,,,,,,,yupaen,001,2025-02-27_15h08.33.218,MainFlow,2024.1.5,None,2025-02-27 15h08.43.435955 +0700,
2,60,1,word/worden0601.png,image/True/img60.png,0,125,125,125,880.151582167,,,,,,,881.6500084590007,881.1340082919996,881.1569257499996,881.1569257499996,881.6458482090002,882.7565190839996,882.7565190839996,x,4.0842949580001005,None,,,,,,,,,,,yupaen,001,2025-02-27_15h08.33.218,MainFlow,2024.1.5,None,2025-02-27 15h08.43.435955 +0700,
2,9,1,word/worden0091.png,image/True/img09.png,0,126,126,126,886.8543039169999,,,,,,,888.3499267919997,887.833972167,887.8575192919998,887.8575192919998,888.3457724170003,889.4332348340013,889.4332348340013,x,4.751330458000666,None,,,,,,,,,,,yupaen,001,2025-02-27_15h08.33.218,MainFlow,2024.1.5,None,2025-02-27 15h08.43.435955 +0700,
2,9,0,word/worden0091.png,image/False/imgf09.png,0,127,127,127,894.1994344590003,,,,,,,895.695686084,895.1795375420006,895.2035032500007,895.2035032500007,895.6835900839997,896.7879325840004,896.7879325840004,x,2.6444981670010748,None,,,,,,,,,,,yupaen,001,2025-02-27_15h08.33.218,MainFlow,2024.1.5,None,2025-02-27 15h08.43.435955 +0700,
2,94,0,word/worden0941.png,image/False/imgf94.png,0,128,128,128,899.4458270840005,,,,,,,900.9456502089997,900.4295032090013,900.4542665839999,900.4542665839999,900.9336146250007,902.0780209590012,902.0780209590012,x,3.4423207079998974,None,900.4542665839999,,,,,,,,,,yupaen,001,2025-02-27_15h08.33.218,MainFlow,2024.1.5,None,2025-02-27 15h08.43.435955 +0700,
2,66,1,word/worden0661.png,image/True/img66.png,0,129,129,129,905.5372592090007,,,,,,,907.0331756670003,906.5172009590005,906.5414138340002,906.5414138340002,907.0290101250012,908.1468349170009,908.1468349170009,z,4.405344917000548,None,,,,,,,,,,,yupaen,001,2025-02-27_15h08.33.218,MainFlow,2024.1.5,None,2025-02-27 15h08.43.435955 +0700,
2,1,0,word/worden0011.png,image/False/imgf01.png,0,130,130,130,912.5684287500007,,,,,,,914.0666933749999,913.5501417920004,913.5743216250012,913.5743216250012,914.0624495000011,915.1721205419999,915.1721205419999,x,1.5237157910014503,None,,,,,,,,,,,yupaen,001,2025-02-27_15h08.33.218,MainFlow,2024.1.5,None,2025-02-27 15h08.43.435955 +0700,
2,89,0,word/worden0891.png,image/False/imgf89.png,0,131,131,131,916.7045628340002,,,,,,,918.1956952090004,917.6833703339998,917.7064119999995,917.7064119999995,918.1834729590009,919.3085238340009,919.3085238340009,x,2.021474916000443,None,,,,,,,,,,,yupaen,001,2025-02-27_15h08.33.218,MainFlow,2024.1.5,None,2025-02-27 15h08.43.435955 +0700,
2,48,1,word/worden0481.png,image/True/img48.png,0,132,132,132,921.3454164590003,,,,,,,922.8455754170009,922.3292482920006,922.3524753340007,922.3524753340007,922.8334844170004,923.9677543750004,923.9677543750004,z,2.112853249998807,None,922.3524753340007,,,,,,,,,,yupaen,001,2025-02-27_15h08.33.218,MainFlow,2024.1.5,None,2025-02-27 15h08.43.435955 +0700,
2,63,0,word/worden0631.png,image/False/imgf63.png,0,133,133,133,926.0954209169995,,,,,,,927.5956172500009,927.0792642920005,927.1026111250012,927.1026111250012,927.5835036669996,928.7231628749996,928.7231628749996,x,6.540413875000013,None,927.1026111250012,,,,,,,,,,yupaen,001,2025-02-27_15h08.33.218,MainFlow,2024.1.5,None,2025-02-27 15h08.43.435955 +0700,
2,23,1,word/worden0231.png,image/True/img23.png,0,134,134,134,935.2786296670001,,,,,,,936.7787888750008,936.2626946250002,936.2872915420012,936.2872915420012,936.7674570420004,937.8931075,937.8931075,x,3.8997070839996013,None,936.2872915420012,,,,,,,,,,yupaen,001,2025-02-27_15h08.33.218,MainFlow,2024.1.5,None,2025-02-27 15h08.43.435955 +0700,
2,40,0,word/worden0401.png,image/False/imgf40.png,0,135,135,135,941.8036820420002,,,,,,,943.3000302920009,942.7836129999996,942.8073501670005,942.8073501670005,943.2956034590006,944.4123570000011,944.4123570000011,x,2.843906957999934,None,,,,,,,,,,,yupaen,001,2025-02-27_15h08.33.218,MainFlow,2024.1.5,None,2025-02-27 15h08.43.435955 +0700,
2,52,1,word/worden0521.png,image/True/img52.png,0,136,136,136,947.2707302920007,,,,,,,948.762087000001,948.2505059590003,948.2749101669997,948.2749101669997,948.7507179590011,949.8898888750009,949.8898888750009,z,4.966388625000036,None,,,,,,,,,,,yupaen,001,2025-02-27_15h08.33.218,MainFlow,2024.1.5,None,2025-02-27 15h08.43.435955 +0700,
2,30,1,word/worden0301.png,image/True/img30.png,0,137,137,137,954.8704443340011,,,,,,,956.3667560840004,955.8499514590003,955.8746215840001,955.8746215840001,956.362088834001,957.4699816250013,957.4699816250013,x,7.89751220800099,None,,,,,,,,,,,yupaen,001,2025-02-27_15h08.33.218,MainFlow,2024.1.5,None,2025-02-27 15h08.43.435955 +0700,
2,15,1,word/worden0151.png,image/True/img15.png,0,138,138,138,965.3840933339998,,,,,,,966.8788012090008,966.366798084,966.3903157500008,966.3903157500008,966.8668615420011,968.0118746250009,968.0118746250009,z,10.517329958998744,None,966.3903157500008,,,,,,,,,,yupaen,001,2025-02-27_15h08.33.218,MainFlow,2024.1.5,None,2025-02-27 15h08.43.435955 +0700,
2,46,1,word/worden0461.png,image/True/img46.png,0,139,139,139,978.5452833750005,,,,,,,980.0453053340007,979.5289392499999,979.5529169170004,979.5529169170004,980.0333296669996,981.1796354590006,981.1796354590006,x,3.4365159169992694,None,979.5529169170004,,,,,,,,,,yupaen,001,2025-02-27_15h08.33.218,MainFlow,2024.1.5,None,2025-02-27 15h08.43.435955 +0700,
2,14,1,word/worden0141.png,image/True/img14.png,0,140,140,140,984.6284240420009,,,,,,,986.1285707919997,985.6123315839995,985.6365033750008,985.6365033750008,986.1170389590006,987.2456611670004,987.2456611670004,z,2.9862824579995504,None,985.6365033750008,,,,,,,,,,yupaen,001,2025-02-27_15h08.33.218,MainFlow,2024.1.5,None,2025-02-27 15h08.43.435955 +0700,
2,66,0,word/worden0661.png,image/False/imgf66.png,0,141,141,141,990.2452862500013,,,,,,,991.745102584,991.228921625001,991.2532760840004,991.2532760840004,991.7330257089998,992.8609600840009,992.8609600840009,x,7.371208959000796,None,991.2532760840004,,,,,,,,,,yupaen,001,2025-02-27_15h08.33.218,MainFlow,2024.1.5,None,2025-02-27 15h08.43.435955 +0700,
2,46,0,word/worden0461.png,image/False/imgf46.png,0,142,142,142,1000.245097209001,,,,,,,1001.7450795420009,1001.2288528749996,1001.2532276250004,1001.2532276250004,1001.7329669999999,1002.8749798339995,1002.8749798339995,x,3.7890411669995956,None,1001.2532276250004,,,,,,,,,,yupaen,001,2025-02-27_15h08.33.218,MainFlow,2024.1.5,None,2025-02-27 15h08.43.435955 +0700,
2,18,1,word/worden0181.png,image/True/img18.png,0,143,143,143,1006.6783544999998,,,,,,,1008.1784430839998,1007.6621549169995,1007.6866505840007,1007.6866505840007,1008.1669008749996,1009.2768324170011,1009.2768324170011,z,2.211458292000316,None,1007.6866505840007,,,,,,,,,,yupaen,001,2025-02-27_15h08.33.218,MainFlow,2024.1.5,None,2025-02-27 15h08.43.435955 +0700,
2,51,0,word/worden0511.png,image/False/imgf51.png,0,144,144,144,1011.5035052090007,,,,,,,1012.9992190840003,1012.4834436670008,1012.5081690839997,1012.5081690839997,1012.9950982499995,1014.1009748340002,1014.1009748340002,x,2.9079018749998795,None,,,,,,,,,,,yupaen,001,2025-02-27_15h08.33.218,MainFlow,2024.1.5,None,2025-02-27 15h08.43.435955 +0700,
2,76,1,word/worden0761.png,image/True/img76.png,0,145,145,145,1017.0202255420008,,,,,,,1018.5160395840012,1017.9999146669998,1018.0235732500005,1018.0235732500005,1018.5119127500002,1019.6304942919996,1019.6304942919996,x,2.2744714579985157,None,,,,,,,,,,,yupaen,001,2025-02-27_15h08.33.218,MainFlow,2024.1.5,None,2025-02-27 15h08.43.435955 +0700,
2,57,1,word/worden0571.png,image/True/img57.png,0,146,146,146,1021.919731,,,,,,,1023.4164687499997,1022.8998545000013,1022.9244953340003,1022.9244953340003,1023.4117892499999,1024.539793834001,1024.539793834001,z,6.924742624998544,None,,,,,,,,,,,yupaen,001,2025-02-27_15h08.33.218,MainFlow,2024.1.5,None,2025-02-27 15h08.43.435955 +0700,
2,48,0,word/worden0481.png,image/False/imgf48.png,0,147,147,147,1031.4782547920004,,,,,,,1032.9783575000001,1032.4620789590008,1032.4877306670005,1032.4877306670005,1032.9665264169998,1034.1102368339998,1034.1102368339998,x,1.8192352909991314,None,1032.4877306670005,,,,,,,,,,yupaen,001,2025-02-27_15h08.33.218,MainFlow,2024.1.5,None,2025-02-27 15h08.43.435955 +0700,
2,37,0,word/worden0371.png,image/False/imgf37.png,0,148,148,148,1035.945038875001,,,,,,,1037.44488775,1036.928557917001,1036.952591542,1036.952591542,1037.4327630839998,1038.5864945840003,1038.5864945840003,x,3.8615608330001123,None,1036.952591542,,,,,,,,,,yupaen,001,2025-02-27_15h08.33.218,MainFlow,2024.1.5,None,2025-02-27 15h08.43.435955 +0700,
2,60,0,word/worden0601.png,image/False/imgf60.png,0,149,149,149,1042.4614435840012,,,,,,,1043.961583417,1043.4452419589998,1043.4705157090011,1043.4705157090011,1043.9494644170009,1045.0759233749995,1045.0759233749995,x,1.29155633299888,None,1043.4705157090011,,,,,,,,,,yupaen,001,2025-02-27_15h08.33.218,MainFlow,2024.1.5,None,2025-02-27 15h08.43.435955 +0700,
2,24,1,word/worden0241.png,image/True/img24.png,0,150,150,150,1046.383865875001,,,,,,,1047.8823488750004,1047.3663301670003,1047.3900799170005,1047.3900799170005,1047.8782950839995,1048.9708128750008,1048.9708128750008,x,1.4056642089999514,None,,,,,,,,,,,yupaen,001,2025-02-27_15h08.33.218,MainFlow,2024.1.5,None,2025-02-27 15h08.43.435955 +0700,
2,40,1,word/worden0401.png,image/True/img40.png,0,151,151,151,1050.3866569170004,,,,,,,1051.8825267499997,1051.3663080000006,1051.389324875001,1051.389324875001,1051.8783372920007,1053.0199150839999,1053.0199150839999,x,10.476892874999976,None,,,,,,,,,,,yupaen,001,2025-02-27_15h08.33.218,MainFlow,2024.1.5,None,2025-02-27 15h08.43.435955 +0700,
2,54,1,word/worden0541.png,image/True/img54.png,0,152,152,152,1063.5115185840004,,,,,,,1065.011417875001,1064.495288334001,1064.517404917,1064.517404917,1064.9992539169998,1066.1407077500007,1066.1407077500007,x,15.371583083000587,None,1064.517404917,,,,,,,,,,yupaen,001,2025-02-27_15h08.33.218,MainFlow,2024.1.5,None,2025-02-27 15h08.43.435955 +0700,
2,44,0,word/worden0441.png,image/False/imgf44.png,0,153,153,153,1081.5279407500002,,,,,,,1083.0281469590009,1082.5117382919998,1082.5364837920006,1082.5364837920006,1083.01576475,1084.1573095420008,1084.1573095420008,z,4.923066166998979,None,1082.5364837920006,,,,,,,,,,yupaen,001,2025-02-27_15h08.33.218,MainFlow,2024.1.5,None,2025-02-27 15h08.43.435955 +0700,
2,79,1,word/worden0791.png,image/True/img79.png,0,154,154,154,1089.0947452920009,,,,,,,1090.5945392920003,1090.0784317090001,1090.1031480000001,1090.1031480000001,1090.5829709999998,1091.7097769169995,1091.7097769169995,z,3.0993621249999705,None,1090.1031480000001,,,,,,,,,,yupaen,001,2025-02-27_15h08.33.218,MainFlow,2024.1.5,None,2025-02-27 15h08.43.435955 +0700,
2,95,1,word/worden0951.png,image/True/img95.png,0,155,155,155,1094.819361209,,,,,,,1096.311234334,1095.7984054589997,1095.8209839170013,1095.8209839170013,1096.299153334001,1097.4467437090007,1097.4467437090007,x,4.521905125000558,None,,,,,,,,,,,yupaen,001,2025-02-27_15h08.33.218,MainFlow,2024.1.5,None,2025-02-27 15h08.43.435955 +0700,
2,37,1,word/worden0371.png,image/True/img37.png,0,156,156,156,1101.9862435840005,,,,,,,1103.4778517920004,1102.9656042919996,1102.9892640840008,1102.9892640840008,1103.4657866670004,1104.6188119170001,1104.6188119170001,x,1.396839084000021,None,,,,,,,,,,,yupaen,001,2025-02-27_15h08.33.218,MainFlow,2024.1.5,None,2025-02-27 15h08.43.435955 +0700,
2,70,1,word/worden0701.png,image/True/img70.png,0,157,157,157,1106.027683542001,,,,,,,1107.5278447500004,1107.011619334,1107.0365540000003,1107.0365540000003,1107.5164746250011,1108.6485611669996,1108.6485611669996,z,5.6644371670008695,None,1107.0365540000003,,,,,,,,,,yupaen,001,2025-02-27_15h08.33.218,MainFlow,2024.1.5,None,2025-02-27 15h08.43.435955 +0700,
2,40,1,word/worden0401.png,image/True/img40.png,0,158,158,158,1114.3277794170008,,,,,,,1115.8277871250011,1115.311570209,1115.3357434589998,1115.3357434589998,1115.8157138750012,1116.966458084,1116.966458084,x,12.08155112500026,None,1115.3357434589998,,,,,,,,,,yupaen,001,2025-02-27_15h08.33.218,MainFlow,2024.1.5,None,2025-02-27 15h08.43.435955 +0700,
2,30,0,word/worden0301.png,image/False/imgf30.png,0,159,159,159,1129.0610157089995,,,,,,,1130.5610345000005,1130.044721792001,1130.0696785,1130.0696785,1130.549437167001,1131.6726522090012,1131.6726522090012,z,6.304746291998526,None,1130.0696785,,,,,,,,,,yupaen,001,2025-02-27_15h08.33.218,MainFlow,2024.1.5,None,2025-02-27 15h08.43.435955 +0700,
2,88,1,word/worden0881.png,image/True/img88.png,0,160,160,160,1137.9861684589996,,,,,,,1139.4818592499996,1138.9658643340008,1138.9901012499995,1138.9901012499995,1139.4776853340009,1140.607124,1140.607124,x,7.08864495799935,None,,,,,,,,,,,yupaen,001,2025-02-27_15h08.33.218,MainFlow,2024.1.5,None,2025-02-27 15h08.43.435955 +0700,
2,15,1,word/worden0151.png,image/True/img15.png,0,161,161,161,1147.7109628340004,,,,,,,1149.2110538340003,1148.6946945,1148.7188371250013,1148.7188371250013,1149.1989359590007,1150.3378272090013,1150.3378272090013,z,1.2713375000002998,None,1148.7188371250013,,,,,,,,,,yupaen,001,2025-02-27_15h08.33.218,MainFlow,2024.1.5,None,2025-02-27 15h08.43.435955 +0700,
2,54,1,word/worden0541.png,image/True/img54.png,0,162,162,162,1151.619025584001,,,,,,,1153.1106499590005,1152.5986917500013,1152.6217677500008,1152.6217677500008,1153.098835584,1154.2525587090004,1154.2525587090004,z,9.33990566600005,None,,,,,,,,,,,yupaen,001,2025-02-27_15h08.33.218,MainFlow,2024.1.5,None,2025-02-27 15h08.43.435955 +0700,
2,11,0,word/worden0111.png,image/False/imgf11.png,0,163,163,163,1163.602532459001,,,,,,,1165.098453042001,1164.5824159170006,1164.6064972920012,1164.6064972920012,1165.0943200420006,1166.2287055420002,1166.2287055420002,x,1.3479246660008357,None,,,,,,,,,,,yupaen,001,2025-02-27_15h08.33.218,MainFlow,2024.1.5,None,2025-02-27 15h08.43.435955 +0700,
2,16,1,word/worden0161.png,image/True/img16.png,0,164,164,164,1167.5861760420012,,,,,,,1169.077455875,1168.5651312500013,1168.5880715420008,1168.5880715420008,1169.0654265840003,1170.213898334001,1170.213898334001,x,2.633809292001388,None,,,,,,,,,,,yupaen,001,2025-02-27_15h08.33.218,MainFlow,2024.1.5,None,2025-02-27 15h08.43.435955 +0700,
2,1,1,word/worden0011.png,image/True/img01.png,0,165,165,165,1172.8607098339999,,,,,,,1174.3607311670003,1173.8445517500004,1173.8692033750012,1173.8692033750012,1174.3486175840007,1175.4850635420007,1175.4850635420007,z,3.1950034589990537,None,1173.8692033750012,,,,,,,,,,yupaen,001,2025-02-27_15h08.33.218,MainFlow,2024.1.5,None,2025-02-27 15h08.43.435955 +0700,
2,22,0,word/worden0221.png,image/False/imgf22.png,0,166,166,166,1178.6940855000012,,,,,,,1180.194087875001,1179.677933125,1179.7024702090002,1179.7024702090002,1180.1819600840008,1181.3230210420006,1181.3230210420006,x,3.4455042499994306,None,1179.7024702090002,,,,,,,,,,yupaen,001,2025-02-27_15h08.33.218,MainFlow,2024.1.5,None,2025-02-27 15h08.43.435955 +0700,
2,63,1,word/worden0631.png,image/True/img63.png,0,167,167,167,1184.785892834001,,,,,,,1186.2816067920012,1185.7652250419997,1185.788474459001,1185.788474459001,1186.2773792919998,1187.4000673339997,1187.4000673339997,x,5.879668750001656,None,,,,,,,,,,,yupaen,001,2025-02-27_15h08.33.218,MainFlow,2024.1.5,None,2025-02-27 15h08.43.435955 +0700,
2,87,1,word/worden0871.png,image/True/img87.png,0,168,168,168,1193.293970625,,,,,,,1194.794081125001,1194.2777098750012,1194.3011238340005,1194.3011238340005,1194.7819988749998,1195.9164547500004,1195.9164547500004,x,9.955463790998692,None,1194.3011238340005,,,,,,,,,,yupaen,001,2025-02-27_15h08.33.218,MainFlow,2024.1.5,None,2025-02-27 15h08.43.435955 +0700,
2,57,0,word/worden0571.png,image/False/imgf57.png,0,169,169,169,1205.8855861250013,,,,,,,1207.3814497920011,1206.8656232089998,1206.8896427920008,1206.8896427920008,1207.3772642920012,1208.5022384170006,1208.5022384170006,x,1.5133992080009193,None,,,,,,,,,,,yupaen,001,2025-02-27_15h08.33.218,MainFlow,2024.1.5,None,2025-02-27 15h08.43.435955 +0700,
2,94,0,word/worden0941.png,image/False/imgf94.png,0,170,170,170,1210.0263494170013,,,,,,,1211.5273055420002,1211.0109603750006,1211.035305917001,1211.035305917001,1211.515058250001,1212.646544000001,1212.646544000001,x,0.9685622079996392,None,1211.035305917001,,,,,,,,,,yupaen,001,2025-02-27_15h08.33.218,MainFlow,2024.1.5,None,2025-02-27 15h08.43.435955 +0700,
2,93,0,word/worden0931.png,image/False/imgf93.png,0,171,171,171,1213.6262603750001,,,,,,,1215.1149592090005,1214.610452125,1214.6357620420004,1214.6357620420004,1215.1107554999999,1216.2286255,1216.2286255,x,4.818946083998526,None,1214.6357620420004,,,,,,,,,,yupaen,001,2025-02-27_15h08.33.218,MainFlow,2024.1.5,None,2025-02-27 15h08.43.435955 +0700,
2,61,1,word/worden0611.png,image/True/img61.png,0,172,172,172,1221.0604522920003,,,,,,,1222.560587375001,1222.0443670000004,1222.0693082920006,1222.0693082920006,1222.5490848339996,1223.6728643340011,1223.6728643340011,z,8.69391370899939,None,1222.0693082920006,,,,,,,,,,yupaen,001,2025-02-27_15h08.33.218,MainFlow,2024.1.5,None,2025-02-27 15h08.43.435955 +0700,
2,28,1,word/worden0281.png,image/True/img28.png,0,173,173,173,1232.3825353749999,,,,,,,1233.881502792001,1233.3653398750012,1233.3897939170001,1233.3897939170001,1233.8772360000003,1235.0104418749997,1235.0104418749997,z,3.565245333000348,None,1233.3897939170001,,,,,,,,,,yupaen,001,2025-02-27_15h08.33.218,MainFlow,2024.1.5,None,2025-02-27 15h08.43.435955 +0700,
2,46,1,word/worden0461.png,image/True/img46.png,0,174,174,174,1238.5853390419998,,,,,,,1240.0771227919995,1239.5648219169998,1239.5885828749997,1239.5885828749997,1240.0649129169997,1241.2131718750006,1241.2131718750006,x,4.553982416999133,None,,,,,,,,,,,yupaen,001,2025-02-27_15h08.33.218,MainFlow,2024.1.5,None,2025-02-27 15h08.43.435955 +0700,
2,22,1,word/worden0221.png,image/True/img22.png,0,175,175,175,1245.7853237090003,,,,,,,1247.277023292001,1246.7648160420013,1246.7883431669998,1246.7883431669998,1247.2649102920004,1248.4243267090005,1248.4243267090005,x,8.823204874999647,None,,,,,,,,,,,yupaen,001,2025-02-27_15h08.33.218,MainFlow,2024.1.5,None,2025-02-27 15h08.43.435955 +0700,
2,93,1,word/worden0931.png,image/True/img93.png,0,176,176,176,1257.2603604590004,,,,,,,1258.7603860840009,1258.244055792,1258.2686160419998,1258.2686160419998,1258.7483076669996,1259.8625154590009,1259.8625154590009,z,10.737167375000354,None,1258.2686160419998,,,,,,,,,,yupaen,001,2025-02-27_15h08.33.218,MainFlow,2024.1.5,None,2025-02-27 15h08.43.435955 +0700,
2,95,1,word/worden0951.png,image/True/img95.png,0,177,177,177,1270.616196084,,,,,,,1272.1144279590007,1271.5983992500005,1271.622016667001,1271.622016667001,1272.1102169590013,1273.2442916250002,1273.2442916250002,x,2.1641614159998426,None,,,,,,,,,,,yupaen,001,2025-02-27_15h08.33.218,MainFlow,2024.1.5,None,2025-02-27 15h08.43.435955 +0700,
2,17,0,word/worden0171.png,image/False/imgf17.png,0,178,178,178,1275.4187692920004,,,,,,,1276.9143252499998,1276.398249875001,1276.4216435420003,1276.4216435420003,1276.910063542,1278.035414375001,1278.035414375001,z,2.4129297910003515,None,,,,,,,,,,,yupaen,001,2025-02-27_15h08.33.218,MainFlow,2024.1.5,None,2025-02-27 15h08.43.435955 +0700,
2,26,1,word/worden0261.png,image/True/img26.png,0,179,179,179,1280.4603197920005,,,,,,,1281.9601045840009,1281.4439777919997,1281.467655167,1281.467655167,1281.9480477920006,1283.0875217089997,1283.0875217089997,z,3.208227999999508,None,1281.467655167,,,,,,,,,,yupaen,001,2025-02-27_15h08.33.218,MainFlow,2024.1.5,None,2025-02-27 15h08.43.435955 +0700,
2,27,1,word/worden0271.png,image/True/img27.png,0,180,180,180,1286.3102468750003,,,,,,,1287.8101783750008,1287.2939073340003,1287.3178434170004,1287.3178434170004,1287.7980276670005,1288.9153490420013,1288.9153490420013,x,10.693213167000067,None,1287.3178434170004,,,,,,,,,,yupaen,001,2025-02-27_15h08.33.218,MainFlow,2024.1.5,None,2025-02-27 15h08.43.435955 +0700,
2,31,1,word/worden0311.png,image/True/img31.png,0,181,181,181,1299.618395417001,,,,,,,1301.1101203340004,1300.5979755420012,1300.621596250001,1300.621596250001,1301.0980385840012,1302.222733042001,1302.222733042001,z,1.624836334000065,None,,,,,,,,,,,yupaen,001,2025-02-27_15h08.33.218,MainFlow,2024.1.5,None,2025-02-27 15h08.43.435955 +0700,
2,33,0,word/worden0331.png,image/False/imgf33.png,0,182,182,182,1303.8600062919995,,,,,,,1305.3601022500006,1304.8437133750012,1304.8678505000007,1304.8678505000007,1305.3480103340007,1306.4812323750011,1306.4812323750011,x,4.18311362500026,None,1304.8678505000007,,,,,,,,,,yupaen,001,2025-02-27_15h08.33.218,MainFlow,2024.1.5,None,2025-02-27 15h08.43.435955 +0700,
2,59,1,word/worden0591.png,image/True/img59.png,0,183,183,183,1310.6759947089995,,,,,,,1312.1767853340007,1311.6604302920005,1311.6854433749995,1311.6854433749995,1312.1644730420012,1313.2722243340013,1313.2722243340013,x,7.4321243340000365,None,1311.6854433749995,,,,,,,,,,yupaen,001,2025-02-27_15h08.33.218,MainFlow,2024.1.5,None,2025-02-27 15h08.43.435955 +0700,
2,8,1,word/worden0081.png,image/True/img08.png,0,184,184,184,1320.7182900420012,,,,,,,1322.209914000001,1321.6977353750008,1321.7215759170012,1321.7215759170012,1322.198064125001,1323.3112369170012,1323.3112369170012,z,12.992375208999874,None,,,,,,,,,,,yupaen,001,2025-02-27_15h08.33.218,MainFlow,2024.1.5,None,2025-02-27 15h08.43.435955 +0700,
2,63,0,word/worden0631.png,image/False/imgf63.png,0,185,185,185,1336.3184432500002,,,,,,,1337.8146936249996,1337.2979909590013,1337.3211367500007,1337.3211367500007,1337.8100865840006,1338.9395489170001,1338.9395489170001,x,8.331960707999315,None,,,,,,,,,,,yupaen,001,2025-02-27_15h08.33.218,MainFlow,2024.1.5,None,2025-02-27 15h08.43.435955 +0700,
2,30,0,word/worden0301.png,image/False/imgf30.png,0,186,186,186,1347.2844454170008,,,,,,,1348.780831125001,1348.2646158750013,1348.287915459001,1348.287915459001,1348.7766554170012,1349.8933495,1349.8933495,x,4.402255082999545,None,,,,,,,,,,,yupaen,001,2025-02-27_15h08.33.218,MainFlow,2024.1.5,None,2025-02-27 15h08.43.435955 +0700,
2,15,0,word/worden0151.png,image/False/imgf15.png,0,187,187,187,1354.309663334001,,,,,,,1355.8098920419998,1355.2933854170005,1355.3173292499996,1355.3173292499996,1355.7980785,1356.9211784590007,1356.9211784590007,x,1.8305064589985705,None,1355.3173292499996,,,,,,,,,,yupaen,001,2025-02-27_15h08.33.218,MainFlow,2024.1.5,None,2025-02-27 15h08.43.435955 +0700,
2,71,0,word/worden0711.png,image/False/imgf71.png,0,188,188,188,1358.7682774590012,,,,,,,1360.2639953340004,1359.7480824590002,1359.7721667090009,1359.7721667090009,1360.2597558750003,1361.3983575000002,1361.3983575000002,x,3.801529250000385,None,,,,,,,,,,,yupaen,001,2025-02-27_15h08.33.218,MainFlow,2024.1.5,None,2025-02-27 15h08.43.435955 +0700,
2,10,0,word/worden0101.png,image/False/imgf10.png,0,189,189,189,1365.2184567920012,,,,,,,1366.709736625,1366.1973473340004,1366.2206459999998,1366.2206459999998,1366.6979747500009,1367.8244880000002,1367.8244880000002,x,2.703241082999739,None,,,,,,,,,,,yupaen,001,2025-02-27_15h08.33.218,MainFlow,2024.1.5,None,2025-02-27 15h08.43.435955 +0700,
2,54,0,word/worden0541.png,image/False/imgf54.png,0,190,190,190,1370.5428468339996,,,,,,,1372.0429678750006,1371.5268313750003,1371.5511516250008,1371.5511516250008,1372.0308974590007,1373.1580666669997,1373.1580666669997,x,6.369379292000303,None,1371.5511516250008,,,,,,,,,,yupaen,001,2025-02-27_15h08.33.218,MainFlow,2024.1.5,None,2025-02-27 15h08.43.435955 +0700,
2,60,0,word/worden0601.png,image/False/imgf60.png,0,191,191,191,1379.543041459001,,,,,,,1381.0430342920008,1380.526719042,1380.5517531250007,1380.5517531250007,1381.0309807089998,1382.155183125,1382.155183125,x,3.469351917001404,None,1380.5517531250007,,,,,,,,,,yupaen,001,2025-02-27_15h08.33.218,MainFlow,2024.1.5,None,2025-02-27 15h08.43.435955 +0700,
2,16,0,word/worden0161.png,image/False/imgf16.png,0,192,192,192,1385.633965209001,,,,,,,1387.130549667001,1386.6143680839996,1386.6387450000002,1386.6387450000002,1387.126382542001,1388.254570250001,1388.254570250001,x,3.6973462919995654,None,,,,,,,,,,,yupaen,001,2025-02-27_15h08.33.218,MainFlow,2024.1.5,None,2025-02-27 15h08.43.435955 +0700,
2,50,1,word/worden0501.png,image/True/img50.png,0,193,193,193,1391.9684444169998,,,,,,,1393.4638715420006,1392.9477001670002,1392.9726178340006,1392.9726178340006,1393.4596571250004,1394.5775492499997,1394.5775492499997,z,7.653704709000522,None,,,,,,,,,,,yupaen,001,2025-02-27_15h08.33.218,MainFlow,2024.1.5,None,2025-02-27 15h08.43.435955 +0700,
2,63,1,word/worden0631.png,image/True/img63.png,0,194,194,194,1402.2482187090009,,,,,,,1403.7428347920013,1403.2266592920005,1403.2501369590009,1403.2501369590009,1403.730764,1404.8623801249996,1404.8623801249996,x,6.2018929999994725,None,,,,,,,,,,,yupaen,001,2025-02-27_15h08.33.218,MainFlow,2024.1.5,None,2025-02-27 15h08.43.435955 +0700,
2,24,0,word/worden0241.png,image/False/imgf24.png,0,195,195,195,1411.075307125,,,,,,,1412.5760627090003,1412.0599638340009,1412.083656709001,1412.083656709001,1412.5640497090008,1413.6797355840008,1413.6797355840008,x,7.847091083000123,None,1412.083656709001,,,,,,,,,,yupaen,001,2025-02-27_15h08.33.218,MainFlow,2024.1.5,None,2025-02-27 15h08.43.435955 +0700,
2,89,0,word/worden0891.png,image/False/imgf89.png,0,196,196,196,1421.5425828340012,,,,,,,1423.0427023749999,1422.5264660000012,1422.550735584,1422.550735584,1423.0306775420013,1424.1505368340004,1424.1505368340004,z,3.993669958999817,None,1422.550735584,,,,,,,,,,yupaen,001,2025-02-27_15h08.33.218,MainFlow,2024.1.5,None,2025-02-27 15h08.43.435955 +0700,
2,6,0,word/worden0061.png,image/False/imgf06.png,0,197,197,197,1428.159194459,,,,,,,1429.65935575,1429.1429465,1429.167321584,1429.167321584,1429.6472948339997,1430.7575748750005,1430.7575748750005,x,4.634807833001105,None,1429.167321584,,,,,,,,,,yupaen,001,2025-02-27_15h08.33.218,MainFlow,2024.1.5,None,2025-02-27 15h08.43.435955 +0700,
2,41,0,word/worden0411.png,image/False/imgf41.png,0,198,198,198,1435.4010332500002,,,,,,,1436.892661375001,1436.3802649999998,1436.4038958750007,1436.4038958750007,1436.8808506670011,1437.9867208750002,1437.9867208750002,x,8.715781333999985,None,,,,,,,,,,,yupaen,001,2025-02-27_15h08.33.218,MainFlow,2024.1.5,None,2025-02-27 15h08.43.435955 +0700,
2,79,0,word/worden0791.png,image/False/imgf79.png,0,199,199,199,1446.7176946250001,,,,,,,1448.209316167,1447.6970948340004,1447.7208612089998,1447.7208612089998,1448.1976517500007,1449.3368709999995,1449.3368709999995,x,2.0073312500007887,None,,,,,,,,,,,yupaen,001,2025-02-27_15h08.33.218,MainFlow,2024.1.5,None,2025-02-27 15h08.43.435955 +0700,
2,70,1,word/worden0701.png,image/True/img70.png,0,200,200,200,1451.3591566670002,,,,,,,1452.8591864589998,1452.3429698750006,1452.3675884590011,1452.3675884590011,1452.8470422499995,1453.979824375001,1453.979824375001,z,4.459872125000402,None,1452.3675884590011,,,,,,,,,,yupaen,001,2025-02-27_15h08.33.218,MainFlow,2024.1.5,None,2025-02-27 15h08.43.435955 +0700,
2,31,1,word/worden0311.png,image/True/img31.png,0,201,201,201,1458.4505947500002,,,,,,,1459.9467385000007,1459.430718167001,1459.4549710840001,1459.4549710840001,1459.942550459,1461.0549962500008,1461.0549962500008,z,4.728570167000726,None,,,,,,,,,,,yupaen,001,2025-02-27_15h08.33.218,MainFlow,2024.1.5,None,2025-02-27 15h08.43.435955 +0700,
2,9,1,word/worden0091.png,image/True/img09.png,0,202,202,202,1465.8005992090002,,,,,,,1467.2968804169996,1466.7804126250012,1466.8039238340007,1466.8039238340007,1467.2926185840006,1468.380219042001,1468.380219042001,x,9.579649166000308,None,,,,,,,,,,,yupaen,001,2025-02-27_15h08.33.218,MainFlow,2024.1.5,None,2025-02-27 15h08.43.435955 +0700,
2,27,1,word/worden0271.png,image/True/img27.png,0,203,203,203,1477.9758198750005,,,,,,,1479.475775709001,1478.9595381670006,1478.9844470839998,1478.9844470839998,1479.4635368340005,1480.5806801670005,1480.5806801670005,z,5.786882499998683,None,1478.9844470839998,,,,,,,,,,yupaen,001,2025-02-27_15h08.33.218,MainFlow,2024.1.5,None,2025-02-27 15h08.43.435955 +0700,
2,75,0,word/worden0751.png,image/False/imgf75.png,0,204,204,204,1486.384042959,,,,,,,1487.8799552500004,1487.363892292,1487.3883431670001,1487.3883431670001,1487.875709625001,1488.9929826669995,1488.9929826669995,z,5.933379791998959,None,,,,,,,,,,,yupaen,001,2025-02-27_15h08.33.218,MainFlow,2024.1.5,None,2025-02-27 15h08.43.435955 +0700,
2,87,0,word/worden0871.png,image/False/imgf87.png,0,205,205,205,1494.9422737920013,,,,,,,1496.442336125001,1495.9260433340005,1495.9499515839998,1495.9499515839998,1496.4301386670013,1497.5484772090003,1497.5484772090003,x,7.754123957998672,None,1495.9499515839998,,,,,,,,,,yupaen,001,2025-02-27_15h08.33.218,MainFlow,2024.1.5,None,2025-02-27 15h08.43.435955 +0700,
2,8,0,word/worden0081.png,image/False/imgf08.png,0,206,206,206,1505.3177336669996,,,,,,,1506.8089770000006,1506.2967209590006,1506.3202278339995,1506.3202278339995,1506.797269959001,1507.9115899999997,1507.9115899999997,x,4.328472875000443,None,,,,,,,,,,,yupaen,001,2025-02-27_15h08.33.218,MainFlow,2024.1.5,None,2025-02-27 15h08.43.435955 +0700,
2,24,1,word/worden0241.png,image/True/img24.png,0,207,207,207,1512.250169084,,,,,,,1513.7422678750008,1513.2299285000008,1513.2534920840008,1513.2534920840008,1513.7304207920006,1514.834153584001,1514.834153584001,x,2.71698729200034,None,,,,,,,,,,,yupaen,001,2025-02-27_15h08.33.218,MainFlow,2024.1.5,None,2025-02-27 15h08.43.435955 +0700,
2,14,1,word/worden0141.png,image/True/img14.png,0,208,208,208,1517.567236375,,,,,,,1519.0589559170003,1518.5467059170005,1518.5707516670009,1518.5707516670009,1519.0474996249995,1520.1797444170006,1520.1797444170006,z,1.579865207999319,None,,,,,,,,,,,yupaen,001,2025-02-27_15h08.33.218,MainFlow,2024.1.5,None,2025-02-27 15h08.43.435955 +0700,
2,87,1,word/worden0871.png,image/True/img87.png,0,209,209,209,1521.7754260000002,,,,,,,1523.275476334,1522.7593375840006,1522.7839758749997,1522.7839758749997,1523.2636491249996,1524.395329209001,1524.395329209001,x,9.188337292000142,None,1522.7839758749997,,,,,,,,,,yupaen,001,2025-02-27_15h08.33.218,MainFlow,2024.1.5,None,2025-02-27 15h08.43.435955 +0700,
2,42,0,word/worden0421.png,image/False/imgf42.png,0,210,210,210,1533.600354084001,,,,,,,1535.0965140000008,1534.5803292500004,1534.6050355839998,1534.6050355839998,1535.0923042499999,1536.2257110419996,1536.2257110419996,x,4.014633790999142,None,,,,,,,,,,,yupaen,001,2025-02-27_15h08.33.218,MainFlow,2024.1.5,None,2025-02-27 15h08.43.435955 +0700,
2,48,0,word/worden0481.png,image/False/imgf48.png,0,211,211,211,1540.2502180419997,,,,,,,1541.742055959001,1541.2296705420013,1541.2527744170002,1541.2527744170002,1541.730037292,1542.878295167,1542.878295167,x,2.409482000000935,None,,,,,,,,,,,yupaen,001,2025-02-27_15h08.33.218,MainFlow,2024.1.5,None,2025-02-27 15h08.43.435955 +0700,
2,56,0,word/worden0561.png,image/False/imgf56.png,0,212,212,212,1545.300136834001,,,,,,,1546.7920668750012,1546.2798353750004,1546.3043484589998,1546.3043484589998,1546.779940792001,1547.9319199170004,1547.9319199170004,x,9.219869207998272,None,,,,,,,,,,,yupaen,001,2025-02-27_15h08.33.218,MainFlow,2024.1.5,None,2025-02-27 15h08.43.435955 +0700,
2,18,0,word/worden0181.png,image/False/imgf18.png,0,213,213,213,1557.167141375001,,,,,,,1558.6628364589997,1558.1469378340007,1558.1709651670008,1558.1709651670008,1558.6586297499998,1559.7737806250007,1559.7737806250007,x,6.193494584000291,None,,,,,,,,,,,yupaen,001,2025-02-27_15h08.33.218,MainFlow,2024.1.5,None,2025-02-27 15h08.43.435955 +0700,
2,18,0,word/worden0181.png,image/False/imgf18.png,0,214,214,214,1565.9834255000005,,,,,,,1567.4794716670003,1566.9635312090013,1566.9867859590013,1566.9867859590013,1567.4753176249997,1568.5916016669998,1568.5916016669998,x,3.7524629590006953,None,,,,,,,,,,,yupaen,001,2025-02-27_15h08.33.218,MainFlow,2024.1.5,None,2025-02-27 15h08.43.435955 +0700,
2,9,0,word/worden0091.png,image/False/imgf09.png,0,215,215,215,1572.358547584001,,,,,,,1573.8585635,1573.342371042001,1573.366158875,1573.366158875,1573.8462852920002,1574.9520966670007,1574.9520966670007,x,4.647014500000296,None,1573.366158875,,,,,,,,,,yupaen,001,2025-02-27_15h08.33.218,MainFlow,2024.1.5,None,2025-02-27 15h08.43.435955 +0700,
2,55,0,word/worden0551.png,image/False/imgf55.png,0,216,216,216,1579.616430125001,,,,,,,1581.1085364170012,1580.596327542,1580.6203274590007,1580.6203274590007,1581.0965152919998,1582.2262734590004,1582.2262734590004,x,6.620446584000092,None,,,,,,,,,,,yupaen,001,2025-02-27_15h08.33.218,MainFlow,2024.1.5,None,2025-02-27 15h08.43.435955 +0700,
2,17,0,word/worden0171.png,image/False/imgf17.png,0,217,217,217,1588.8622708340008,,,,,,,1590.346205875001,1589.841548167,1589.856290834001,1589.856290834001,1590.3416576670006,1591.4716195,1591.4716195,z,6.039620833000299,None,,1590.346205875001,1590.346205875001,,,,,,,,yupaen,001,2025-02-27_15h08.33.218,MainFlow,2024.1.5,None,2025-02-27 15h08.43.435955 +0700,
2,50,1,word/worden0501.png,image/True/img50.png,0,218,218,218,1597.5250041250001,,,,,,,1599.0249572920002,1598.5087918339996,1598.534242875001,1598.534242875001,1599.0130269170004,1600.1380575000003,1600.1380575000003,z,8.940628959000605,None,1598.534242875001,,,,,,,,,,yupaen,001,2025-02-27_15h08.33.218,MainFlow,2024.1.5,None,2025-02-27 15h08.43.435955 +0700,
2,20,0,word/worden0201.png,image/False/imgf20.png,0,219,219,219,1609.091788959,,,,,,,1610.5915965420008,1610.0752739170002,1610.0981500840007,1610.0981500840007,1610.579473709,1611.7322814590007,1611.7322814590007,x,6.877197124998929,None,1610.0981500840007,,,,,,,,,,yupaen,001,2025-02-27_15h08.33.218,MainFlow,2024.1.5,None,2025-02-27 15h08.43.435955 +0700,
2,36,0,word/worden0361.png,image/False/imgf36.png,0,220,220,220,1618.6249013750003,,,,,,,1620.125018584,1619.608507209001,1619.6329882500013,1619.6329882500013,1620.1134218750012,1621.241865459,1621.241865459,x,2.8614513750017068,None,1619.6329882500013,,,,,,,,,,yupaen,001,2025-02-27_15h08.33.218,MainFlow,2024.1.5,None,2025-02-27 15h08.43.435955 +0700,
2,7,0,word/worden0071.png,image/False/imgf07.png,0,221,221,221,1624.1167770840002,,,,,,,1625.6080660420012,1625.0964151669996,1625.120191375001,1625.120191375001,1625.5967317920004,1626.7264402500005,1626.7264402500005,x,5.689365416999863,None,,,,,,,,,,,yupaen,001,2025-02-27_15h08.33.218,MainFlow,2024.1.5,None,2025-02-27 15h08.43.435955 +0700,
2,7,1,word/worden0071.png,image/True/img07.png,0,222,222,222,1632.4329951250002,,,,,,,1633.924816834,1633.4125456250003,1633.4357880000007,1633.4357880000007,1633.9128152499998,1635.0563086670008,1635.0563086670008,z,1.974700540999038,None,,,,,,,,,,,yupaen,001,2025-02-27_15h08.33.218,MainFlow,2024.1.5,None,2025-02-27 15h08.43.435955 +0700,
2,70,0,word/worden0701.png,image/False/imgf70.png,0,223,223,223,1637.046927292,,,,,,,1638.545745542,1638.0297725,1638.0528085000005,1638.0528085000005,1638.541549167001,1639.6556055,1639.6556055,x,4.792114500000025,None,1638.0528085000005,,,,,,,,,,yupaen,001,2025-02-27_15h08.33.218,MainFlow,2024.1.5,None,2025-02-27 15h08.43.435955 +0700,
2,68,0,word/worden0681.png,image/False/imgf68.png,0,224,224,224,1644.4638331250007,,,,,,,1645.9582194590002,1645.445826209001,1645.4697623339998,1645.4697623339998,1645.945891292,1647.0579795840003,1647.0579795840003,x,5.151097916999788,None,,,,,,,,,,,yupaen,001,2025-02-27_15h08.33.218,MainFlow,2024.1.5,None,2025-02-27 15h08.43.435955 +0700,
2,23,0,word/worden0231.png,image/False/imgf23.png,0,225,225,225,1652.224644625001,,,,,,,1653.7247769170008,1653.208468625,1653.233314084,1653.233314084,1653.7125976669995,1654.8653910419998,1654.8653910419998,x,5.950299666999854,None,1653.233314084,,,,,,,,,,yupaen,001,2025-02-27_15h08.33.218,MainFlow,2024.1.5,None,2025-02-27 15h08.43.435955 +0700,
2,56,0,word/worden0561.png,image/False/imgf56.png,0,226,226,226,1660.8328227500006,,,,,,,1662.3246686250004,1661.8125169590003,1661.8363126250006,1661.8363126250006,1662.3125953750005,1663.463736709,1663.463736709,x,3.0468558329994266,None,,,,,,,,,,,yupaen,001,2025-02-27_15h08.33.218,MainFlow,2024.1.5,None,2025-02-27 15h08.43.435955 +0700,
2,17,1,word/worden0171.png,image/True/img17.png,0,227,227,227,1666.5246394590013,,,,,,,1668.0247751250008,1667.5083801670007,1667.5320376670006,1667.5320376670006,1668.0124105840005,1669.1372301250012,1669.1372301250012,z,6.357766750001247,None,1667.5320376670006,,,,,,,,,,yupaen,001,2025-02-27_15h08.33.218,MainFlow,2024.1.5,None,2025-02-27 15h08.43.435955 +0700,
2,94,1,word/worden0941.png,image/True/img94.png,0,228,228,228,1675.507765417,,,,,,,1677.008000584001,1676.4916275840005,1676.5166008750002,1676.5166008750002,1676.9963260839995,1678.1156947920008,1678.1156947920008,x,4.852167875000305,None,1676.5166008750002,,,,,,,,,,yupaen,001,2025-02-27_15h08.33.218,MainFlow,2024.1.5,None,2025-02-27 15h08.43.435955 +0700,
2,96,0,word/worden0961.png,image/False/imgf96.png,0,229,229,229,1682.982662667,,,,,,,1684.4792649170013,1683.9627988749999,1683.987494250001,1683.987494250001,1684.4746379999997,1685.5997588749997,1685.5997588749997,x,3.2314856670000154,None,,,,,,,,,,,yupaen,001,2025-02-27_15h08.33.218,MainFlow,2024.1.5,None,2025-02-27 15h08.43.435955 +0700,
2,82,0,word/worden0821.png,image/False/imgf82.png,0,230,230,230,1688.8467098750007,,,,,,,1690.3454099170012,1689.8295431670012,1689.854069125,1689.854069125,1690.3412413750011,1691.4677518339995,1691.4677518339995,x,4.626737750000757,None,1689.854069125,,,,,,,,,,yupaen,001,2025-02-27_15h08.33.218,MainFlow,2024.1.5,None,2025-02-27 15h08.43.435955 +0700,
2,36,1,word/worden0361.png,image/True/img36.png,0,231,231,231,1696.1079364590005,,,,,,,1697.6079152090006,1697.0914809170008,1697.1156788749995,1697.1156788749995,1697.596290167001,1698.714016375001,1698.714016375001,z,2.9810524160002387,None,1697.1156788749995,,,,,,,,,,yupaen,001,2025-02-27_15h08.33.218,MainFlow,2024.1.5,None,2025-02-27 15h08.43.435955 +0700,
2,44,1,word/worden0441.png,image/True/img44.png,0,232,232,232,1701.7076635840003,,,,,,,1703.207790542001,1702.691277459,1702.7157891250008,1702.7157891250008,1703.195753334001,1704.3120194170006,1704.3120194170006,z,4.807274958000562,None,1702.7157891250008,,,,,,,,,,yupaen,001,2025-02-27_15h08.33.218,MainFlow,2024.1.5,None,2025-02-27 15h08.43.435955 +0700,
2,66,1,word/worden0661.png,image/True/img66.png,0,233,233,233,1709.133131167,,,,,,,1710.6287546250005,1710.112223917,1710.136556417001,1710.136556417001,1710.6245373750007,1711.7458692090004,1711.7458692090004,z,2.421256875000836,None,,,,,,,,,,,yupaen,001,2025-02-27_15h08.33.218,MainFlow,2024.1.5,None,2025-02-27 15h08.43.435955 +0700,
2,38,0,word/worden0381.png,image/False/imgf38.png,0,234,234,234,1714.1823328749997,,,,,,,1715.6786722920006,1715.1624794590007,1715.1869915420011,1715.1869915420011,1715.6745104590009,1716.8173942920002,1716.8173942920002,x,3.8700387499993667,None,,,,,,,,,,,yupaen,001,2025-02-27_15h08.33.218,MainFlow,2024.1.5,None,2025-02-27 15h08.43.435955 +0700,
2,11,1,word/worden0111.png,image/True/img11.png,0,235,235,235,1720.6999427499995,,,,,,,1722.1909411670003,1721.6787838340006,1721.703627084,1721.703627084,1722.1788449169999,1723.3311455420007,1723.3311455420007,z,3.63567358399996,None,,,,,,,,,,,yupaen,001,2025-02-27_15h08.33.218,MainFlow,2024.1.5,None,2025-02-27 15h08.43.435955 +0700,
2,94,1,word/worden0941.png,image/True/img94.png,0,236,236,236,1726.9825457919997,,,,,,,1728.4744223340003,1727.9620252500008,1727.9860595419996,1727.9860595419996,1728.4621050000005,1729.5842939590002,1729.5842939590002,z,8.046255332999863,None,,,,,,,,,,,yupaen,001,2025-02-27_15h08.33.218,MainFlow,2024.1.5,None,2025-02-27 15h08.43.435955 +0700,
2,28,0,word/worden0281.png,image/False/imgf28.png,0,237,237,237,1737.646686125001,,,,,,,1739.145114125,1738.6289195000008,1738.6529935840008,1738.6529935840008,1739.140923500001,1740.254782125001,1740.254782125001,z,11.687792208000246,None,,,,,,,,,,,yupaen,001,2025-02-27_15h08.33.218,MainFlow,2024.1.5,None,2025-02-27 15h08.43.435955 +0700,
2,61,1,word/worden0611.png,image/True/img61.png,0,238,238,238,1751.9574297920008,,,,,,,1753.457354084001,1752.9411173749995,1752.9649692090006,1752.9649692090006,1753.4456767089996,1754.5700306670005,1754.5700306670005,z,5.7177922500013665,None,1752.9649692090006,,,,,,,,,,yupaen,001,2025-02-27_15h08.33.218,MainFlow,2024.1.5,None,2025-02-27 15h08.43.435955 +0700,
2,41,1,word/worden0411.png,image/True/img41.png,0,239,239,239,1760.299393917001,,,,,,,1761.7907737090009,1761.2786458339997,1761.3017799999998,1761.3017799999998,1761.7786904590012,1762.917689209,1762.917689209,x,4.249623540999892,None,,,,,,,,,,,yupaen,001,2025-02-27_15h08.33.218,MainFlow,2024.1.5,None,2025-02-27 15h08.43.435955 +0700,
,,,,,,,,,,,,,,,,,,,,,,,,,,,,,1767.1754007090003,1767.182080292001,1767.182080292001,1778.258930084001,space,11.07376637500056,None,yupaen,001,2025-02-27_15h08.33.218,MainFlow,2024.1.5,None,2025-02-27 15h08.43.435955 +0700,
