lang,wordid,truestate,worddir,imgdir,trials.thisRepN,trials.thisTrialN,trials.thisN,trials.thisIndex,thisRow.t,notes,tutorial.started,tutorial.stopped,key_instruct.keys,key_instruct.rt,key_instruct.duration,plusblank.started,wordshow.started,image.started,plsuer.started,wordshow.stopped,imageword.started,key_resp.started,key_resp.keys,key_resp.rt,key_resp.duration,plusblank.stopped,ending.started,text_3.started,ending_key.started,ending.stopped,ending_key.keys,ending_key.rt,ending_key.duration,participant,session,date,expName,psychopyVersion,frameRate,expStart,
,,,,,,,,,,,0.0038133340003696503,3.3508813750004265,space,3.2993042909993164,None,,,,,,,,,,,,,,,,,,,yupath,001,2025-02-27_14h40.37.717,MainFlow,2024.1.5,None,2025-02-27 14h40.49.299931 +0700,
1,51,0,word/wordth0511.png,image/False/imgf51.png,0,0,0,0,3.4091304590001528,,,,,,,4.852015292000033,4.335925958999724,4.371709375000137,4.371709375000137,4.847809500000039,5.971487625000009,5.971487625000009,x,4.778533458999846,None,,,,,,,,,yupath,001,2025-02-27_14h40.37.717,MainFlow,2024.1.5,None,2025-02-27 14h40.49.299931 +0700,
1,66,1,word/wordth0661.png,image/True/img66.png,0,1,1,1,10.763265208999655,,,,,,,12.264343417000418,11.74817449999955,11.773190541999611,11.773190541999611,12.252733708999585,13.387923041999784,13.387923041999784,x,6.161875207999401,None,11.773190541999611,,,,,,,,yupath,001,2025-02-27_14h40.37.717,MainFlow,2024.1.5,None,2025-02-27 14h40.49.299931 +0700,
1,60,1,word/wordth0601.png,image/True/img60.png,0,2,2,2,19.565422249999756,,,,,,,21.06434799999988,20.54791758400006,20.57322920899969,20.57322920899969,21.052009959000316,22.169532208999954,22.169532208999954,x,5.634769208999387,None,,,,,,,,,yupath,001,2025-02-27_14h40.37.717,MainFlow,2024.1.5,None,2025-02-27 14h40.49.299931 +0700,
1,46,0,word/wordth0461.png,image/False/imgf46.png,0,3,3,3,27.82267683400005,,,,,,,29.31409858400002,28.80201758400017,28.828720624999733,28.828720624999733,29.302082166999753,30.45326595900042,30.45326595900042,x,5.321068958000069,None,,,,,,,,,yupath,001,2025-02-27_14h40.37.717,MainFlow,2024.1.5,None,2025-02-27 14h40.49.299931 +0700,
1,24,1,word/wordth0241.png,image/True/img24.png,0,4,4,4,35.78873129200019,,,,,,,37.285075374999906,36.76874420900003,36.79269941700022,36.79269941700022,37.2808622499997,38.375879166999766,38.375879166999766,x,7.614710916999684,None,,,,,,,,,yupath,001,2025-02-27_14h40.37.717,MainFlow,2024.1.5,None,2025-02-27 14h40.49.299931 +0700,
1,68,1,word/wordth0681.png,image/True/img68.png,0,5,5,5,46.005766708999545,,,,,,,47.497362791999876,46.985230666999996,47.00962366699969,47.00962366699969,47.485758791999615,48.59034299999985,48.59034299999985,z,5.375039124999603,None,,,,,,,,,yupath,001,2025-02-27_14h40.37.717,MainFlow,2024.1.5,None,2025-02-27 14h40.49.299931 +0700,
1,22,0,word/wordth0221.png,image/False/imgf22.png,0,6,6,6,53.98061775000042,,,,,,,55.4807035419999,54.96458229200016,54.989790749999884,54.989790749999884,55.46861958400041,56.60915720899993,56.60915720899993,x,14.069260708999536,None,54.989790749999884,,,,,,,,yupath,001,2025-02-27_14h40.37.717,MainFlow,2024.1.5,None,2025-02-27 14h40.49.299931 +0700,
1,36,1,word/wordth0361.png,image/True/img36.png,0,7,7,7,70.68874720900021,,,,,,,72.18483429200023,71.66897716699987,71.69310429199959,71.69310429199959,72.18064629200035,73.28840554199996,73.28840554199996,x,4.006448416000239,None,,,,,,,,,yupath,001,2025-02-27_14h40.37.717,MainFlow,2024.1.5,None,2025-02-27 14h40.49.299931 +0700,
1,68,0,word/wordth0681.png,image/False/imgf68.png,0,8,8,8,77.30603066700041,,,,,,,78.8019532090002,78.28543520899984,78.30900374999965,78.30900374999965,78.7971803749997,79.89383795899994,79.89383795899994,x,2.3836896249995334,None,,,,,,,,,yupath,001,2025-02-27_14h40.37.717,MainFlow,2024.1.5,None,2025-02-27 14h40.49.299931 +0700,
1,16,1,word/wordth0161.png,image/True/img16.png,0,9,9,9,82.28923391700027,,,,,,,83.78049120899959,83.26827258399953,83.29246329200032,83.29246329200032,83.76832441700026,84.91776974999993,84.91776974999993,x,2.3190701670000635,None,,,,,,,,,yupath,001,2025-02-27_14h40.37.717,MainFlow,2024.1.5,None,2025-02-27 14h40.49.299931 +0700,
1,94,1,word/wordth0941.png,image/True/img94.png,0,10,10,10,87.25244987499991,,,,,,,88.75154770900008,88.23550129199975,88.2600447499999,88.2600447499999,88.74736937499983,89.85754316699968,89.85754316699968,z,1.532411334000244,None,88.2600447499999,,,,,,,,yupath,001,2025-02-27_14h40.37.717,MainFlow,2024.1.5,None,2025-02-27 14h40.49.299931 +0700,
1,95,0,word/wordth0951.png,image/False/imgf95.png,0,11,11,11,91.40499258399996,,,,,,,92.90148395899996,92.385504459,92.40952158399978,92.40952158399978,92.89724079200005,94.02315654199992,94.02315654199992,x,1.5743060419999892,None,,,,,,,,,yupath,001,2025-02-27_14h40.37.717,MainFlow,2024.1.5,None,2025-02-27 14h40.49.299931 +0700,
1,30,0,word/wordth0301.png,image/False/imgf30.png,0,12,12,12,95.61376241699963,,,,,,,97.11367208400043,96.59751604200028,96.62247529199976,96.62247529199976,97.10224516699964,98.22455637500025,98.22455637500025,x,3.40656804199989,None,96.62247529199976,,,,,,,,yupath,001,2025-02-27_14h40.37.717,MainFlow,2024.1.5,None,2025-02-27 14h40.49.299931 +0700,
1,20,1,word/wordth0201.png,image/True/img20.png,0,13,13,13,101.64719787499962,,,,,,,103.14716099999987,102.63083054199979,102.6549542089997,102.6549542089997,103.13489816699985,104.27256666700032,104.27256666700032,x,4.276695874999859,None,102.6549542089997,,,,,,,,yupath,001,2025-02-27_14h40.37.717,MainFlow,2024.1.5,None,2025-02-27 14h40.49.299931 +0700,
1,42,0,word/wordth0421.png,image/False/imgf42.png,0,14,14,14,108.56377529200017,,,,,,,110.06374891700034,109.54744816699986,109.57265479200032,109.57265479200032,110.05217166700004,111.19359729200005,111.19359729200005,x,1.820381916999395,None,109.57265479200032,,,,,,,,yupath,001,2025-02-27_14h40.37.717,MainFlow,2024.1.5,None,2025-02-27 14h40.49.299931 +0700,
1,31,1,word/wordth0311.png,image/True/img31.png,0,15,15,15,113.03039325000009,,,,,,,114.53043675000026,114.01416654199966,114.03780612500032,114.03780612500032,114.51862524999979,115.64228812500005,115.64228812500005,z,5.875825499999337,None,114.03780612500032,,,,,,,,yupath,001,2025-02-27_14h40.37.717,MainFlow,2024.1.5,None,2025-02-27 14h40.49.299931 +0700,
1,55,1,word/wordth0551.png,image/True/img55.png,0,16,16,16,121.53023762500015,,,,,,,123.03032770899972,122.51395450000018,122.5378110419997,122.5378110419997,123.01781462500003,124.15564429200003,124.15564429200003,x,2.234480875000372,None,122.5378110419997,,,,,,,,yupath,001,2025-02-27_14h40.37.717,MainFlow,2024.1.5,None,2025-02-27 14h40.49.299931 +0700,
1,36,1,word/wordth0361.png,image/True/img36.png,0,17,17,17,126.40564054199967,,,,,,,127.89705437500015,127.38467970900001,127.40813666699978,127.40813666699978,127.8847563749996,129.00663499999973,129.00663499999973,z,2.1826961670003584,None,,,,,,,,,yupath,001,2025-02-27_14h40.37.717,MainFlow,2024.1.5,None,2025-02-27 14h40.49.299931 +0700,
1,9,1,word/wordth0091.png,image/True/img09.png,0,18,18,18,131.20547774999977,,,,,,,132.69691379199958,132.18471054200018,132.2094795840003,132.2094795840003,132.68536891700023,133.78401487500014,133.78401487500014,z,2.6214493750003385,None,,,,,,,,,yupath,001,2025-02-27_14h40.37.717,MainFlow,2024.1.5,None,2025-02-27 14h40.49.299931 +0700,
1,64,1,word/wordth0641.png,image/True/img64.png,0,19,19,19,136.42225583399977,,,,,,,137.917958,137.4017736249998,137.42732224999963,137.42732224999963,137.91372533399954,139.0149515840003,139.0149515840003,z,4.654550749999544,None,,,,,,,,,yupath,001,2025-02-27_14h40.37.717,MainFlow,2024.1.5,None,2025-02-27 14h40.49.299931 +0700,
1,95,1,word/wordth0951.png,image/True/img95.png,0,20,20,20,143.68555387499964,,,,,,,145.18006058399988,144.6680289169999,144.69106779199956,144.69106779199956,145.16811391699957,146.31461599999966,146.31461599999966,x,3.5551160420000087,None,,,,,,,,,yupath,001,2025-02-27_14h40.37.717,MainFlow,2024.1.5,None,2025-02-27 14h40.49.299931 +0700,
1,41,1,word/wordth0411.png,image/True/img41.png,0,21,21,21,149.88549341700036,,,,,,,151.3845142500004,150.86849354199967,150.8928262090003,150.8928262090003,151.38023887500003,152.51015200000074,152.51015200000074,x,5.552032292000149,None,150.8928262090003,,,,,,,,yupath,001,2025-02-27_14h40.37.717,MainFlow,2024.1.5,None,2025-02-27 14h40.49.299931 +0700,
1,8,1,word/wordth0081.png,image/True/img08.png,0,22,22,22,158.0716079169997,,,,,,,159.56347279200054,159.05153562499981,159.07555775000037,159.07555775000037,159.55189566700028,160.66478854200068,160.66478854200068,z,2.9723158329998114,None,,,,,,,,,yupath,001,2025-02-27_14h40.37.717,MainFlow,2024.1.5,None,2025-02-27 14h40.49.299931 +0700,
1,60,1,word/wordth0601.png,image/True/img60.png,0,23,23,23,163.65490129200043,,,,,,,165.1510655000002,164.6348189170003,164.6588670000001,164.6588670000001,165.14684487500017,166.25753212500058,166.25753212500058,z,2.283682666999084,None,,,,,,,,,yupath,001,2025-02-27_14h40.37.717,MainFlow,2024.1.5,None,2025-02-27 14h40.49.299931 +0700,
1,48,0,word/wordth0481.png,image/False/imgf48.png,0,24,24,24,168.55472541699964,,,,,,,170.04679095900065,169.53435741700014,169.55865845900007,169.55865845900007,170.0350718339996,171.18427487500048,171.18427487500048,x,1.646369792000769,None,,,,,,,,,yupath,001,2025-02-27_14h40.37.717,MainFlow,2024.1.5,None,2025-02-27 14h40.49.299931 +0700,
1,41,0,word/wordth0411.png,image/False/imgf41.png,0,25,25,25,172.84658887499972,,,,,,,174.3466723340007,173.8305282500005,173.85512679199928,173.85512679199928,174.3349894589992,175.4374724169993,175.4374724169993,x,5.318782625001404,None,173.85512679199928,,,,,,,,yupath,001,2025-02-27_14h40.37.717,MainFlow,2024.1.5,None,2025-02-27 14h40.49.299931 +0700,
1,54,0,word/wordth0541.png,image/False/imgf54.png,0,26,26,26,180.77165020900065,,,,,,,182.26327216699974,181.75132754200058,181.7756025840008,181.7756025840008,182.25166949999948,183.3807847499993,183.3807847499993,x,3.960499000000709,None,,,,,,,,,yupath,001,2025-02-27_14h40.37.717,MainFlow,2024.1.5,None,2025-02-27 14h40.49.299931 +0700,
1,54,1,word/wordth0541.png,image/True/img54.png,0,27,27,27,187.35525854200023,,,,,,,188.85154295900065,188.33475658399948,188.3587338340003,188.3587338340003,188.8468134169998,189.98430625000037,189.98430625000037,z,1.3487688330005767,None,,,,,,,,,yupath,001,2025-02-27_14h40.37.717,MainFlow,2024.1.5,None,2025-02-27 14h40.49.299931 +0700,
1,63,0,word/wordth0631.png,image/False/imgf63.png,0,28,28,28,191.34662041699994,,,,,,,192.84664899999916,192.3302759170001,192.35439075000068,192.35439075000068,192.83435191699937,193.97450304199992,193.97450304199992,z,3.7430276249997405,None,192.35439075000068,,,,,,,,yupath,001,2025-02-27_14h40.37.717,MainFlow,2024.1.5,None,2025-02-27 14h40.49.299931 +0700,
1,37,0,word/wordth0371.png,image/False/imgf37.png,0,29,29,29,197.72994704200028,,,,,,,199.2296986250003,198.71366666699942,198.73813358400002,198.73813358400002,199.21821266699953,200.37369579199913,200.37369579199913,z,2.215738417000466,None,198.73813358400002,,,,,,,,yupath,001,2025-02-27_14h40.37.717,MainFlow,2024.1.5,None,2025-02-27 14h40.49.299931 +0700,
1,54,0,word/wordth0541.png,image/False/imgf54.png,0,30,30,30,202.60495095899932,,,,,,,204.10080066699993,203.5846353750003,203.60766537500058,203.60766537500058,204.09659224999996,205.2134031250007,205.2134031250007,x,5.144337000001542,None,,,,,,,,,yupath,001,2025-02-27_14h40.37.717,MainFlow,2024.1.5,None,2025-02-27 14h40.49.299931 +0700,
1,48,1,word/wordth0481.png,image/True/img48.png,0,31,31,31,210.37136858399936,,,,,,,211.8630872499998,211.35130104199925,211.37498020900057,211.37498020900057,211.85147987500022,212.99087424999925,212.99087424999925,x,3.486531415999707,None,,,,,,,,,yupath,001,2025-02-27_14h40.37.717,MainFlow,2024.1.5,None,2025-02-27 14h40.49.299931 +0700,
1,26,0,word/wordth0261.png,image/False/imgf26.png,0,32,32,32,216.48884433400053,,,,,,,217.98402704199907,217.4682852499991,217.49296800000047,217.49296800000047,217.9797743750005,219.11620500000026,219.11620500000026,x,2.584985792000225,None,,,,,,,,,yupath,001,2025-02-27_14h40.37.717,MainFlow,2024.1.5,None,2025-02-27 14h40.49.299931 +0700,
1,59,0,word/wordth0591.png,image/False/imgf59.png,0,33,33,33,221.7129338750001,,,,,,,223.21305966699947,222.69697733400062,222.72215908399994,222.72215908399994,223.20127883399982,224.30446341700008,224.30446341700008,x,2.9641735420009354,None,222.72215908399994,,,,,,,,yupath,001,2025-02-27_14h40.37.717,MainFlow,2024.1.5,None,2025-02-27 14h40.49.299931 +0700,
1,8,1,word/wordth0081.png,image/True/img08.png,0,34,34,34,227.2850950840002,,,,,,,228.7840949170004,228.26778308400026,228.2916142920003,228.2916142920003,228.7797679590003,229.8825199999992,229.8825199999992,z,2.8510717079989263,None,228.2916142920003,,,,,,,,yupath,001,2025-02-27_14h40.37.717,MainFlow,2024.1.5,None,2025-02-27 14h40.49.299931 +0700,
1,66,1,word/wordth0661.png,image/True/img66.png,0,35,35,35,232.7463021250005,,,,,,,234.2461580420004,233.73010258400063,233.75436749999972,233.75436749999972,234.23472970900002,235.36426824999944,235.36426824999944,z,1.7205982499999664,None,233.75436749999972,,,,,,,,yupath,001,2025-02-27_14h40.37.717,MainFlow,2024.1.5,None,2025-02-27 14h40.49.299931 +0700,
1,24,0,word/wordth0241.png,image/False/imgf24.png,0,36,36,36,237.10167799999908,,,,,,,238.60055875000035,238.08423104199937,238.109189625,238.109189625,238.59632062499986,239.7047202089998,239.7047202089998,x,4.573543040998629,None,,,,,,,,,yupath,001,2025-02-27_14h40.37.717,MainFlow,2024.1.5,None,2025-02-27 14h40.49.299931 +0700,
1,14,1,word/wordth0141.png,image/True/img14.png,0,37,37,37,244.28735274999963,,,,,,,245.77954875000069,245.26779454200005,245.29098041699945,245.29098041699945,245.76788729200052,246.90189099999952,246.90189099999952,z,1.0151057090006361,None,,,,,,,,,yupath,001,2025-02-27_14h40.37.717,MainFlow,2024.1.5,None,2025-02-27 14h40.49.299931 +0700,
1,20,0,word/wordth0201.png,image/False/imgf20.png,0,38,38,38,247.92966620900006,,,,,,,249.42972129199916,248.91338966699914,248.93793158399967,248.93793158399967,249.41740412500076,250.57021183399956,250.57021183399956,x,6.187499417001163,None,248.93793158399967,,,,,,,,yupath,001,2025-02-27_14h40.37.717,MainFlow,2024.1.5,None,2025-02-27 14h40.49.299931 +0700,
1,89,0,word/wordth0891.png,image/False/imgf89.png,0,39,39,39,256.77110404199993,,,,,,,258.2677079999994,257.7510118749997,257.7759247920003,257.7759247920003,258.2630740000004,259.37345774999994,259.37345774999994,x,2.75991383300061,None,,,,,,,,,yupath,001,2025-02-27_14h40.37.717,MainFlow,2024.1.5,None,2025-02-27 14h40.49.299931 +0700,
1,64,0,word/wordth0641.png,image/False/imgf64.png,0,40,40,40,262.14613612500034,,,,,,,263.64627195899993,263.12994458399953,263.1545259169998,263.1545259169998,263.63398037499974,264.7343730419998,264.7343730419998,x,5.054880041001525,None,263.1545259169998,,,,,,,,yupath,001,2025-02-27_14h40.37.717,MainFlow,2024.1.5,None,2025-02-27 14h40.49.299931 +0700,
1,56,1,word/wordth0561.png,image/True/img56.png,0,41,41,41,269.80475104200013,,,,,,,271.29619400000047,270.783845209,270.80851270899984,270.80851270899984,271.28438800000004,272.4120212500002,272.4120212500002,z,1.2978274580000289,None,,,,,,,,,yupath,001,2025-02-27_14h40.37.717,MainFlow,2024.1.5,None,2025-02-27 14h40.49.299931 +0700,
1,15,1,word/wordth0151.png,image/True/img15.png,0,42,42,42,273.7205897090007,,,,,,,275.212685167,274.7005408339992,274.72470025000075,274.72470025000075,275.20129174999965,276.34767375000047,276.34767375000047,z,1.746480125000744,None,,,,,,,,,yupath,001,2025-02-27_14h40.37.717,MainFlow,2024.1.5,None,2025-02-27 14h40.49.299931 +0700,
1,88,0,word/wordth0881.png,image/False/imgf88.png,0,43,43,43,278.1044501670003,,,,,,,279.5961232919999,279.08436995900047,279.1085664170005,279.1085664170005,279.5844781249998,280.7104354999992,280.7104354999992,z,3.137039334000292,None,,,,,,,,,yupath,001,2025-02-27_14h40.37.717,MainFlow,2024.1.5,None,2025-02-27 14h40.49.299931 +0700,
1,94,1,word/wordth0941.png,image/True/img94.png,0,44,44,44,283.8626898750008,,,,,,,285.3627767500002,284.8464151669996,284.8716647500005,284.8716647500005,285.35046854199936,286.4718258749999,286.4718258749999,z,2.076879459000338,None,284.8716647500005,,,,,,,,yupath,001,2025-02-27_14h40.37.717,MainFlow,2024.1.5,None,2025-02-27 14h40.49.299931 +0700,
1,40,0,word/wordth0401.png,image/False/imgf40.png,0,45,45,45,288.56262154199976,,,,,,,290.0626915840003,289.5463979169999,289.57065333399987,289.57065333399987,290.05066283400083,291.17835720900075,291.17835720900075,x,6.777987999999823,None,289.57065333399987,,,,,,,,yupath,001,2025-02-27_14h40.37.717,MainFlow,2024.1.5,None,2025-02-27 14h40.49.299931 +0700,
1,41,0,word/wordth0411.png,image/False/imgf41.png,0,46,46,46,297.9711527090003,,,,,,,299.46734254200055,298.9509645420003,298.9751820420006,298.9751820420006,299.46273233399916,300.5560687920006,300.5560687920006,x,8.368904458000543,None,,,,,,,,,yupath,001,2025-02-27_14h40.37.717,MainFlow,2024.1.5,None,2025-02-27 14h40.49.299931 +0700,
1,7,1,word/wordth0071.png,image/True/img07.png,0,47,47,47,308.93759829199917,,,,,,,310.4291799170005,309.9175076669999,309.9409978749991,309.9409978749991,310.4176174589993,311.55948629200066,311.55948629200066,z,2.102080583001225,None,,,,,,,,,yupath,001,2025-02-27_14h40.37.717,MainFlow,2024.1.5,None,2025-02-27 14h40.49.299931 +0700,
1,60,0,word/wordth0601.png,image/False/imgf60.png,0,48,48,48,313.6709633749997,,,,,,,315.1625519169993,314.6503718749991,314.6736597090003,314.6736597090003,315.1504653339998,316.27782641699923,316.27782641699923,x,1.768878582999605,None,,,,,,,,,yupath,001,2025-02-27_14h40.37.717,MainFlow,2024.1.5,None,2025-02-27 14h40.49.299931 +0700,
1,23,0,word/wordth0231.png,image/False/imgf23.png,0,49,49,49,318.0625700420005,,,,,,,319.56255324999984,319.04620754200005,319.07102912499977,319.07102912499977,319.55051679200005,320.70329770900025,320.70329770900025,x,2.2060325409984216,None,319.07102912499977,,,,,,,,yupath,001,2025-02-27_14h40.37.717,MainFlow,2024.1.5,None,2025-02-27 14h40.49.299931 +0700,
1,68,0,word/wordth0681.png,image/False/imgf68.png,0,50,50,50,322.9205577499997,,,,,,,324.41653699999915,323.9007693749991,323.9245072499998,323.9245072499998,324.4124280420001,325.51103800000055,325.51103800000055,x,9.286998916999437,None,,,,,,,,,yupath,001,2025-02-27_14h40.37.717,MainFlow,2024.1.5,None,2025-02-27 14h40.49.299931 +0700,
1,26,1,word/wordth0261.png,image/True/img26.png,0,51,51,51,334.81237120900005,,,,,,,336.312543,335.7960431249994,335.8205148340003,335.8205148340003,336.30018833400027,337.4424479169993,337.4424479169993,z,3.9146485420005774,None,335.8205148340003,,,,,,,,yupath,001,2025-02-27_14h40.37.717,MainFlow,2024.1.5,None,2025-02-27 14h40.49.299931 +0700,
1,89,0,word/wordth0891.png,image/False/imgf89.png,0,52,52,52,341.3703474169997,,,,,,,342.8624773339998,342.35009141699993,342.37448116700034,342.37448116700034,342.8506514590008,343.9772433750004,343.9772433750004,x,2.659955541999807,None,,,,,,,,,yupath,001,2025-02-27_14h40.37.717,MainFlow,2024.1.5,None,2025-02-27 14h40.49.299931 +0700,
1,3,0,word/wordth0031.png,image/False/imgf03.png,0,53,53,53,346.6542014170009,,,,,,,348.14566249999916,347.6339176670008,347.65813979199993,347.65813979199993,348.13396433399976,349.25865920899923,349.25865920899923,x,3.002541083998949,None,,,,,,,,,yupath,001,2025-02-27_14h40.37.717,MainFlow,2024.1.5,None,2025-02-27 14h40.49.299931 +0700,
1,55,1,word/wordth0551.png,image/True/img55.png,0,54,54,54,352.2709895000007,,,,,,,353.7623325839995,353.25054883399935,353.27461312500054,353.27461312500054,353.75072962500053,354.8941924999999,354.8941924999999,z,1.2946936250009458,None,,,,,,,,,yupath,001,2025-02-27_14h40.37.717,MainFlow,2024.1.5,None,2025-02-27 14h40.49.299931 +0700,
1,46,1,word/wordth0461.png,image/True/img46.png,0,55,55,55,356.2038163340003,,,,,,,357.69999562500016,357.18376604200057,357.2078939589992,357.2078939589992,357.69574020899927,358.83301262500026,358.83301262500026,z,1.7644697499999893,None,,,,,,,,,yupath,001,2025-02-27_14h40.37.717,MainFlow,2024.1.5,None,2025-02-27 14h40.49.299931 +0700,
1,1,1,word/wordth0011.png,image/True/img01.png,0,56,56,56,360.61213504199986,,,,,,,362.11225420899973,361.5958778339991,361.6199720000004,361.6199720000004,362.1002295840008,363.23740145900047,363.23740145900047,z,1.8954706250005984,None,361.6199720000004,,,,,,,,yupath,001,2025-02-27_14h40.37.717,MainFlow,2024.1.5,None,2025-02-27 14h40.49.299931 +0700,
1,3,1,word/wordth0031.png,image/True/img03.png,0,57,57,57,365.14551066700005,,,,,,,366.6456479589997,366.12907275,366.1527632920006,366.1527632920006,366.63381350000054,367.7638366249994,367.7638366249994,z,1.104544416999488,None,366.1527632920006,,,,,,,,yupath,001,2025-02-27_14h40.37.717,MainFlow,2024.1.5,None,2025-02-27 14h40.49.299931 +0700,
1,76,1,word/wordth0761.png,image/True/img76.png,0,58,58,58,368.8845347919996,,,,,,,370.3837307920003,369.8671605420004,369.8916924589994,369.8916924589994,370.37899024999933,371.4967097919998,371.4967097919998,z,4.540602375000162,None,,,,,,,,,yupath,001,2025-02-27_14h40.37.717,MainFlow,2024.1.5,None,2025-02-27 14h40.49.299931 +0700,
1,52,0,word/wordth0521.png,image/False/imgf52.png,0,59,59,59,376.0541038749998,,,,,,,377.55036154200025,377.03368633399987,377.0575690839996,377.0575690839996,377.5456379999996,378.6531575000008,378.6531575000008,x,4.272346957999616,None,,,,,,,,,yupath,001,2025-02-27_14h40.37.717,MainFlow,2024.1.5,None,2025-02-27 14h40.49.299931 +0700,
1,14,0,word/wordth0141.png,image/False/imgf14.png,0,60,60,60,382.9377362920004,,,,,,,384.43272345900004,383.91691999999966,383.9404575839999,383.9404575839999,384.4285532499998,385.5478442500007,385.5478442500007,x,2.8242805000008957,None,,,,,,,,,yupath,001,2025-02-27_14h40.37.717,MainFlow,2024.1.5,None,2025-02-27 14h40.49.299931 +0700,
1,61,1,word/wordth0611.png,image/True/img61.png,0,61,61,61,388.38751479200073,,,,,,,389.8832148750007,389.3668182500005,389.3914387090008,389.3914387090008,389.8788836250005,390.9951985839998,390.9951985839998,z,1.9858409999997093,None,,,,,,,,,yupath,001,2025-02-27_14h40.37.717,MainFlow,2024.1.5,None,2025-02-27 14h40.49.299931 +0700,
1,93,0,word/wordth0931.png,image/False/imgf93.png,0,62,62,62,392.9953082920001,,,,,,,394.49543745899973,393.97908587500024,394.0038952499999,394.0038952499999,394.4832193750008,395.5980221669997,395.5980221669997,x,4.664165583000795,None,394.0038952499999,,,,,,,,yupath,001,2025-02-27_14h40.37.717,MainFlow,2024.1.5,None,2025-02-27 14h40.49.299931 +0700,
1,37,1,word/wordth0371.png,image/True/img37.png,0,63,63,63,400.27066133399967,,,,,,,401.7662756669997,401.2502510840004,401.274728417,401.274728417,401.76206870900023,402.9004103749994,402.9004103749994,x,2.2165433330010273,None,,,,,,,,,yupath,001,2025-02-27_14h40.37.717,MainFlow,2024.1.5,None,2025-02-27 14h40.49.299931 +0700,
1,79,0,word/wordth0791.png,image/False/imgf79.png,0,64,64,64,405.12772495900026,,,,,,,406.62870425000074,406.1123967500007,406.136057959,406.136057959,406.61664745899907,407.75378608400024,407.75378608400024,x,5.051443208001729,None,406.136057959,,,,,,,,yupath,001,2025-02-27_14h40.37.717,MainFlow,2024.1.5,None,2025-02-27 14h40.49.299931 +0700,
1,37,0,word/wordth0371.png,image/False/imgf37.png,0,65,65,65,412.82035383400034,,,,,,,414.31643062500007,413.79982437500075,413.8240675420002,413.8240675420002,414.31208216699997,415.45746829199925,415.45746829199925,x,1.6990262920007808,None,,,,,,,,,yupath,001,2025-02-27_14h40.37.717,MainFlow,2024.1.5,None,2025-02-27 14h40.49.299931 +0700,
1,3,1,word/wordth0031.png,image/True/img03.png,0,66,66,66,417.1705340839999,,,,,,,418.66623545900075,418.1501345840006,418.17377425000086,418.17377425000086,418.6619538750001,419.7811737920001,419.7811737920001,z,1.367840459000945,None,,,,,,,,,yupath,001,2025-02-27_14h40.37.717,MainFlow,2024.1.5,None,2025-02-27 14h40.49.299931 +0700,
1,93,0,word/wordth0931.png,image/False/imgf93.png,0,67,67,67,421.1620016249999,,,,,,,422.6619091249995,422.1456738750003,422.1692618750003,422.1692618750003,422.64975787500043,423.7613948750004,423.7613948750004,x,2.7961205829997198,None,422.1692618750003,,,,,,,,yupath,001,2025-02-27_14h40.37.717,MainFlow,2024.1.5,None,2025-02-27 14h40.49.299931 +0700,
1,30,1,word/wordth0301.png,image/True/img30.png,0,68,68,68,426.57057175000045,,,,,,,428.0619924999992,427.5499048340007,427.57346529200004,427.57346529200004,428.0501504999993,429.1691971670007,429.1691971670007,z,1.3718211249997694,None,,,,,,,,,yupath,001,2025-02-27_14h40.37.717,MainFlow,2024.1.5,None,2025-02-27 14h40.49.299931 +0700,
1,46,0,word/wordth0461.png,image/False/imgf46.png,0,69,69,69,430.5537536669999,,,,,,,432.04944954200073,431.5334691249991,431.5583350420002,431.5583350420002,432.0452205420006,433.1824694169991,433.1824694169991,z,4.446594166998693,None,,,,,,,,,yupath,001,2025-02-27_14h40.37.717,MainFlow,2024.1.5,None,2025-02-27 14h40.49.299931 +0700,
1,27,0,word/wordth0271.png,image/False/imgf27.png,0,70,70,70,437.64507137500004,,,,,,,439.1450850000001,438.62883104200046,438.65218966700013,438.65218966700013,439.1334543339999,440.2533782499995,440.2533782499995,x,1.3190320410012646,None,438.65218966700013,,,,,,,,yupath,001,2025-02-27_14h40.37.717,MainFlow,2024.1.5,None,2025-02-27 14h40.49.299931 +0700,
1,37,1,word/wordth0371.png,image/True/img37.png,0,71,71,71,441.58692404199974,,,,,,,443.08270054199966,442.56659916699937,442.5901878749992,442.5901878749992,443.0783727090002,444.2193013340002,444.2193013340002,x,1.6024018329990213,None,,,,,,,,,yupath,001,2025-02-27_14h40.37.717,MainFlow,2024.1.5,None,2025-02-27 14h40.49.299931 +0700,
1,20,1,word/wordth0201.png,image/True/img20.png,0,72,72,72,445.8365037090007,,,,,,,447.3284094589999,446.8162851670004,446.83988124999996,446.83988124999996,447.31654691699987,448.4583350840003,448.4583350840003,x,6.122647958000016,None,,,,,,,,,yupath,001,2025-02-27_14h40.37.717,MainFlow,2024.1.5,None,2025-02-27 14h40.49.299931 +0700,
1,17,1,word/wordth0171.png,image/True/img17.png,0,73,73,73,454.59520341700045,,,,,,,456.09505733399965,455.57880662500065,455.6030523339996,455.6030523339996,456.0832032920007,457.2075886669991,457.2075886669991,z,8.470440709001196,None,455.6030523339996,,,,,,,,yupath,001,2025-02-27_14h40.37.717,MainFlow,2024.1.5,None,2025-02-27 14h40.49.299931 +0700,
1,10,0,word/wordth0101.png,image/False/imgf10.png,0,74,74,74,465.6865244170003,,,,,,,467.1782967090003,466.6666028340005,466.690345125,466.690345125,467.16670691699983,468.29556279200006,468.29556279200006,x,1.1339923750001617,None,,,,,,,,,yupath,001,2025-02-27_14h40.37.717,MainFlow,2024.1.5,None,2025-02-27 14h40.49.299931 +0700,
1,68,1,word/wordth0681.png,image/True/img68.png,0,75,75,75,469.4449676250006,,,,,,,470.9450105420001,470.4287719999993,470.4535297090006,470.4535297090006,470.93282524999995,472.03314770900033,472.03314770900033,z,1.1321074160005082,None,470.4535297090006,,,,,,,,yupath,001,2025-02-27_14h40.37.717,MainFlow,2024.1.5,None,2025-02-27 14h40.49.299931 +0700,
1,82,0,word/wordth0821.png,image/False/imgf82.png,0,76,76,76,473.1783183339994,,,,,,,474.6783181669998,474.1620454170006,474.1862620840002,474.1862620840002,474.6662302500008,475.7896990419995,475.7896990419995,x,2.8731056659999012,None,474.1862620840002,,,,,,,,yupath,001,2025-02-27_14h40.37.717,MainFlow,2024.1.5,None,2025-02-27 14h40.49.299931 +0700,
1,42,1,word/wordth0421.png,image/True/img42.png,0,77,77,77,478.6782745420005,,,,,,,480.1783370840003,479.6618545420006,479.6859571669993,479.6859571669993,480.1660350000002,481.29752087499946,481.29752087499946,x,4.506653957998424,None,479.6859571669993,,,,,,,,yupath,001,2025-02-27_14h40.37.717,MainFlow,2024.1.5,None,2025-02-27 14h40.49.299931 +0700,
1,59,1,word/wordth0591.png,image/True/img59.png,0,78,78,78,485.8200976249991,,,,,,,487.3157955839997,486.7998377919994,486.824756,486.824756,487.3115786670005,488.40954749999946,488.40954749999946,z,1.4527144170006068,None,,,,,,,,,yupath,001,2025-02-27_14h40.37.717,MainFlow,2024.1.5,None,2025-02-27 14h40.49.299931 +0700,
1,18,1,word/wordth0181.png,image/True/img18.png,0,79,79,79,489.8781770839996,,,,,,,491.37814545900073,490.8620499999997,490.8867960000007,490.8867960000007,491.3665659590006,492.47733766700003,492.47733766700003,z,3.1998147500016785,None,490.8867960000007,,,,,,,,yupath,001,2025-02-27_14h40.37.717,MainFlow,2024.1.5,None,2025-02-27 14h40.49.299931 +0700,
1,63,1,word/wordth0631.png,image/True/img63.png,0,80,80,80,495.6866708340003,,,,,,,497.1826029170006,496.66639820899945,496.68989658399914,496.68989658399914,497.17816604200016,498.2990236250007,498.2990236250007,z,6.946286249998593,None,,,,,,,,,yupath,001,2025-02-27_14h40.37.717,MainFlow,2024.1.5,None,2025-02-27 14h40.49.299931 +0700,
1,40,0,word/wordth0401.png,image/False/imgf40.png,0,81,81,81,505.26138441699914,,,,,,,506.76142274999984,506.24519987500025,506.2685182919995,506.2685182919995,506.7493520000007,507.87705166699925,507.87705166699925,z,2.6712050000005547,None,506.2685182919995,,,,,,,,yupath,001,2025-02-27_14h40.37.717,MainFlow,2024.1.5,None,2025-02-27 14h40.49.299931 +0700,
1,55,0,word/wordth0551.png,image/False/imgf55.png,0,82,82,82,510.56131058400024,,,,,,,512.0613654169993,511.54477804199996,511.5694158339993,511.5694158339993,512.0493464169995,513.1786329170009,513.1786329170009,x,5.451397999999244,None,511.5694158339993,,,,,,,,yupath,001,2025-02-27_14h40.37.717,MainFlow,2024.1.5,None,2025-02-27 14h40.49.299931 +0700,
1,26,1,word/wordth0261.png,image/True/img26.png,0,83,83,83,518.6447500419999,,,,,,,520.1446056669993,519.6283079170007,519.6532390840002,519.6532390840002,520.1325038750001,521.2719409590009,521.2719409590009,z,3.901083374999871,None,519.6532390840002,,,,,,,,yupath,001,2025-02-27_14h40.37.717,MainFlow,2024.1.5,None,2025-02-27 14h40.49.299931 +0700,
1,28,0,word/wordth0281.png,image/False/imgf28.png,0,84,84,84,525.186291,,,,,,,526.6779470839992,526.1662511249997,526.1905214170001,526.1905214170001,526.6666021250003,527.7935979590002,527.7935979590002,x,4.771294708001733,None,,,,,,,,,yupath,001,2025-02-27_14h40.37.717,MainFlow,2024.1.5,None,2025-02-27 14h40.49.299931 +0700,
1,8,0,word/wordth0081.png,image/False/imgf08.png,0,85,85,85,532.5780132920008,,,,,,,534.0778391669992,533.5616935840007,533.586544709,533.586544709,534.06572925,535.1764434590004,535.1764434590004,x,1.6115907090006658,None,533.586544709,,,,,,,,yupath,001,2025-02-27_14h40.37.717,MainFlow,2024.1.5,None,2025-02-27 14h40.49.299931 +0700,
1,9,1,word/wordth0091.png,image/True/img09.png,0,86,86,86,536.8033239590004,,,,,,,538.2946362919993,537.7828142920007,537.8078666250003,537.8078666250003,538.2830220840005,539.3812111250008,539.3812111250008,z,2.880205292000028,None,,,,,,,,,yupath,001,2025-02-27_14h40.37.717,MainFlow,2024.1.5,None,2025-02-27 14h40.49.299931 +0700,
1,78,1,word/wordth0781.png,image/True/img78.png,0,87,87,87,542.2778398749997,,,,,,,543.7778354170005,543.2616999999991,543.2859012919998,543.2859012919998,543.7660280839991,544.8808356249992,544.8808356249992,z,5.419450749999669,None,543.2859012919998,,,,,,,,yupath,001,2025-02-27_14h40.37.717,MainFlow,2024.1.5,None,2025-02-27 14h40.49.299931 +0700,
1,1,0,word/wordth0011.png,image/False/imgf01.png,0,88,88,88,550.3166942919997,,,,,,,551.8112118749996,551.2988561670008,551.3227198339991,551.3227198339991,551.7989410419996,552.9211167920002,552.9211167920002,x,3.3244037499989645,None,,,,,,,,,yupath,001,2025-02-27_14h40.37.717,MainFlow,2024.1.5,None,2025-02-27 14h40.49.299931 +0700,
1,71,1,word/wordth0711.png,image/True/img71.png,0,89,89,89,556.2609168750005,,,,,,,557.7611132919992,557.2449958340003,557.2706826670001,557.2706826670001,557.7490377499998,558.8883875840002,558.8883875840002,z,1.141121791999467,None,557.2706826670001,,,,,,,,yupath,001,2025-02-27_14h40.37.717,MainFlow,2024.1.5,None,2025-02-27 14h40.49.299931 +0700,
1,93,1,word/wordth0931.png,image/True/img93.png,0,90,90,90,560.0443464170003,,,,,,,561.5445133339999,561.0281285839992,561.0522120419992,561.0522120419992,561.5323932089996,562.6476269169998,562.6476269169998,z,5.1415385420004895,None,561.0522120419992,,,,,,,,yupath,001,2025-02-27_14h40.37.717,MainFlow,2024.1.5,None,2025-02-27 14h40.49.299931 +0700,
1,78,0,word/wordth0781.png,image/False/imgf78.png,0,91,91,91,567.8028965840003,,,,,,,569.2986185419995,568.7825748340001,568.8058974169999,568.8058974169999,569.2944577500002,570.3970432089991,570.3970432089991,x,3.1435022500008927,None,,,,,,,,,yupath,001,2025-02-27_14h40.37.717,MainFlow,2024.1.5,None,2025-02-27 14h40.49.299931 +0700,
1,8,0,word/wordth0081.png,image/False/imgf08.png,0,92,92,92,573.5528160840004,,,,,,,575.0443159170009,574.5322487499998,574.5548847499995,574.5548847499995,575.0328362920009,576.1450663340001,576.1450663340001,x,2.075173957999141,None,,,,,,,,,yupath,001,2025-02-27_14h40.37.717,MainFlow,2024.1.5,None,2025-02-27 14h40.49.299931 +0700,
1,9,0,word/wordth0091.png,image/False/imgf09.png,0,93,93,93,578.2363325000006,,,,,,,579.7320292919994,579.2159602089996,579.2393777920006,579.2393777920006,579.7278557919999,580.8251847920001,580.8251847920001,x,3.3961083340000187,None,,,,,,,,,yupath,001,2025-02-27_14h40.37.717,MainFlow,2024.1.5,None,2025-02-27 14h40.49.299931 +0700,
1,75,1,word/wordth0751.png,image/True/img75.png,0,94,94,94,584.2361049589999,,,,,,,585.7320080000009,585.2159073750008,585.2404640839995,585.2404640839995,585.7277351249995,586.8580184589991,586.8580184589991,z,4.19543270900067,None,,,,,,,,,yupath,001,2025-02-27_14h40.37.717,MainFlow,2024.1.5,None,2025-02-27 14h40.49.299931 +0700,
1,95,0,word/wordth0951.png,image/False/imgf95.png,0,95,95,95,591.0687164999999,,,,,,,592.5609481249994,592.0486062090004,592.0721792919994,592.0721792919994,592.5488685,593.6878002499998,593.6878002499998,x,9.36517641699902,None,,,,,,,,,yupath,001,2025-02-27_14h40.37.717,MainFlow,2024.1.5,None,2025-02-27 14h40.49.299931 +0700,
1,70,1,word/wordth0701.png,image/True/img70.png,0,96,96,96,603.0692290419993,,,,,,,604.5651400000006,604.0490244169996,604.0736312499994,604.0736312499994,604.5609198340007,605.6856674169994,605.6856674169994,z,8.576213874999667,None,,,,,,,,,yupath,001,2025-02-27_14h40.37.717,MainFlow,2024.1.5,None,2025-02-27 14h40.49.299931 +0700,
1,94,0,word/wordth0941.png,image/False/imgf94.png,0,97,97,97,614.2775109590002,,,,,,,615.7775237089991,615.261102167,615.2846900420009,615.2846900420009,615.7652439590001,616.9102460419999,616.9102460419999,x,1.4698162920012692,None,615.2846900420009,,,,,,,,yupath,001,2025-02-27_14h40.37.717,MainFlow,2024.1.5,None,2025-02-27 14h40.49.299931 +0700,
1,9,0,word/wordth0091.png,image/False/imgf09.png,0,98,98,98,618.3941890000006,,,,,,,619.8940957089999,619.3778616250002,619.4026775000002,619.4026775000002,619.8819526669995,620.9874512919996,620.9874512919996,x,1.512158207999164,None,619.4026775000002,,,,,,,,yupath,001,2025-02-27_14h40.37.717,MainFlow,2024.1.5,None,2025-02-27 14h40.49.299931 +0700,
1,18,0,word/wordth0181.png,image/False/imgf18.png,0,99,99,99,622.5161199590002,,,,,,,624.015038042,623.4990940419993,623.5237215420002,623.5237215420002,624.0108102499998,625.1289624170004,625.1289624170004,x,5.068065708001086,None,623.5237215420002,,,,,,,,yupath,001,2025-02-27_14h40.37.717,MainFlow,2024.1.5,None,2025-02-27 14h40.49.299931 +0700,
1,28,1,word/wordth0281.png,image/True/img28.png,0,100,100,100,630.2105935,,,,,,,631.7107180000003,631.1944521250007,631.2189484999999,631.2189484999999,631.698694875,632.8407766670007,632.8407766670007,z,2.3237037079998117,None,631.2189484999999,,,,,,,,yupath,001,2025-02-27_14h40.37.717,MainFlow,2024.1.5,None,2025-02-27 14h40.49.299931 +0700,
1,23,1,word/wordth0231.png,image/True/img23.png,0,101,101,101,635.1772406250002,,,,,,,636.6773754589994,636.1610302499994,636.1855708340008,636.1855708340008,636.6653808339997,637.7927215420004,637.7927215420004,z,2.116502416000003,None,636.1855708340008,,,,,,,,yupath,001,2025-02-27_14h40.37.717,MainFlow,2024.1.5,None,2025-02-27 14h40.49.299931 +0700,
1,30,0,word/wordth0301.png,image/False/imgf30.png,0,102,102,102,639.9189872089992,,,,,,,641.410599584,640.8983646670004,640.9228641249993,640.9228641249993,641.3985412500006,642.5269335840003,642.5269335840003,x,5.069115124999371,None,,,,,,,,,yupath,001,2025-02-27_14h40.37.717,MainFlow,2024.1.5,None,2025-02-27 14h40.49.299931 +0700,
1,11,1,word/wordth0111.png,image/True/img11.png,0,103,103,103,647.6105452089996,,,,,,,649.1106342919993,648.5944112920006,648.6190324590007,648.6190324590007,649.0991808340004,650.2501387499997,650.2501387499997,z,2.3790147920008167,None,648.6190324590007,,,,,,,,yupath,001,2025-02-27_14h40.37.717,MainFlow,2024.1.5,None,2025-02-27 14h40.49.299931 +0700,
1,75,0,word/wordth0751.png,image/False/imgf75.png,0,104,104,104,652.6440790420002,,,,,,,654.1438657090002,653.6277214170004,653.6515810839992,653.6515810839992,654.1317875839995,655.2579794590001,655.2579794590001,x,2.12271279199922,None,653.6515810839992,,,,,,,,yupath,001,2025-02-27_14h40.37.717,MainFlow,2024.1.5,None,2025-02-27 14h40.49.299931 +0700,
1,6,0,word/wordth0061.png,image/False/imgf06.png,0,105,105,105,657.3940526669994,,,,,,,658.8939185420004,658.377728292,658.4043939589992,658.4043939589992,658.8822441249995,659.9904474590003,659.9904474590003,x,2.405581457998778,None,658.4043939589992,,,,,,,,yupath,001,2025-02-27_14h40.37.717,MainFlow,2024.1.5,None,2025-02-27 14h40.49.299931 +0700,
1,27,1,word/wordth0271.png,image/True/img27.png,0,106,106,106,662.4104541249999,,,,,,,663.9105455419995,663.3941837500006,663.4176967919993,663.4176967919993,663.8984751669996,665.0164590000004,665.0164590000004,z,1.300337083001068,None,663.4176967919993,,,,,,,,yupath,001,2025-02-27_14h40.37.717,MainFlow,2024.1.5,None,2025-02-27 14h40.49.299931 +0700,
1,1,1,word/wordth0011.png,image/True/img01.png,0,107,107,107,666.3349302499992,,,,,,,667.8272379169994,667.3148308750006,667.3383764999999,667.3383764999999,667.8151256670008,668.9556601250006,668.9556601250006,z,5.065372582999771,None,,,,,,,,,yupath,001,2025-02-27_14h40.37.717,MainFlow,2024.1.5,None,2025-02-27 14h40.49.299931 +0700,
1,44,0,word/wordth0441.png,image/False/imgf44.png,0,108,108,108,674.0351757499993,,,,,,,675.5270273339993,675.0148466249993,675.0387030000002,675.0387030000002,675.5155290420007,676.6590208340003,676.6590208340003,x,4.186393333000524,None,,,,,,,,,yupath,001,2025-02-27_14h40.37.717,MainFlow,2024.1.5,None,2025-02-27 14h40.49.299931 +0700,
1,48,0,word/wordth0481.png,image/False/imgf48.png,0,109,109,109,680.8604687919997,,,,,,,682.3605055000007,681.8441431669999,681.8676616249995,681.8676616249995,682.3482557499992,683.4937734169998,683.4937734169998,x,1.7024802500000078,None,681.8676616249995,,,,,,,,yupath,001,2025-02-27_14h40.37.717,MainFlow,2024.1.5,None,2025-02-27 14h40.49.299931 +0700,
1,60,0,word/wordth0601.png,image/False/imgf60.png,0,110,110,110,685.2103271670003,,,,,,,686.7105319170005,686.194056417,686.2186573750005,686.2186573750005,686.6985709170003,687.8225906249991,687.8225906249991,x,2.255506333000085,None,686.2186573750005,,,,,,,,yupath,001,2025-02-27_14h40.37.717,MainFlow,2024.1.5,None,2025-02-27 14h40.49.299931 +0700,
1,96,1,word/wordth0961.png,image/True/img96.png,0,111,111,111,690.0938108339997,,,,,,,691.5936962920005,691.0774516670008,691.1022297920008,691.1022297920008,691.5815122500007,692.7134029999997,692.7134029999997,z,1.130514583999684,None,691.1022297920008,,,,,,,,yupath,001,2025-02-27_14h40.37.717,MainFlow,2024.1.5,None,2025-02-27 14h40.49.299931 +0700,
1,79,0,word/wordth0791.png,image/False/imgf79.png,0,112,112,112,693.8603033340005,,,,,,,695.360314042,694.8440505840008,694.8676916669992,694.8676916669992,695.3482232499991,696.4847009170007,696.4847009170007,x,3.8155112090007606,None,694.8676916669992,,,,,,,,yupath,001,2025-02-27_14h40.37.717,MainFlow,2024.1.5,None,2025-02-27 14h40.49.299931 +0700,
1,7,0,word/wordth0071.png,image/False/imgf07.png,0,113,113,113,700.3189685420002,,,,,,,701.8103760840004,701.2982187090001,701.3222585000003,701.3222585000003,701.7987938749993,702.9301995839996,702.9301995839996,x,4.426408750001428,None,,,,,,,,,yupath,001,2025-02-27_14h40.37.717,MainFlow,2024.1.5,None,2025-02-27 14h40.49.299931 +0700,
1,36,0,word/wordth0361.png,image/False/imgf36.png,0,114,114,114,707.3689130420007,,,,,,,708.8645906670008,708.3484143749993,708.3731524590003,708.3731524590003,708.8603361669993,709.9776619170007,709.9776619170007,x,2.6193362079993676,None,,,,,,,,,yupath,001,2025-02-27_14h40.37.717,MainFlow,2024.1.5,None,2025-02-27 14h40.49.299931 +0700,
1,71,0,word/wordth0711.png,image/False/imgf71.png,0,115,115,115,712.6102232920002,,,,,,,714.1102027500001,713.5940737919991,713.6188722499992,713.6188722499992,714.0981170840005,715.2440516250008,715.2440516250008,x,1.438937041999452,None,713.6188722499992,,,,,,,,yupath,001,2025-02-27_14h40.37.717,MainFlow,2024.1.5,None,2025-02-27 14h40.49.299931 +0700,
1,20,0,word/wordth0201.png,image/False/imgf20.png,0,116,116,116,716.6989620000004,,,,,,,718.1982882089997,717.6818525840008,717.7062820419997,717.7062820419997,718.1936079589996,719.3369531249991,719.3369531249991,x,2.099795374999303,None,717.7062820419997,,,,,,,,yupath,001,2025-02-27_14h40.37.717,MainFlow,2024.1.5,None,2025-02-27 14h40.49.299931 +0700,
1,87,1,word/wordth0871.png,image/True/img87.png,0,117,117,117,721.4513855000005,,,,,,,722.9434609170003,722.4312957919992,722.4552708339997,722.4552708339997,722.931411042,724.0706457920005,724.0706457920005,z,1.838489584000854,None,,,,,,,,,yupath,001,2025-02-27_14h40.37.717,MainFlow,2024.1.5,None,2025-02-27 14h40.49.299931 +0700,
1,50,0,word/wordth0501.png,image/False/imgf50.png,0,118,118,118,725.9188175840009,,,,,,,727.4144442090001,726.8984097920002,726.9227121250005,726.9227121250005,727.4102495000006,728.5247954999995,728.5247954999995,x,2.6479417080008716,None,,,,,,,,,yupath,001,2025-02-27_14h40.37.717,MainFlow,2024.1.5,None,2025-02-27 14h40.49.299931 +0700,
1,18,1,word/wordth0181.png,image/True/img18.png,0,119,119,119,731.1850922499998,,,,,,,732.6767880419993,732.1646220420007,732.1879201249994,732.1879201249994,732.6650773750007,733.7788796669993,733.7788796669993,z,1.2483358749996114,None,,,,,,,,,yupath,001,2025-02-27_14h40.37.717,MainFlow,2024.1.5,None,2025-02-27 14h40.49.299931 +0700,
1,71,0,word/wordth0711.png,image/False/imgf71.png,0,120,120,120,735.0434179170006,,,,,,,736.5433337089999,736.0271912499993,736.0506709170004,736.0506709170004,736.5312349169999,737.6799709169991,737.6799709169991,x,1.691805916998419,None,736.0506709170004,,,,,,,,yupath,001,2025-02-27_14h40.37.717,MainFlow,2024.1.5,None,2025-02-27 14h40.49.299931 +0700,
1,46,1,word/wordth0461.png,image/True/img46.png,0,121,121,121,739.3853144170007,,,,,,,740.876550125,740.364823209,740.3896044169996,740.3896044169996,740.865046334,742.0138440419996,742.0138440419996,x,8.798120457999175,None,,,,,,,,,yupath,001,2025-02-27_14h40.37.717,MainFlow,2024.1.5,None,2025-02-27 14h40.49.299931 +0700,
1,10,1,word/wordth0101.png,image/True/img10.png,0,122,122,122,750.8266247089996,,,,,,,752.3266303750006,751.810401834,751.8348658340001,751.8348658340001,752.3145490839997,753.4327869169992,753.4327869169992,z,2.4829937079994124,None,751.8348658340001,,,,,,,,yupath,001,2025-02-27_14h40.37.717,MainFlow,2024.1.5,None,2025-02-27 14h40.49.299931 +0700,
1,16,0,word/wordth0161.png,image/False/imgf16.png,0,123,123,123,755.9322337499998,,,,,,,757.4308471669992,756.9149498749994,756.9393081670005,756.9393081670005,757.4266253749993,758.5553432090001,758.5553432090001,x,6.632673875001274,None,756.9393081670005,,,,,,,,yupath,001,2025-02-27_14h40.37.717,MainFlow,2024.1.5,None,2025-02-27 14h40.49.299931 +0700,
1,15,0,word/wordth0151.png,image/False/imgf15.png,0,124,124,124,765.2018929170008,,,,,,,766.6975800839991,766.1816001669995,766.2057865419993,766.2057865419993,766.6933578749995,767.8081168749995,767.8081168749995,x,3.772576041999855,None,,,,,,,,,yupath,001,2025-02-27_14h40.37.717,MainFlow,2024.1.5,None,2025-02-27 14h40.49.299931 +0700,
1,59,0,word/wordth0591.png,image/False/imgf59.png,0,125,125,125,771.5931616670005,,,,,,,773.0932921250005,772.5769411670008,772.6027180000001,772.6027180000001,773.0810185419996,774.1853382089994,774.1853382089994,x,3.6023385829994368,None,772.6027180000001,,,,,,,,yupath,001,2025-02-27_14h40.37.717,MainFlow,2024.1.5,None,2025-02-27 14h40.49.299931 +0700,
1,11,0,word/wordth0111.png,image/False/imgf11.png,0,126,126,126,777.801640959,,,,,,,779.2933115420001,778.7813550840001,778.805557959,778.805557959,779.281444917,780.4264632920003,780.4264632920003,x,3.1146568749991275,None,,,,,,,,,yupath,001,2025-02-27_14h40.37.717,MainFlow,2024.1.5,None,2025-02-27 14h40.49.299931 +0700,
1,75,1,word/wordth0751.png,image/True/img75.png,0,127,127,127,783.5513020840008,,,,,,,785.0474587089993,784.5315090420008,784.5556425840005,784.5556425840005,785.0432578340005,786.1636440839993,786.1636440839993,z,3.8482536249994155,None,,,,,,,,,yupath,001,2025-02-27_14h40.37.717,MainFlow,2024.1.5,None,2025-02-27 14h40.49.299931 +0700,
1,33,1,word/wordth0331.png,image/True/img33.png,0,128,128,128,790.0253707920001,,,,,,,791.5264537500007,791.0102548340001,791.0343254590007,791.0343254590007,791.5143350840008,792.643763,792.643763,z,3.6009867089996987,None,791.0343254590007,,,,,,,,yupath,001,2025-02-27_14h40.37.717,MainFlow,2024.1.5,None,2025-02-27 14h40.49.299931 +0700,
1,66,0,word/wordth0661.png,image/False/imgf66.png,0,129,129,129,796.2596086249996,,,,,,,797.7596959589991,797.2435296669992,797.2678980420005,797.2678980420005,797.747636,798.8775766670005,798.8775766670005,x,5.4213461660001485,None,797.2678980420005,,,,,,,,yupath,001,2025-02-27_14h40.37.717,MainFlow,2024.1.5,None,2025-02-27 14h40.49.299931 +0700,
1,38,1,word/wordth0381.png,image/True/img38.png,0,130,130,130,804.3150531249994,,,,,,,805.8139212919996,805.2980593749999,805.3229165419998,805.3229165419998,805.8097111250008,806.9204577500004,806.9204577500004,z,6.315679000001182,None,805.3229165419998,,,,,,,,yupath,001,2025-02-27_14h40.37.717,MainFlow,2024.1.5,None,2025-02-27 14h40.49.299931 +0700,
1,38,1,word/wordth0381.png,image/True/img38.png,0,131,131,131,813.2514135420006,,,,,,,814.7473073340007,814.2312761249996,814.25528725,814.25528725,814.7431044589994,815.8548460420006,815.8548460420006,z,4.3252223340005,None,,,,,,,,,yupath,001,2025-02-27_14h40.37.717,MainFlow,2024.1.5,None,2025-02-27 14h40.49.299931 +0700,
1,63,1,word/wordth0631.png,image/True/img63.png,0,132,132,132,820.1928480419992,,,,,,,821.6929888750001,821.1765889170001,821.2000662499995,821.2000662499995,821.6807554999996,822.8116764589995,822.8116764589995,x,4.513396125001236,None,821.2000662499995,,,,,,,,yupath,001,2025-02-27_14h40.37.717,MainFlow,2024.1.5,None,2025-02-27 14h40.49.299931 +0700,
1,33,0,word/wordth0331.png,image/False/imgf33.png,0,133,133,133,827.3345850000005,,,,,,,828.8309742090005,828.314487959,828.3380775419992,828.3380775419992,828.8262930000001,829.9524007500004,829.9524007500004,x,1.3721732920002978,None,,,,,,,,,yupath,001,2025-02-27_14h40.37.717,MainFlow,2024.1.5,None,2025-02-27 14h40.49.299931 +0700,
1,52,1,word/wordth0521.png,image/True/img52.png,0,134,134,134,831.3343487500006,,,,,,,832.8303424999995,832.3147741249995,832.3403611670001,832.3403611670001,832.8262344169998,833.9521192499997,833.9521192499997,z,1.4439645000002201,None,,,,,,,,,yupath,001,2025-02-27_14h40.37.717,MainFlow,2024.1.5,None,2025-02-27 14h40.49.299931 +0700,
1,11,0,word/wordth0111.png,image/False/imgf11.png,0,135,135,135,835.4094884170008,,,,,,,836.9094872919995,836.3932316249993,836.4165102089992,836.4165102089992,836.8973614589995,838.041117834,838.041117834,x,6.1952451249999285,None,836.4165102089992,,,,,,,,yupath,001,2025-02-27_14h40.37.717,MainFlow,2024.1.5,None,2025-02-27 14h40.49.299931 +0700,
1,1,0,word/wordth0011.png,image/False/imgf01.png,0,136,136,136,844.2510791669993,,,,,,,845.7471994169991,845.2307353340002,845.2549915839991,845.2549915839991,845.7429581249999,846.8525337089995,846.8525337089995,z,6.311854832998506,None,,,,,,,,,yupath,001,2025-02-27_14h40.37.717,MainFlow,2024.1.5,None,2025-02-27 14h40.49.299931 +0700,
1,96,0,word/wordth0961.png,image/False/imgf96.png,0,137,137,137,853.1814404590004,,,,,,,854.6760361670003,854.1638583749991,854.1872754590004,854.1872754590004,854.6639787919994,855.8023058340004,855.8023058340004,x,1.7610862090004957,None,,,,,,,,,yupath,001,2025-02-27_14h40.37.717,MainFlow,2024.1.5,None,2025-02-27 14h40.49.299931 +0700,
1,57,1,word/wordth0571.png,image/True/img57.png,0,138,138,138,857.5760228340005,,,,,,,859.0760890420006,858.5597417499994,858.5831514170004,858.5831514170004,859.0640175839999,860.1999487499997,860.1999487499997,z,1.9099162080001406,None,858.5831514170004,,,,,,,,yupath,001,2025-02-27_14h40.37.717,MainFlow,2024.1.5,None,2025-02-27 14h40.49.299931 +0700,
1,30,1,word/wordth0301.png,image/True/img30.png,0,139,139,139,862.124931667,,,,,,,863.6260308750007,863.1096975,863.1347180419998,863.1347180419998,863.6146453340007,864.7326279999997,864.7326279999997,z,1.2393115410013706,None,863.1347180419998,,,,,,,,yupath,001,2025-02-27_14h40.37.717,MainFlow,2024.1.5,None,2025-02-27 14h40.49.299931 +0700,
1,41,1,word/wordth0411.png,image/True/img41.png,0,140,140,140,865.9842059999992,,,,,,,867.4761072919991,866.9641706250004,866.9893168340004,866.9893168340004,867.4644623749991,868.6034612919993,868.6034612919993,x,5.480363582999416,None,,,,,,,,,yupath,001,2025-02-27_14h40.37.717,MainFlow,2024.1.5,None,2025-02-27 14h40.49.299931 +0700,
1,50,1,word/wordth0501.png,image/True/img50.png,0,141,141,141,874.1004286669995,,,,,,,875.5968041670003,875.0807830419999,875.1049976249997,875.1049976249997,875.5926218339991,876.708748125,876.708748125,z,3.4066939589993126,None,,,,,,,,,yupath,001,2025-02-27_14h40.37.717,MainFlow,2024.1.5,None,2025-02-27 14h40.49.299931 +0700,
1,3,0,word/wordth0031.png,image/False/imgf03.png,0,142,142,142,880.1317932919992,,,,,,,881.6259137920006,881.1142600839994,881.1389110839991,881.1389110839991,881.6143106250001,882.7415837499993,882.7415837499993,x,2.094238874999064,None,,,,,,,,,yupath,001,2025-02-27_14h40.37.717,MainFlow,2024.1.5,None,2025-02-27 14h40.49.299931 +0700,
1,78,1,word/wordth0781.png,image/True/img78.png,0,143,143,143,884.8506370840005,,,,,,,886.3469815419994,885.8308011249992,885.8556428339998,885.8556428339998,886.3427214170006,887.4508884589995,887.4508884589995,z,2.369380124999225,None,,,,,,,,,yupath,001,2025-02-27_14h40.37.717,MainFlow,2024.1.5,None,2025-02-27 14h40.49.299931 +0700,
1,76,0,word/wordth0761.png,image/False/imgf76.png,0,144,144,144,889.8340800000005,,,,,,,891.3303213750005,890.8139921670008,890.8382210420004,890.8382210420004,891.3259552500003,892.4643514170002,892.4643514170002,x,4.460061833000509,None,,,,,,,,,yupath,001,2025-02-27_14h40.37.717,MainFlow,2024.1.5,None,2025-02-27 14h40.49.299931 +0700,
1,6,1,word/wordth0061.png,image/True/img06.png,0,145,145,145,896.9345764169993,,,,,,,898.4301552500001,897.913941584,897.9375528750006,897.9375528750006,898.4259193340004,899.5274707089993,899.5274707089993,z,2.748926666999978,None,,,,,,,,,yupath,001,2025-02-27_14h40.37.717,MainFlow,2024.1.5,None,2025-02-27 14h40.49.299931 +0700,
1,31,0,word/wordth0311.png,image/False/imgf31.png,0,146,146,146,902.2925580840001,,,,,,,903.7925178749992,903.2760780839999,903.3003557920001,903.3003557920001,903.7802639170004,904.8794536250007,904.8794536250007,x,5.629129833001571,None,903.3003557920001,,,,,,,,yupath,001,2025-02-27_14h40.37.717,MainFlow,2024.1.5,None,2025-02-27 14h40.49.299931 +0700,
1,22,0,word/wordth0221.png,image/False/imgf22.png,0,147,147,147,910.5171015420001,,,,,,,912.0091700840003,911.4969772500008,911.5214008750008,911.5214008750008,911.9973317090007,913.1389722919994,913.1389722919994,x,4.954506874999424,None,,,,,,,,,yupath,001,2025-02-27_14h40.37.717,MainFlow,2024.1.5,None,2025-02-27 14h40.49.299931 +0700,
1,28,0,word/wordth0281.png,image/False/imgf28.png,0,148,148,148,918.1089942090002,,,,,,,919.6091114169994,919.0927439999996,919.1175039999998,919.1175039999998,919.5974304169995,920.7213283750007,920.7213283750007,x,1.530804874999376,None,919.1175039999998,,,,,,,,yupath,001,2025-02-27_14h40.37.717,MainFlow,2024.1.5,None,2025-02-27 14h40.49.299931 +0700,
1,57,0,word/wordth0571.png,image/False/imgf57.png,0,149,149,149,922.2673374589995,,,,,,,923.7590137919997,923.2467857499996,923.2705494170004,923.2705494170004,923.7473690419993,924.8815360000008,924.8815360000008,x,5.705899333999696,None,,,,,,,,,yupath,001,2025-02-27_14h40.37.717,MainFlow,2024.1.5,None,2025-02-27 14h40.49.299931 +0700,
1,7,0,word/wordth0071.png,image/False/imgf07.png,0,150,150,150,930.6004347920007,,,,,,,932.0921492500001,931.5801526249998,931.6032082500005,931.6032082500005,932.0802239999994,933.209936792,933.209936792,x,3.7464219169996795,None,,,,,,,,,yupath,001,2025-02-27_14h40.37.717,MainFlow,2024.1.5,None,2025-02-27 14h40.49.299931 +0700,
1,56,1,word/wordth0561.png,image/True/img56.png,0,151,151,151,936.9674336249991,,,,,,,938.4636233340007,937.9471440420002,937.9718214170007,937.9718214170007,938.4589720420008,939.5743811249995,939.5743811249995,z,1.9580423329989571,None,,,,,,,,,yupath,001,2025-02-27_14h40.37.717,MainFlow,2024.1.5,None,2025-02-27 14h40.49.299931 +0700,
1,6,0,word/wordth0061.png,image/False/imgf06.png,0,152,152,152,941.5501700000004,,,,,,,943.0465409589997,942.5304319589995,942.5557018340005,942.5557018340005,943.0423196669999,944.1431422090009,944.1431422090009,x,2.213126792001276,None,,,,,,,,,yupath,001,2025-02-27_14h40.37.717,MainFlow,2024.1.5,None,2025-02-27 14h40.49.299931 +0700,
1,36,0,word/wordth0361.png,image/False/imgf36.png,0,153,153,153,946.367125834,,,,,,,947.85897725,947.3468371250001,947.3704539169994,947.3704539169994,947.8473608749991,948.9780214170005,948.9780214170005,x,3.225853208999979,None,,,,,,,,,yupath,001,2025-02-27_14h40.37.717,MainFlow,2024.1.5,None,2025-02-27 14h40.49.299931 +0700,
1,79,1,word/wordth0791.png,image/True/img79.png,0,154,154,154,952.2168306250005,,,,,,,953.7132875419993,953.1970650839994,953.2212166669997,953.2212166669997,953.7090678749992,954.8275774169997,954.8275774169997,z,2.682309540999995,None,,,,,,,,,yupath,001,2025-02-27_14h40.37.717,MainFlow,2024.1.5,None,2025-02-27 14h40.49.299931 +0700,
1,52,0,word/wordth0521.png,image/False/imgf52.png,0,155,155,155,957.5255154589995,,,,,,,959.0255110420003,958.5092087920002,958.5337176249996,958.5337176249996,959.0135258339997,960.1291390839997,960.1291390839997,x,1.3391071669993835,None,958.5337176249996,,,,,,,,yupath,001,2025-02-27_14h40.37.717,MainFlow,2024.1.5,None,2025-02-27 14h40.49.299931 +0700,
1,18,0,word/wordth0181.png,image/False/imgf18.png,0,156,156,156,961.4840940419999,,,,,,,962.9754520000006,962.4638101670007,962.4878089590002,962.4878089590002,962.9640569170006,964.0918901669993,964.0918901669993,x,3.6879250000001775,None,,,,,,,,,yupath,001,2025-02-27_14h40.37.717,MainFlow,2024.1.5,None,2025-02-27 14h40.49.299931 +0700,
1,23,1,word/wordth0231.png,image/True/img23.png,0,157,157,157,967.7921206669998,,,,,,,969.2921321249996,968.7757827500009,968.7997211670008,968.7997211670008,969.2798809169999,970.40740525,970.40740525,z,2.396918500000538,None,968.7997211670008,,,,,,,,yupath,001,2025-02-27_14h40.37.717,MainFlow,2024.1.5,None,2025-02-27 14h40.49.299931 +0700,
1,61,1,word/wordth0611.png,image/True/img61.png,0,158,158,158,972.8172098750001,,,,,,,974.3086899589998,973.7964612920005,973.8207305840006,973.8207305840006,974.2965440000007,975.4268089590005,975.4268089590005,z,3.9855894579995947,None,,,,,,,,,yupath,001,2025-02-27_14h40.37.717,MainFlow,2024.1.5,None,2025-02-27 14h40.49.299931 +0700,
1,44,1,word/wordth0441.png,image/True/img44.png,0,159,159,159,979.4252293749996,,,,,,,980.9252770420007,980.4091249590001,980.4331806249993,980.4331806249993,980.9131605000002,982.0330217089995,982.0330217089995,z,5.459916292000344,None,980.4331806249993,,,,,,,,yupath,001,2025-02-27_14h40.37.717,MainFlow,2024.1.5,None,2025-02-27 14h40.49.299931 +0700,
1,10,1,word/wordth0101.png,image/True/img10.png,0,160,160,160,987.5086941249992,,,,,,,989.0086928750006,988.4922511669993,988.5180217500001,988.5180217500001,988.9966355840006,990.1173082500009,990.1173082500009,z,3.6867730419999134,None,988.5180217500001,,,,,,,,yupath,001,2025-02-27_14h40.37.717,MainFlow,2024.1.5,None,2025-02-27 14h40.49.299931 +0700,
1,31,1,word/wordth0311.png,image/True/img31.png,0,161,161,161,993.8163280839999,,,,,,,995.3085529590007,994.7923027920006,994.8162814169991,994.8162814169991,995.2966153750003,996.4214900839997,996.4214900839997,z,2.406194749999486,None,,,,,,,,,yupath,001,2025-02-27_14h40.37.717,MainFlow,2024.1.5,None,2025-02-27 14h40.49.299931 +0700,
1,14,0,word/wordth0141.png,image/False/imgf14.png,0,162,162,162,998.8417752090008,,,,,,,1000.3418838340003,999.8257871669994,999.8505829170008,999.8505829170008,1000.3298493750008,1001.4581202089994,1001.4581202089994,x,1.9697832080000808,None,999.8505829170008,,,,,,,,yupath,001,2025-02-27_14h40.37.717,MainFlow,2024.1.5,None,2025-02-27 14h40.49.299931 +0700,
1,15,0,word/wordth0151.png,image/False/imgf15.png,0,163,163,163,1003.4417521249998,,,,,,,1004.9419292500006,1004.4256411669994,1004.4507575000007,1004.4507575000007,1004.9296555839992,1006.0541738749998,1006.0541738749998,x,1.1967965830008325,None,1004.4507575000007,,,,,,,,yupath,001,2025-02-27_14h40.37.717,MainFlow,2024.1.5,None,2025-02-27 14h40.49.299931 +0700,
1,51,1,word/wordth0511.png,image/True/img51.png,0,164,164,164,1007.2666482090008,,,,,,,1008.7627784169999,1008.2468795000004,1008.2721235000008,1008.2721235000008,1008.7585660419991,1009.8840874590005,1009.8840874590005,z,7.679407625000749,None,,,,,,,,,yupath,001,2025-02-27_14h40.37.717,MainFlow,2024.1.5,None,2025-02-27 14h40.49.299931 +0700,
1,82,1,word/wordth0821.png,image/True/img82.png,0,165,165,165,1017.5750339170008,,,,,,,1019.0751526250006,1018.5588457920003,1018.5842944169999,1018.5842944169999,1019.0630898340005,1020.1620535420006,1020.1620535420006,z,2.426005166998948,None,1018.5842944169999,,,,,,,,yupath,001,2025-02-27_14h40.37.717,MainFlow,2024.1.5,None,2025-02-27 14h40.49.299931 +0700,
1,27,0,word/wordth0271.png,image/False/imgf27.png,0,166,166,166,1022.6002333340002,,,,,,,1024.0966986669991,1023.5800082090009,1023.6039270839992,1023.6039270839992,1024.091990249999,1025.2062007919994,1025.2062007919994,x,4.44618304100004,None,,,,,,,,,yupath,001,2025-02-27_14h40.37.717,MainFlow,2024.1.5,None,2025-02-27 14h40.49.299931 +0700,
1,78,0,word/wordth0781.png,image/False/imgf78.png,0,167,167,167,1029.6668025420004,,,,,,,1031.1631363340002,1030.646245,1030.6701985,1030.6701985,1031.158451792,1032.262020667,1032.262020667,x,1.9581477499996254,None,,,,,,,,,yupath,001,2025-02-27_14h40.37.717,MainFlow,2024.1.5,None,2025-02-27 14h40.49.299931 +0700,
1,89,1,word/wordth0891.png,image/True/img89.png,0,168,168,168,1034.2333330000001,,,,,,,1035.7293062089993,1035.213301459,1035.2382388749993,1035.2382388749993,1035.7250255,1036.8296561669995,1036.8296561669995,z,2.04677004199948,None,,,,,,,,,yupath,001,2025-02-27_14h40.37.717,MainFlow,2024.1.5,None,2025-02-27 14h40.49.299931 +0700,
1,76,1,word/wordth0761.png,image/True/img76.png,0,169,169,169,1038.891678209,,,,,,,1040.3916725840008,1039.8754730420005,1039.9007388339996,1039.9007388339996,1040.3796103749992,1041.5058059999992,1041.5058059999992,z,6.762616459000128,None,1039.9007388339996,,,,,,,,yupath,001,2025-02-27_14h40.37.717,MainFlow,2024.1.5,None,2025-02-27 14h40.49.299931 +0700,
1,17,0,word/wordth0171.png,image/False/imgf17.png,0,170,170,170,1048.283323709,,,,,,,1049.7789911250002,1049.263161584,1049.2868319169993,1049.2868319169993,1049.7748198749996,1050.9000641250004,1050.9000641250004,z,3.375868332999744,None,,,,,,,,,yupath,001,2025-02-27_14h40.37.717,MainFlow,2024.1.5,None,2025-02-27 14h40.49.299931 +0700,
1,95,1,word/wordth0951.png,image/True/img95.png,0,171,171,171,1054.2915326670009,,,,,,,1055.7916987089993,1055.2753532919996,1055.2995112499993,1055.2995112499993,1055.7793891250003,1056.9254425420004,1056.9254425420004,x,5.686629791998712,None,1055.2995112499993,,,,,,,,yupath,001,2025-02-27_14h40.37.717,MainFlow,2024.1.5,None,2025-02-27 14h40.49.299931 +0700,
1,61,0,word/wordth0611.png,image/False/imgf61.png,0,172,172,172,1062.6250493339994,,,,,,,1064.1248281669996,1063.6086646669992,1063.6331969170005,1063.6331969170005,1064.112730584,1065.2491629590004,1065.2491629590004,x,1.6984947910004848,None,1063.6331969170005,,,,,,,,yupath,001,2025-02-27_14h40.37.717,MainFlow,2024.1.5,None,2025-02-27 14h40.49.299931 +0700,
1,82,1,word/wordth0821.png,image/True/img82.png,0,173,173,173,1066.9638206250002,,,,,,,1068.4624469169994,1067.9461658340006,1067.9698087920005,1067.9698087920005,1068.4582166250002,1069.5509369169995,1069.5509369169995,z,1.068255042000601,None,,,,,,,,,yupath,001,2025-02-27_14h40.37.717,MainFlow,2024.1.5,None,2025-02-27 14h40.49.299931 +0700,
1,14,1,word/wordth0141.png,image/True/img14.png,0,174,174,174,1070.6335319999998,,,,,,,1072.1290090839993,1071.6131169170003,1071.6361070000003,1071.6361070000003,1072.1248180000002,1073.2434494169993,1073.2434494169993,z,2.513324666999324,None,,,,,,,,,yupath,001,2025-02-27_14h40.37.717,MainFlow,2024.1.5,None,2025-02-27 14h40.49.299931 +0700,
1,38,0,word/wordth0381.png,image/False/imgf38.png,0,175,175,175,1075.766526416999,,,,,,,1077.2622596250003,1076.7462159170009,1076.771120542,1076.771120542,1077.2581019169993,1078.4016522919992,1078.4016522919992,x,4.793684624999514,None,,,,,,,,,yupath,001,2025-02-27_14h40.37.717,MainFlow,2024.1.5,None,2025-02-27 14h40.49.299931 +0700,
1,17,0,word/wordth0171.png,image/False/imgf17.png,0,176,176,176,1083.2079780420008,,,,,,,1084.7081080419994,1084.1919795840004,1084.2169852919997,1084.2169852919997,1084.6961285840007,1085.8306480840001,1085.8306480840001,z,2.645540333000099,None,1084.2169852919997,,,,,,,,yupath,001,2025-02-27_14h40.37.717,MainFlow,2024.1.5,None,2025-02-27 14h40.49.299931 +0700,
1,42,0,word/wordth0421.png,image/False/imgf42.png,0,177,177,177,1088.4914718750006,,,,,,,1089.9914572500002,1089.4751135839997,1089.4992211669996,1089.4992211669996,1089.979167166999,1091.1230229169996,1091.1230229169996,x,1.9050475000003644,None,1089.4992211669996,,,,,,,,yupath,001,2025-02-27_14h40.37.717,MainFlow,2024.1.5,None,2025-02-27 14h40.49.299931 +0700,
1,24,1,word/wordth0241.png,image/True/img24.png,0,178,178,178,1093.0414282919992,,,,,,,1094.541456125,1094.0250812089998,1094.0499144589994,1094.0499144589994,1094.5291613339996,1095.6300815840004,1095.6300815840004,z,3.9426227919993835,None,1094.0499144589994,,,,,,,,yupath,001,2025-02-27_14h40.37.717,MainFlow,2024.1.5,None,2025-02-27 14h40.49.299931 +0700,
1,51,1,word/wordth0511.png,image/True/img51.png,0,179,179,179,1099.5827122499995,,,,,,,1101.0746693340006,1100.562453041999,1100.5855002089993,1100.5855002089993,1101.062591333999,1102.1985656670004,1102.1985656670004,z,1.2127019580002525,None,,,,,,,,,yupath,001,2025-02-27_14h40.37.717,MainFlow,2024.1.5,None,2025-02-27 14h40.49.299931 +0700,
1,24,0,word/wordth0241.png,image/False/imgf24.png,0,180,180,180,1103.4247555000002,,,,,,,1104.9246198340006,1104.4083393750007,1104.4318676250005,1104.4318676250005,1104.9125364169995,1106.0305298340008,1106.0305298340008,z,9.149561874999563,None,1104.4318676250005,,,,,,,,yupath,001,2025-02-27_14h40.37.717,MainFlow,2024.1.5,None,2025-02-27 14h40.49.299931 +0700,
1,23,0,word/wordth0231.png,image/False/imgf23.png,0,181,181,181,1115.1969205839996,,,,,,,1116.6955651249991,1116.1793992500006,1116.2029107090002,1116.2029107090002,1116.6913473339991,1117.8341166669998,1117.8341166669998,x,1.7135511249998672,None,,,,,,,,,yupath,001,2025-02-27_14h40.37.717,MainFlow,2024.1.5,None,2025-02-27 14h40.49.299931 +0700,
1,6,1,word/wordth0061.png,image/True/img06.png,0,182,182,182,1119.5634694590008,,,,,,,1121.0578247089998,1120.545637916999,1120.5695073749994,1120.5695073749994,1121.0462941250007,1122.1583497089996,1122.1583497089996,z,3.0850062500012427,None,,,,,,,,,yupath,001,2025-02-27_14h40.37.717,MainFlow,2024.1.5,None,2025-02-27 14h40.49.299931 +0700,
1,93,1,word/wordth0931.png,image/True/img93.png,0,183,183,183,1125.2577632499997,,,,,,,1126.7578763340007,1126.241530666999,1126.2663901670003,1126.2663901670003,1126.7458509169992,1127.8599465839998,1127.8599465839998,z,2.7353524580012163,None,1126.2663901670003,,,,,,,,yupath,001,2025-02-27_14h40.37.717,MainFlow,2024.1.5,None,2025-02-27 14h40.49.299931 +0700,
1,38,0,word/wordth0381.png,image/False/imgf38.png,0,184,184,184,1130.6079247920006,,,,,,,1132.1079045000006,1131.5916140000008,1131.6161780420007,1131.6161780420007,1132.0956293340005,1133.247838666999,1133.247838666999,x,2.108440250000058,None,1131.6161780420007,,,,,,,,yupath,001,2025-02-27_14h40.37.717,MainFlow,2024.1.5,None,2025-02-27 14h40.49.299931 +0700,
1,57,1,word/wordth0571.png,image/True/img57.png,0,185,185,185,1135.3660511670005,,,,,,,1136.8619800420001,1136.3460131249994,1136.3694852089993,1136.3694852089993,1136.8577719589994,1137.9836557090002,1137.9836557090002,z,3.4123227079999197,None,,,,,,,,,yupath,001,2025-02-27_14h40.37.717,MainFlow,2024.1.5,None,2025-02-27 14h40.49.299931 +0700,
1,40,1,word/wordth0401.png,image/True/img40.png,0,186,186,186,1141.407905,,,,,,,1142.9077217089998,1142.391672959,1142.4156861669999,1142.4156861669999,1142.8956062920006,1144.044422208999,1144.044422208999,z,1.9511763750015234,None,1142.4156861669999,,,,,,,,yupath,001,2025-02-27_14h40.37.717,MainFlow,2024.1.5,None,2025-02-27 14h40.49.299931 +0700,
1,50,0,word/wordth0501.png,image/False/imgf50.png,0,187,187,187,1146.0068927089997,,,,,,,1147.5077702500002,1146.9913839170003,1147.0162541669997,1147.0162541669997,1147.4957086249997,1148.6168101250005,1148.6168101250005,x,3.522920832998352,None,1147.0162541669997,,,,,,,,yupath,001,2025-02-27_14h40.37.717,MainFlow,2024.1.5,None,2025-02-27 14h40.49.299931 +0700,
1,66,0,word/wordth0661.png,image/False/imgf66.png,0,188,188,188,1152.1487574170005,,,,,,,1153.6410428340005,1153.1287013340007,1153.1519525000003,1153.1519525000003,1153.629023166999,1154.7626608339997,1154.7626608339997,x,3.5766393339999922,None,,,,,,,,,yupath,001,2025-02-27_14h40.37.717,MainFlow,2024.1.5,None,2025-02-27 14h40.49.299931 +0700,
1,44,0,word/wordth0441.png,image/False/imgf44.png,0,189,189,189,1158.3479850839994,,,,,,,1159.8453570000001,1159.3294150000002,1159.35354,1159.35354,1159.8411331250009,1160.974955959,1160.974955959,x,3.4129360000006272,None,,,,,,,,,yupath,001,2025-02-27_14h40.37.717,MainFlow,2024.1.5,None,2025-02-27 14h40.49.299931 +0700,
1,75,0,word/wordth0751.png,image/False/imgf75.png,0,190,190,190,1164.3978290840005,,,,,,,1165.8952116250002,1165.3791215839992,1165.4028481250007,1165.4028481250007,1165.8909774589993,1167.0097527500002,1167.0097527500002,x,4.59362979099933,None,,,,,,,,,yupath,001,2025-02-27_14h40.37.717,MainFlow,2024.1.5,None,2025-02-27 14h40.49.299931 +0700,
1,31,0,word/wordth0311.png,image/False/imgf31.png,0,191,191,191,1171.6156310419992,,,,,,,1173.1114533340005,1172.5957556249996,1172.6205615420004,1172.6205615420004,1173.1075864590002,1174.1986334590001,1174.1986334590001,x,3.981058999999732,None,,,,,,,,,yupath,001,2025-02-27_14h40.37.717,MainFlow,2024.1.5,None,2025-02-27 14h40.49.299931 +0700,
1,87,1,word/wordth0871.png,image/True/img87.png,0,192,192,192,1178.1964076250006,,,,,,,1179.6952407919998,1179.1786784590004,1179.202119042,1179.202119042,1179.691032834,1180.8140955420004,1180.8140955420004,z,3.1170269590002135,None,,,,,,,,,yupath,001,2025-02-27_14h40.37.717,MainFlow,2024.1.5,None,2025-02-27 14h40.49.299931 +0700,
1,33,1,word/wordth0331.png,image/True/img33.png,0,193,193,193,1183.9486962499996,,,,,,,1185.4408832919999,1184.9246980000007,1184.9495612089995,1184.9495612089995,1185.4287152920006,1186.5585862089993,1186.5585862089993,z,0.9662020420000772,None,,,,,,,,,yupath,001,2025-02-27_14h40.37.717,MainFlow,2024.1.5,None,2025-02-27 14h40.49.299931 +0700,
1,70,0,word/wordth0701.png,image/False/imgf70.png,0,194,194,194,1187.5408800419991,,,,,,,1189.0407471670005,1188.5246084589999,1188.5493627920005,1188.5493627920005,1189.028667167,1190.1551761669998,1190.1551761669998,x,4.1693527919996995,None,1188.5493627920005,,,,,,,,yupath,001,2025-02-27_14h40.37.717,MainFlow,2024.1.5,None,2025-02-27 14h40.49.299931 +0700,
1,27,1,word/wordth0271.png,image/True/img27.png,0,195,195,195,1194.3407377919993,,,,,,,1195.840836416999,1195.3243848340007,1195.3471286250006,1195.3471286250006,1195.8287896670008,1196.9492997090001,1196.9492997090001,z,0.8537562080000498,None,1195.3471286250006,,,,,,,,yupath,001,2025-02-27_14h40.37.717,MainFlow,2024.1.5,None,2025-02-27 14h40.49.299931 +0700,
1,88,1,word/wordth0881.png,image/True/img88.png,0,196,196,196,1197.8146149170007,,,,,,,1199.3116452920003,1198.79568225,1198.8208207499993,1198.8208207499993,1199.3074385420005,1200.435841041999,1200.435841041999,z,1.0945255839997117,None,,,,,,,,,yupath,001,2025-02-27_14h40.37.717,MainFlow,2024.1.5,None,2025-02-27 14h40.49.299931 +0700,
1,87,0,word/wordth0871.png,image/False/imgf87.png,0,197,197,197,1201.5462779589998,,,,,,,1203.0449447499996,1202.5288480420004,1202.5531472090006,1202.5531472090006,1203.0407514170001,1204.150999166999,1204.150999166999,x,1.475852166999175,None,,,,,,,,,yupath,001,2025-02-27_14h40.37.717,MainFlow,2024.1.5,None,2025-02-27 14h40.49.299931 +0700,
1,11,1,word/wordth0111.png,image/True/img11.png,0,198,198,198,1205.6405952919995,,,,,,,1207.1407842089993,1206.6243129169998,1206.6484822919992,1206.6484822919992,1207.1286772500007,1208.2787063340002,1208.2787063340002,z,3.621315708000111,None,1206.6484822919992,,,,,,,,yupath,001,2025-02-27_14h40.37.717,MainFlow,2024.1.5,None,2025-02-27 14h40.49.299931 +0700,
1,61,0,word/wordth0611.png,image/False/imgf61.png,0,199,199,199,1211.9151318749991,,,,,,,1213.4119378750001,1212.8954609169996,1212.9199227499994,1212.9199227499994,1213.4074721670004,1214.5354215839998,1214.5354215839998,x,6.051858750000974,None,,,,,,,,,yupath,001,2025-02-27_14h40.37.717,MainFlow,2024.1.5,None,2025-02-27 14h40.49.299931 +0700,
1,15,1,word/wordth0151.png,image/True/img15.png,0,200,200,200,1220.5984402089998,,,,,,,1222.0949379590002,1221.5787557090007,1221.603753542,1221.603753542,1222.0907729169994,1223.2207964169993,1223.2207964169993,z,1.6538412919999246,None,,,,,,,,,yupath,001,2025-02-27_14h40.37.717,MainFlow,2024.1.5,None,2025-02-27 14h40.49.299931 +0700,
1,16,0,word/wordth0161.png,image/False/imgf16.png,0,201,201,201,1224.8904409999996,,,,,,,1226.3905691670006,1225.8743873340009,1225.8978187499997,1225.8978187499997,1226.3785215000007,1227.5169963749995,1227.5169963749995,x,6.046842291998473,None,1225.8978187499997,,,,,,,,yupath,001,2025-02-27_14h40.37.717,MainFlow,2024.1.5,None,2025-02-27 14h40.49.299931 +0700,
1,63,0,word/wordth0631.png,image/False/imgf63.png,0,202,202,202,1233.5806352500003,,,,,,,1235.0782042089995,1234.5622148340008,1234.5878167499995,1234.5878167499995,1235.0739692499992,1236.2045647920004,1236.2045647920004,z,3.26244987499922,None,,,,,,,,,yupath,001,2025-02-27_14h40.37.717,MainFlow,2024.1.5,None,2025-02-27 14h40.49.299931 +0700,
1,28,1,word/wordth0281.png,image/True/img28.png,0,203,203,203,1239.4820485420005,,,,,,,1240.9739734590003,1240.4615479999993,1240.4855296250007,1240.4855296250007,1240.9616331670004,1242.1099486250005,1242.1099486250005,z,1.062068041999737,None,,,,,,,,,yupath,001,2025-02-27_14h40.37.717,MainFlow,2024.1.5,None,2025-02-27 14h40.49.299931 +0700,
1,89,1,word/wordth0891.png,image/True/img89.png,0,204,204,204,1243.1821007920007,,,,,,,1244.6780242919995,1244.1620431249994,1244.1861192920005,1244.1861192920005,1244.673831,1245.775835291999,1245.775835291999,z,5.23583299999882,None,,,,,,,,,yupath,001,2025-02-27_14h40.37.717,MainFlow,2024.1.5,None,2025-02-27 14h40.49.299931 +0700,
1,76,0,word/wordth0761.png,image/False/imgf76.png,0,205,205,205,1251.023918625,,,,,,,1252.5237930000003,1252.007643208999,1252.0324655839995,1252.0324655839995,1252.5116704169996,1253.6558574169994,1253.6558574169994,x,6.771352207999371,None,1252.0324655839995,,,,,,,,yupath,001,2025-02-27_14h40.37.717,MainFlow,2024.1.5,None,2025-02-27 14h40.49.299931 +0700,
1,51,0,word/wordth0511.png,image/False/imgf51.png,0,206,206,206,1260.4402648340001,,,,,,,1261.9405041669997,1261.424166625,1261.4477320839997,1261.4477320839997,1261.928420667,1263.0453104999997,1263.0453104999997,x,4.046429500000158,None,1261.4477320839997,,,,,,,,yupath,001,2025-02-27_14h40.37.717,MainFlow,2024.1.5,None,2025-02-27 14h40.49.299931 +0700,
1,26,0,word/wordth0261.png,image/False/imgf26.png,0,207,207,207,1267.1069750839997,,,,,,,1268.6071554999999,1268.0906882090003,1268.1149895420003,1268.1149895420003,1268.59528675,1269.7426298749997,1269.7426298749997,x,1.8603144170010637,None,1268.1149895420003,,,,,,,,yupath,001,2025-02-27_14h40.37.717,MainFlow,2024.1.5,None,2025-02-27 14h40.49.299931 +0700,
1,16,1,word/wordth0161.png,image/True/img16.png,0,208,208,208,1271.615261584,,,,,,,1273.1113343750003,1272.5950739590007,1272.6193784999996,1272.6193784999996,1273.1071537089992,1274.2434077090002,1274.2434077090002,z,5.544583375000002,None,,,,,,,,,yupath,001,2025-02-27_14h40.37.717,MainFlow,2024.1.5,None,2025-02-27 14h40.49.299931 +0700,
1,64,1,word/wordth0641.png,image/True/img64.png,0,209,209,209,1279.7989822090003,,,,,,,1281.2946618749993,1280.778528334,1280.8028709589998,1280.8028709589998,1281.290450041999,1282.3906988340004,1282.3906988340004,z,1.3648360000006505,None,,,,,,,,,yupath,001,2025-02-27_14h40.37.717,MainFlow,2024.1.5,None,2025-02-27 14h40.49.299931 +0700,
1,7,1,word/wordth0071.png,image/True/img07.png,0,210,210,210,1283.765616834,,,,,,,1285.2606751669991,1284.7450015840004,1284.768149042,1284.768149042,1285.2563211670004,1286.3894402919996,1286.3894402919996,x,5.142057667000699,None,,,,,,,,,yupath,001,2025-02-27_14h40.37.717,MainFlow,2024.1.5,None,2025-02-27 14h40.49.299931 +0700,
1,10,0,word/wordth0101.png,image/False/imgf10.png,0,211,211,211,1291.5488053339996,,,,,,,1293.0445022090007,1292.5282850000003,1292.5523520839997,1292.5523520839997,1293.0402811250005,1294.1580482089994,1294.1580482089994,x,2.813872624999931,None,,,,,,,,,yupath,001,2025-02-27_14h40.37.717,MainFlow,2024.1.5,None,2025-02-27 14h40.49.299931 +0700,
1,22,1,word/wordth0221.png,image/True/img22.png,0,212,212,212,1296.9819553340003,,,,,,,1298.4735559590008,1297.9612708749992,1297.985157084,1297.985157084,1298.4615024590003,1299.6204752920003,1299.6204752920003,x,6.5114358339997125,None,,,,,,,,,yupath,001,2025-02-27_14h40.37.717,MainFlow,2024.1.5,None,2025-02-27 14h40.49.299931 +0700,
1,40,1,word/wordth0401.png,image/True/img40.png,0,213,213,213,1306.148628249999,,,,,,,1307.6444968750002,1307.128345792,1307.1519816250002,1307.1519816250002,1307.6402338749995,1308.781940125,1308.781940125,z,2.5740294999995967,None,,,,,,,,,yupath,001,2025-02-27_14h40.37.717,MainFlow,2024.1.5,None,2025-02-27 14h40.49.299931 +0700,
1,57,0,word/wordth0571.png,image/False/imgf57.png,0,214,214,214,1311.3650830419992,,,,,,,1312.861165417,1312.3449302919998,1312.3682478339997,1312.3682478339997,1312.8569402089997,1313.9842935420002,1313.9842935420002,x,3.9394733749995794,None,,,,,,,,,yupath,001,2025-02-27_14h40.37.717,MainFlow,2024.1.5,None,2025-02-27 14h40.49.299931 +0700,
1,50,1,word/wordth0501.png,image/True/img50.png,0,215,215,215,1317.9400252920004,,,,,,,1319.4400471669996,1318.9239630840002,1318.9492525419992,1318.9492525419992,1319.4280047499997,1320.5540459170006,1320.5540459170006,z,3.6334083749989077,None,1318.9492525419992,,,,,,,,yupath,001,2025-02-27_14h40.37.717,MainFlow,2024.1.5,None,2025-02-27 14h40.49.299931 +0700,
1,64,0,word/wordth0641.png,image/False/imgf64.png,0,216,216,216,1324.1982323749999,,,,,,,1325.6944155,1325.1778437089997,1325.2013403750007,1325.2013403750007,1325.690189375,1326.781087416999,1326.781087416999,x,4.126856541999587,None,,,,,,,,,yupath,001,2025-02-27_14h40.37.717,MainFlow,2024.1.5,None,2025-02-27 14h40.49.299931 +0700,
1,42,1,word/wordth0421.png,image/True/img42.png,0,217,217,217,1330.9234258340002,,,,,,,1332.4232817920001,1331.9071999589996,1331.9317441669991,1331.9317441669991,1332.4118619590008,1333.5421695000005,1333.5421695000005,z,5.598602500000197,None,1331.9317441669991,,,,,,,,yupath,001,2025-02-27_14h40.37.717,MainFlow,2024.1.5,None,2025-02-27 14h40.49.299931 +0700,
1,56,0,word/wordth0561.png,image/False/imgf56.png,0,218,218,218,1339.1566200420002,,,,,,,1340.6566550839998,1340.1404401250002,1340.1649206250004,1340.1649206250004,1340.644396959,1341.7947295840004,1341.7947295840004,x,5.5766953749989625,None,1340.1649206250004,,,,,,,,yupath,001,2025-02-27_14h40.37.717,MainFlow,2024.1.5,None,2025-02-27 14h40.49.299931 +0700,
1,22,1,word/wordth0221.png,image/True/img22.png,0,219,219,219,1347.3818662089998,,,,,,,1348.8775415839991,1348.3614099170009,1348.3860900420004,1348.3860900420004,1348.8733380840004,1350.0195413750007,1350.0195413750007,x,3.9362090840004385,None,,,,,,,,,yupath,001,2025-02-27_14h40.37.717,MainFlow,2024.1.5,None,2025-02-27 14h40.49.299931 +0700,
1,82,0,word/wordth0821.png,image/False/imgf82.png,0,220,220,220,1353.9638926669995,,,,,,,1355.4607315419998,1354.9443392089997,1354.9690062499994,1354.9690062499994,1355.456529125,1356.5716901670003,1356.5716901670003,x,6.255858458000148,None,,,,,,,,,yupath,001,2025-02-27_14h40.37.717,MainFlow,2024.1.5,None,2025-02-27 14h40.49.299931 +0700,
1,54,1,word/wordth0541.png,image/True/img54.png,0,221,221,221,1362.8399109170005,,,,,,,1364.3397404589996,1363.8236328750008,1363.8484039590003,1363.8484039590003,1364.3276682920005,1365.4726814999995,1365.4726814999995,z,3.018535334000262,None,1363.8484039590003,,,,,,,,yupath,001,2025-02-27_14h40.37.717,MainFlow,2024.1.5,None,2025-02-27 14h40.49.299931 +0700,
1,55,0,word/wordth0551.png,image/False/imgf55.png,0,222,222,222,1368.5065372089994,,,,,,,1370.0065445420005,1369.4901242920005,1369.5139132090007,1369.5139132090007,1369.994355875,1371.1225894170002,1371.1225894170002,x,5.617674249999254,None,1369.5139132090007,,,,,,,,yupath,001,2025-02-27_14h40.37.717,MainFlow,2024.1.5,None,2025-02-27 14h40.49.299931 +0700,
1,48,1,word/wordth0481.png,image/True/img48.png,0,223,223,223,1376.756323959,,,,,,,1378.2563896249994,1377.7402303750005,1377.7641724589994,1377.7641724589994,1378.244274625,1379.37980375,1379.37980375,x,9.328018500000326,None,1377.7641724589994,,,,,,,,yupath,001,2025-02-27_14h40.37.717,MainFlow,2024.1.5,None,2025-02-27 14h40.49.299931 +0700,
1,44,1,word/wordth0441.png,image/True/img44.png,0,224,224,224,1388.722024834,,,,,,,1390.2230468340003,1389.7065794999999,1389.7301791669997,1389.7301791669997,1390.2115255000008,1391.328546749999,1391.328546749999,z,3.2435729170010745,None,1389.7301791669997,,,,,,,,yupath,001,2025-02-27_14h40.37.717,MainFlow,2024.1.5,None,2025-02-27 14h40.49.299931 +0700,
1,87,0,word/wordth0871.png,image/False/imgf87.png,0,225,225,225,1394.5814520420008,,,,,,,1396.0774256250006,1395.5611496250003,1395.5849411670006,1395.5849411670006,1396.0730731250005,1397.1825962919993,1397.1825962919993,x,6.964001124999413,None,,,,,,,,,yupath,001,2025-02-27_14h40.37.717,MainFlow,2024.1.5,None,2025-02-27 14h40.49.299931 +0700,
1,70,1,word/wordth0701.png,image/True/img70.png,0,226,226,226,1404.164290875,,,,,,,1405.6604090839992,1405.1443534169994,1405.168578334,1405.168578334,1405.656307792,1406.7809789999992,1406.7809789999992,z,2.9817180419995566,None,,,,,,,,,yupath,001,2025-02-27_14h40.37.717,MainFlow,2024.1.5,None,2025-02-27 14h40.49.299931 +0700,
1,33,0,word/wordth0331.png,image/False/imgf33.png,0,227,227,227,1409.7783262920002,,,,,,,1411.2728379170003,1410.7606942090006,1410.7842366250006,1410.7842366250006,1411.2612447499996,1412.3957921670008,1412.3957921670008,x,2.3110610410003574,None,,,,,,,,,yupath,001,2025-02-27_14h40.37.717,MainFlow,2024.1.5,None,2025-02-27 14h40.49.299931 +0700,
1,52,1,word/wordth0521.png,image/True/img52.png,0,228,228,228,1414.7225601249993,,,,,,,1416.2228728749997,1415.7065417499998,1415.7314045420007,1415.7314045420007,1416.2114905840008,1417.3461204590003,1417.3461204590003,z,1.4572137909999583,None,1415.7314045420007,,,,,,,,yupath,001,2025-02-27_14h40.37.717,MainFlow,2024.1.5,None,2025-02-27 14h40.49.299931 +0700,
1,59,1,word/wordth0591.png,image/True/img59.png,0,229,229,229,1418.8145352089996,,,,,,,1420.3104216249994,1419.7944368749995,1419.8194033340005,1419.8194033340005,1420.3062637500007,1421.4036080839996,1421.4036080839996,z,3.8624409589992865,None,,,,,,,,,yupath,001,2025-02-27_14h40.37.717,MainFlow,2024.1.5,None,2025-02-27 14h40.49.299931 +0700,
1,56,0,word/wordth0561.png,image/False/imgf56.png,0,230,230,230,1425.280475959,,,,,,,1426.7728600419996,1426.260650667,1426.2846095839996,1426.2846095839996,1426.7607568750009,1427.9159755420005,1427.9159755420005,x,1.55140504100018,None,,,,,,,,,yupath,001,2025-02-27_14h40.37.717,MainFlow,2024.1.5,None,2025-02-27 14h40.49.299931 +0700,
1,79,1,word/wordth0791.png,image/True/img79.png,0,231,231,231,1429.4809263749994,,,,,,,1430.9727749590002,1430.4606349999995,1430.4851723339998,1430.4851723339998,1430.9607517500008,1432.093078209,1432.093078209,z,3.3097866250009247,None,,,,,,,,,yupath,001,2025-02-27_14h40.37.717,MainFlow,2024.1.5,None,2025-02-27 14h40.49.299931 +0700,
1,96,1,word/wordth0961.png,image/True/img96.png,0,232,232,232,1435.4143045420005,,,,,,,1436.9060915419996,1436.3939663340007,1436.417303667,1436.417303667,1436.8940614589992,1438.0279652919999,1438.0279652919999,z,3.7030045830015297,None,,,,,,,,,yupath,001,2025-02-27_14h40.37.717,MainFlow,2024.1.5,None,2025-02-27 14h40.49.299931 +0700,
1,88,0,word/wordth0881.png,image/False/imgf88.png,0,233,233,233,1441.7480339169997,,,,,,,1443.2435157920008,1442.7277290420006,1442.7531547500002,1442.7531547500002,1443.2394410840006,1444.3544245419998,1444.3544245419998,z,11.34507083400058,None,,,,,,,,,yupath,001,2025-02-27_14h40.37.717,MainFlow,2024.1.5,None,2025-02-27 14h40.49.299931 +0700,
1,96,0,word/wordth0961.png,image/False/imgf96.png,0,234,234,234,1455.7144472920008,,,,,,,1457.2101687089998,1456.6944831670007,1456.7192656250008,1456.7192656250008,1457.2059322919995,1458.3308792499993,1458.3308792499993,x,2.0314238339997246,None,,,,,,,,,yupath,001,2025-02-27_14h40.37.717,MainFlow,2024.1.5,None,2025-02-27 14h40.49.299931 +0700,
1,88,1,word/wordth0881.png,image/True/img88.png,0,235,235,235,1460.3777476249998,,,,,,,1461.8724498339998,1461.3563381250005,1461.3808613340007,1461.3808613340007,1461.8609164169993,1462.9991474590006,1462.9991474590006,z,2.348194833000889,None,,,,,,,,,yupath,001,2025-02-27_14h40.37.717,MainFlow,2024.1.5,None,2025-02-27 14h40.49.299931 +0700,
1,70,0,word/wordth0701.png,image/False/imgf70.png,0,236,236,236,1465.3641934999996,,,,,,,1466.8557607919993,1466.3438419590002,1466.3681411670004,1466.3681411670004,1466.843988834,1467.9733566670002,1467.9733566670002,x,4.182952958000897,None,,,,,,,,,yupath,001,2025-02-27_14h40.37.717,MainFlow,2024.1.5,None,2025-02-27 14h40.49.299931 +0700,
1,71,1,word/wordth0711.png,image/True/img71.png,0,237,237,237,1472.1722492089993,,,,,,,1473.6724631670004,1473.1563539590006,1473.1817717499998,1473.1817717499998,1473.660383417,1474.7988263339994,1474.7988263339994,z,1.5965859160005493,None,1473.1817717499998,,,,,,,,yupath,001,2025-02-27_14h40.37.717,MainFlow,2024.1.5,None,2025-02-27 14h40.49.299931 +0700,
1,94,0,word/wordth0941.png,image/False/imgf94.png,0,238,238,238,1476.4117637090003,,,,,,,1477.9101713340006,1477.3942036249991,1477.4197688339991,1477.4197688339991,1477.905943459,1479.041148667,1479.041148667,x,1.921238542001447,None,,,,,,,,,yupath,001,2025-02-27_14h40.37.717,MainFlow,2024.1.5,None,2025-02-27 14h40.49.299931 +0700,
1,17,1,word/wordth0171.png,image/True/img17.png,0,239,239,239,1480.9781808339994,,,,,,,1482.4724591249997,1481.9601105420006,1481.9843008749995,1481.9843008749995,1482.460436416999,1483.5876245420004,1483.5876245420004,x,6.703944916000182,None,,,,,,,,,yupath,001,2025-02-27_14h40.37.717,MainFlow,2024.1.5,None,2025-02-27 14h40.49.299931 +0700,
,,,,,,,,,,,,,,,,,,,,,,,,,,,1490.2950112090002,1490.3058249589994,1490.3058249589994,1504.6607601249998,space,14.352714540998932,None,yupath,001,2025-02-27_14h40.37.717,MainFlow,2024.1.5,None,2025-02-27 14h40.49.299931 +0700,
