lang,wordid,truestate,worddir,imgdir,trials.thisRepN,trials.thisTrialN,trials.thisN,trials.thisIndex,thisRow.t,notes,tutorial.started,tutorial.stopped,key_instruct.keys,key_instruct.rt,key_instruct.duration,plusblank.started,wordshow.started,image.started,plsuer.started,wordshow.stopped,imageword.started,key_resp.started,key_resp.keys,key_resp.rt,key_resp.duration,plusblank.stopped,image.stopped,plsuer.stopped,ending.started,text_3.started,ending_key.started,ending.stopped,ending_key.keys,ending_key.rt,ending_key.duration,participant,session,date,expName,psychopyVersion,frameRate,expStart,
,,,,,,,,,,,0.0040445829999953276,6.512316499999997,space,6.46447387499984,None,,,,,,,,,,,,,,,,,,,,,yupa_th,240768,2025-07-24_14h14.36.955,MainFlow,2024.1.5,None,2025-07-24 14h14.57.238440 +0700,
1,51,0,word/wordth0511.png,image/False/imgf51.png,0,0,0,0,6.570270124999752,,,,,,,8.019692040999871,7.503458916,7.541663291000077,7.541663291000077,8.00753399999985,9.140013082999758,9.140013082999758,x,3.7580594579999342,None,,,,,,,,,,,yupa_th,240768,2025-07-24_14h14.36.955,MainFlow,2024.1.5,None,2025-07-24 14h14.57.238440 +0700,
1,66,1,word/wordth0661.png,image/True/img66.png,0,1,1,1,12.912114540999937,,,,,,,14.40297499999997,13.890211707999697,13.905367458,13.905367458,14.390837333000036,15.523159124999893,15.523159124999893,z,1.1579825419998997,None,,,,,,,,,,,yupa_th,240768,2025-07-24_14h14.36.955,MainFlow,2024.1.5,None,2025-07-24 14h14.57.238440 +0700,
1,60,1,word/wordth0601.png,image/True/img60.png,0,2,2,2,16.694942249999713,,,,,,,18.190475416000027,17.67445270799999,17.70043624999971,17.70043624999971,18.186269082999843,19.29676504100007,19.29676504100007,z,1.1925775409999915,None,,,,,,,,,,,yupa_th,240768,2025-07-24_14h14.36.955,MainFlow,2024.1.5,None,2025-07-24 14h14.57.238440 +0700,
1,46,0,word/wordth0461.png,image/False/imgf46.png,0,3,3,3,20.504243082999892,,,,,,,22.00292641599981,21.486736583000038,21.5117782909997,21.5117782909997,21.99082766599986,23.137671458000113,23.137671458000113,x,1.2006897920000483,None,,,,,,,,,,,yupa_th,240768,2025-07-24_14h14.36.955,MainFlow,2024.1.5,None,2025-07-24 14h14.57.238440 +0700,
1,24,1,word/wordth0241.png,image/True/img24.png,0,4,4,4,24.352771332999964,,,,,,,25.841333999999733,25.3243541249999,25.34859533300005,25.34859533300005,25.83641899999975,26.928505708000102,26.928505708000102,z,4.305001166000238,None,,,,,,,,,,,yupa_th,240768,2025-07-24_14h14.36.955,MainFlow,2024.1.5,None,2025-07-24 14h14.57.238440 +0700,
1,68,1,word/wordth0681.png,image/True/img68.png,0,5,5,5,31.24504579099994,,,,,,,32.740333958000065,32.22427016599977,32.249241915999846,32.249241915999846,32.73628866599984,33.82996474999982,33.82996474999982,z,0.7790337080000427,None,,,,,,,,,,,yupa_th,240768,2025-07-24_14h14.36.955,MainFlow,2024.1.5,None,2025-07-24 14h14.57.238440 +0700,
1,22,0,word/wordth0221.png,image/False/imgf22.png,0,6,6,6,34.62544049999997,,,,,,,36.119491790999746,35.60722808299988,35.63142641600007,35.63142641600007,36.107474207999985,37.24920616600002,37.24920616600002,x,0.9433258330000172,None,,,,,,,,,,,yupa_th,240768,2025-07-24_14h14.36.955,MainFlow,2024.1.5,None,2025-07-24 14h14.57.238440 +0700,
1,36,1,word/wordth0361.png,image/True/img36.png,0,7,7,7,38.20877437499985,,,,,,,39.70282504099987,39.19053304099998,39.214216791000126,39.214216791000126,39.69077837499981,40.81395658299971,40.81395658299971,z,2.0203656250000677,None,,,,,,,,,,,yupa_th,240768,2025-07-24_14h14.36.955,MainFlow,2024.1.5,None,2025-07-24 14h14.57.238440 +0700,
1,68,0,word/wordth0681.png,image/False/imgf68.png,0,8,8,8,42.84401204100004,,,,,,,44.33619758299983,43.82381345800013,43.84776208299991,43.84776208299991,44.324052375000065,45.43632204100004,45.43632204100004,x,1.0375617079998847,None,,,,,,,,,,,yupa_th,240768,2025-07-24_14h14.36.955,MainFlow,2024.1.5,None,2025-07-24 14h14.57.238440 +0700,
1,16,1,word/wordth0161.png,image/True/img16.png,0,9,9,9,46.486041790999934,,,,,,,47.98615549999977,47.46996445800005,47.4956668750001,47.4956668750001,47.974465708000025,49.12119383299978,49.12119383299978,x,5.951886166999884,None,47.4956668750001,,,,,,,,,,yupa_th,240768,2025-07-24_14h14.36.955,MainFlow,2024.1.5,None,2025-07-24 14h14.57.238440 +0700,
1,94,1,word/wordth0941.png,image/True/img94.png,0,10,10,10,55.085938040999736,,,,,,,56.586083249999774,56.06985462500006,56.094811749999735,56.094811749999735,56.57405599999993,57.69482337499994,57.69482337499994,z,0.7703116249999766,None,56.094811749999735,,,,,,,,,,yupa_th,240768,2025-07-24_14h14.36.955,MainFlow,2024.1.5,None,2025-07-24 14h14.57.238440 +0700,
1,95,0,word/wordth0951.png,image/False/imgf95.png,0,11,11,11,58.47801625000011,,,,,,,59.97370150000006,59.45758937499977,59.48220591600011,59.48220591600011,59.969462499999736,61.09940745799986,61.09940745799986,x,3.109330708000016,None,,,,,,,,,,,yupa_th,240768,2025-07-24_14h14.36.955,MainFlow,2024.1.5,None,2025-07-24 14h14.57.238440 +0700,
1,30,0,word/wordth0301.png,image/False/imgf30.png,0,12,12,12,64.22511870800008,,,,,,,65.72410737500013,65.20762491599999,65.23321166599999,65.23321166599999,65.71939837499986,66.83454766599971,66.83454766599971,x,1.4313860840002235,None,,,,,,,,,,,yupa_th,240768,2025-07-24_14h14.36.955,MainFlow,2024.1.5,None,2025-07-24 14h14.57.238440 +0700,
1,20,1,word/wordth0201.png,image/True/img20.png,0,13,13,13,68.27720820800005,,,,,,,69.76935920799997,69.25319870800013,69.27883112500012,69.27883112500012,69.7572286249997,70.89345524999999,70.89345524999999,x,2.467528083000161,None,,,,,,,,,,,yupa_th,240768,2025-07-24_14h14.36.955,MainFlow,2024.1.5,None,2025-07-24 14h14.57.238440 +0700,
1,42,0,word/wordth0421.png,image/False/imgf42.png,0,14,14,14,73.37743724999973,,,,,,,74.86926412499997,74.35688462500002,74.38210941599982,74.38210941599982,74.85777074999987,76.00434433300006,76.00434433300006,x,0.9974330410000221,None,,,,,,,,,,,yupa_th,240768,2025-07-24_14h14.36.955,MainFlow,2024.1.5,None,2025-07-24 14h14.57.238440 +0700,
1,31,1,word/wordth0311.png,image/True/img31.png,0,15,15,15,77.01102700000001,,,,,,,78.5026868330001,77.99075370799983,78.01585399999976,78.01585399999976,78.49109733299974,79.61686224999994,79.61686224999994,z,2.1121039999998175,None,,,,,,,,,,,yupa_th,240768,2025-07-24_14h14.36.955,MainFlow,2024.1.5,None,2025-07-24 14h14.57.238440 +0700,
1,55,1,word/wordth0551.png,image/True/img55.png,0,16,16,16,81.74427141599972,,,,,,,83.23587154100005,82.72418599999992,82.74816870799987,82.74816870799987,83.22423933299979,84.36449941599994,84.36449941599994,z,1.2534755830001814,None,,,,,,,,,,,yupa_th,240768,2025-07-24_14h14.36.955,MainFlow,2024.1.5,None,2025-07-24 14h14.57.238440 +0700,
1,36,1,word/wordth0361.png,image/True/img36.png,0,17,17,17,85.62751183299997,,,,,,,87.1233749160001,86.60739770800001,86.6311959159998,86.6311959159998,87.11932637500013,88.22863845799975,88.22863845799975,z,0.7256897910001499,None,,,,,,,,,,,yupa_th,240768,2025-07-24_14h14.36.955,MainFlow,2024.1.5,None,2025-07-24 14h14.57.238440 +0700,
1,9,1,word/wordth0091.png,image/True/img09.png,0,18,18,18,88.96916466599987,,,,,,,90.4691937499997,89.95301683299977,89.97801887500009,89.97801887500009,90.45758291599986,91.55318325000007,91.55318325000007,z,3.160187040999972,None,89.97801887500009,,,,,,,,,,yupa_th,240768,2025-07-24_14h14.36.955,MainFlow,2024.1.5,None,2025-07-24 14h14.57.238440 +0700,
1,64,1,word/wordth0641.png,image/True/img64.png,0,19,19,19,94.72741766599984,,,,,,,96.22362695799984,95.70725645799985,95.73148516599986,95.73148516599986,96.21938762499985,97.32083112500004,97.32083112500004,z,0.8970203330000004,None,,,,,,,,,,,yupa_th,240768,2025-07-24_14h14.36.955,MainFlow,2024.1.5,None,2025-07-24 14h14.57.238440 +0700,
1,95,1,word/wordth0951.png,image/True/img95.png,0,20,20,20,98.22767395799974,,,,,,,99.71928600000001,99.20717558299975,99.23131154099974,99.23131154099974,99.70746454099981,100.85501504100012,100.85501504100012,x,1.522073624999848,None,,,,,,,,,,,yupa_th,240768,2025-07-24_14h14.36.955,MainFlow,2024.1.5,None,2025-07-24 14h14.57.238440 +0700,
1,41,1,word/wordth0411.png,image/True/img41.png,0,21,21,21,102.3944133330001,,,,,,,103.88577454100005,103.37365874999978,103.397655708,103.397655708,103.87370958299971,105.01422945800005,105.01422945800005,x,15.70776854099995,None,,,,,,,,,,,yupa_th,240768,2025-07-24_14h14.36.955,MainFlow,2024.1.5,None,2025-07-24 14h14.57.238440 +0700,
1,8,1,word/wordth0081.png,image/True/img08.png,0,22,22,22,120.73477720799974,,,,,,,122.23569095799985,121.71949262499993,121.74507945799996,121.74507945799996,122.2236829579997,123.33230920799997,123.33230920799997,z,1.0607136250000622,None,121.74507945799996,,,,,,,,,,yupa_th,240768,2025-07-24_14h14.36.955,MainFlow,2024.1.5,None,2025-07-24 14h14.57.238440 +0700,
1,60,1,word/wordth0601.png,image/True/img60.png,0,23,23,23,124.41066633299988,,,,,,,125.9066089160001,125.39074333300005,125.4145992079998,125.4145992079998,125.90235666599983,127.02555274999986,127.02555274999986,z,6.639939540999876,None,,,,,,,,,,,yupa_th,240768,2025-07-24_14h14.36.955,MainFlow,2024.1.5,None,2025-07-24 14h14.57.238440 +0700,
1,48,0,word/wordth0481.png,image/False/imgf48.png,0,24,24,24,133.67692924999983,,,,,,,135.16896612499977,134.65657841599977,134.68045908299973,134.68045908299973,135.15739166599997,136.303587333,136.303587333,x,1.369920916999945,None,,,,,,,,,,,yupa_th,240768,2025-07-24_14h14.36.955,MainFlow,2024.1.5,None,2025-07-24 14h14.57.238440 +0700,
1,41,0,word/wordth0411.png,image/False/imgf41.png,0,25,25,25,137.68556758299974,,,,,,,139.1855881659999,138.66927137499988,138.69408733299997,138.69408733299997,139.17419129099972,140.276563333,140.276563333,x,1.188797207999869,None,138.69408733299997,,,,,,,,,,yupa_th,240768,2025-07-24_14h14.36.955,MainFlow,2024.1.5,None,2025-07-24 14h14.57.238440 +0700,
1,54,0,word/wordth0541.png,image/False/imgf54.png,0,26,26,26,141.47775420800008,,,,,,,142.9689678750001,142.456968125,142.48120437499983,142.48120437499983,142.95737416600014,144.0866873330001,144.0866873330001,x,2.386589124999773,None,,,,,,,,,,,yupa_th,240768,2025-07-24_14h14.36.955,MainFlow,2024.1.5,None,2025-07-24 14h14.57.238440 +0700,
1,54,1,word/wordth0541.png,image/True/img54.png,0,27,27,27,146.48556429099972,,,,,,,147.98561174999986,147.46918049999977,147.49342024999987,147.49342024999987,147.9738547080001,149.11810020799976,149.11810020799976,z,0.8023779159998412,None,147.49342024999987,,,,,,,,,,yupa_th,240768,2025-07-24_14h14.36.955,MainFlow,2024.1.5,None,2025-07-24 14h14.57.238440 +0700,
1,63,0,word/wordth0631.png,image/False/imgf63.png,0,28,28,28,149.93551770800013,,,,,,,151.43556274999992,150.91924283299977,150.9445397909999,150.9445397909999,151.42326966600012,152.561977458,152.561977458,z,5.24651833300004,None,150.9445397909999,,,,,,,,,,yupa_th,240768,2025-07-24_14h14.36.955,MainFlow,2024.1.5,None,2025-07-24 14h14.57.238440 +0700,
1,37,0,word/wordth0371.png,image/False/imgf37.png,0,29,29,29,157.82445029099972,,,,,,,159.32362958299973,158.8071265829999,158.8312727079997,158.8312727079997,159.3188877079997,160.46550441599993,160.46550441599993,z,1.4244567499999903,None,,,,,,,,,,,yupa_th,240768,2025-07-24_14h14.36.955,MainFlow,2024.1.5,None,2025-07-24 14h14.57.238440 +0700,
1,54,0,word/wordth0541.png,image/False/imgf54.png,0,30,30,30,161.9020928330001,,,,,,,163.4020916659997,162.8858947079998,162.91069287499977,162.91069287499977,163.38997387500012,164.51573904099996,164.51573904099996,x,1.045151541999985,None,162.91069287499977,,,,,,,,,,yupa_th,240768,2025-07-24_14h14.36.955,MainFlow,2024.1.5,None,2025-07-24 14h14.57.238440 +0700,
1,48,1,word/wordth0481.png,image/True/img48.png,0,31,31,31,165.5773200409999,,,,,,,167.0732429159998,166.55692520799994,166.58051070800002,166.58051070800002,167.069025625,168.194784583,168.194784583,z,0.5979174159997456,None,,,,,,,,,,,yupa_th,240768,2025-07-24_14h14.36.955,MainFlow,2024.1.5,None,2025-07-24 14h14.57.238440 +0700,
1,26,0,word/wordth0261.png,image/False/imgf26.png,0,32,32,32,168.81012737499987,,,,,,,170.3068213749998,169.790499833,169.81452012499994,169.81452012499994,170.30219562499997,171.4416407499998,171.4416407499998,x,1.7273066669999935,None,,,,,,,,,,,yupa_th,240768,2025-07-24_14h14.36.955,MainFlow,2024.1.5,None,2025-07-24 14h14.57.238440 +0700,
1,59,0,word/wordth0591.png,image/False/imgf59.png,0,33,33,33,173.17764058300008,,,,,,,174.67355533299997,174.1569750409999,174.1821867079998,174.1821867079998,174.6689285829998,175.7669824159998,175.7669824159998,x,1.4260320829998818,None,,,,,,,,,,,yupa_th,240768,2025-07-24_14h14.36.955,MainFlow,2024.1.5,None,2025-07-24 14h14.57.238440 +0700,
1,8,1,word/wordth0081.png,image/True/img08.png,0,34,34,34,177.21036854099975,,,,,,,178.70604004100005,178.19029883299982,178.21385712499978,178.21385712499978,178.70191537499977,179.801322541,179.801322541,z,1.3354576669999005,None,,,,,,,,,,,yupa_th,240768,2025-07-24_14h14.36.955,MainFlow,2024.1.5,None,2025-07-24 14h14.57.238440 +0700,
1,66,1,word/wordth0661.png,image/True/img66.png,0,35,35,35,181.15193145800004,,,,,,,182.6520674579997,182.13576958299973,182.15981795800008,182.15981795800008,182.63984108299974,183.76804670799993,183.76804670799993,z,0.7135860420003155,None,182.15981795800008,,,,,,,,,,yupa_th,240768,2025-07-24_14h14.36.955,MainFlow,2024.1.5,None,2025-07-24 14h14.57.238440 +0700,
1,24,0,word/wordth0241.png,image/False/imgf24.png,0,36,36,36,184.49349891600014,,,,,,,185.98944912499974,185.4737070000001,185.49738820799985,185.49738820799985,185.98539816599987,187.0940080829996,187.0940080829996,z,2.514452584000537,None,,,,,,,,,,,yupa_th,240768,2025-07-24_14h14.36.955,MainFlow,2024.1.5,None,2025-07-24 14h14.57.238440 +0700,
1,14,1,word/wordth0141.png,image/True/img14.png,0,37,37,37,189.62443679100033,,,,,,,191.11862254100015,190.60636333299954,190.62926883299951,190.62926883299951,191.1071348329997,192.23955970800034,192.23955970800034,z,0.7783953749994907,None,,,,,,,,,,,yupa_th,240768,2025-07-24_14h14.36.955,MainFlow,2024.1.5,None,2025-07-24 14h14.57.238440 +0700,
1,20,0,word/wordth0201.png,image/False/imgf20.png,0,38,38,38,193.0273147910002,,,,,,,194.5229930409996,194.00652737499968,194.03024862500024,194.03024862500024,194.51878441600002,195.66238875,195.66238875,x,4.25831720899987,None,,,,,,,,,,,yupa_th,240768,2025-07-24_14h14.36.955,MainFlow,2024.1.5,None,2025-07-24 14h14.57.238440 +0700,
1,89,0,word/wordth0891.png,image/False/imgf89.png,0,39,39,39,199.93528829099978,,,,,,,201.43521012499968,200.91901083300036,200.94295416600016,200.94295416600016,201.4229221249998,202.54542058300012,202.54542058300012,x,1.111277417000565,None,200.94295416600016,,,,,,,,,,yupa_th,240768,2025-07-24_14h14.36.955,MainFlow,2024.1.5,None,2025-07-24 14h14.57.238440 +0700,
1,64,0,word/wordth0641.png,image/False/imgf64.png,0,40,40,40,203.6683746660001,,,,,,,205.16858458299976,204.65234545800013,204.67624458299997,204.67624458299997,205.15710070800014,206.25482316600028,206.25482316600028,x,1.074351958999614,None,204.67624458299997,,,,,,,,,,yupa_th,240768,2025-07-24_14h14.36.955,MainFlow,2024.1.5,None,2025-07-24 14h14.57.238440 +0700,
1,56,1,word/wordth0561.png,image/True/img56.png,0,41,41,41,207.3439728329995,,,,,,,208.83945816599953,208.32336320800005,208.3474809999998,208.3474809999998,208.83525129099962,209.95360312499997,209.95360312499997,z,1.2002405839994026,None,,,,,,,,,,,yupa_th,240768,2025-07-24_14h14.36.955,MainFlow,2024.1.5,None,2025-07-24 14h14.57.238440 +0700,
1,15,1,word/wordth0151.png,image/True/img15.png,0,42,42,42,211.16849758300032,,,,,,,212.6684810830002,212.15233012499993,212.17715470799976,212.17715470799976,212.65640441599953,213.79593999999997,213.79593999999997,x,1.7662046670002383,None,212.17715470799976,,,,,,,,,,yupa_th,240768,2025-07-24_14h14.36.955,MainFlow,2024.1.5,None,2025-07-24 14h14.57.238440 +0700,
1,88,0,word/wordth0881.png,image/False/imgf88.png,0,43,43,43,215.57710733299973,,,,,,,217.07337070799986,216.55662033299996,216.580181583,216.580181583,217.06864895800027,218.18422812500012,218.18422812500012,x,1.1775828749996435,None,,,,,,,,,,,yupa_th,240768,2025-07-24_14h14.36.955,MainFlow,2024.1.5,None,2025-07-24 14h14.57.238440 +0700,
1,94,1,word/wordth0941.png,image/True/img94.png,0,44,44,44,219.377291625,,,,,,,220.87277537499995,220.35672199999954,220.38005449999946,220.38005449999946,220.86860437500036,221.97656095799994,221.97656095799994,z,2.544686916000501,None,,,,,,,,,,,yupa_th,240768,2025-07-24_14h14.36.955,MainFlow,2024.1.5,None,2025-07-24 14h14.57.238440 +0700,
1,40,0,word/wordth0401.png,image/False/imgf40.png,0,45,45,45,224.53513216600004,,,,,,,226.0351016249997,225.51870266599963,225.54223779099993,225.54223779099993,226.02354624999953,227.15255162500034,227.15255162500034,x,0.9921949999998105,None,225.54223779099993,,,,,,,,,,yupa_th,240768,2025-07-24_14h14.36.955,MainFlow,2024.1.5,None,2025-07-24 14h14.57.238440 +0700,
1,41,0,word/wordth0411.png,image/False/imgf41.png,0,46,46,46,228.1602706249996,,,,,,,229.65666020800018,229.13958804100002,229.16400324999995,229.16400324999995,229.6519924160002,230.74563154099997,230.74563154099997,x,5.735674999999901,None,,,,,,,,,,,yupa_th,240768,2025-07-24_14h14.36.955,MainFlow,2024.1.5,None,2025-07-24 14h14.57.238440 +0700,
1,7,1,word/wordth0071.png,image/True/img07.png,0,47,47,47,236.4935580829997,,,,,,,237.9850288329999,237.47286495800017,237.4966677499997,237.4966677499997,237.9735645410001,239.11807383299947,239.11807383299947,z,1.9386911250003322,None,,,,,,,,,,,yupa_th,240768,2025-07-24_14h14.36.955,MainFlow,2024.1.5,None,2025-07-24 14h14.57.238440 +0700,
1,60,0,word/wordth0601.png,image/False/imgf60.png,0,48,48,48,241.07404425000004,,,,,,,242.56845008300024,242.05603433299984,242.07931166599974,242.07931166599974,242.55679929100006,243.68716429100004,243.68716429100004,x,0.9460760829997525,None,,,,,,,,,,,yupa_th,240768,2025-07-24_14h14.36.955,MainFlow,2024.1.5,None,2025-07-24 14h14.57.238440 +0700,
1,23,0,word/wordth0231.png,image/False/imgf23.png,0,49,49,49,244.6430584159998,,,,,,,246.1392502079998,245.62318754100033,245.649191083,245.649191083,246.1349918750002,247.2778711660003,247.2778711660003,x,1.0753341249992445,None,,,,,,,,,,,yupa_th,240768,2025-07-24_14h14.36.955,MainFlow,2024.1.5,None,2025-07-24 14h14.57.238440 +0700,
1,68,0,word/wordth0681.png,image/False/imgf68.png,0,50,50,50,248.3683348329996,,,,,,,249.8683567500002,249.35220158300035,249.3770905829997,249.3770905829997,249.8561279579999,250.96243120799954,250.96243120799954,x,3.5506593330001124,None,249.3770905829997,,,,,,,,,,yupa_th,240768,2025-07-24_14h14.36.955,MainFlow,2024.1.5,None,2025-07-24 14h14.57.238440 +0700,
1,26,1,word/wordth0261.png,image/True/img26.png,0,51,51,51,254.52644712500023,,,,,,,256.01831183299964,255.5063867910003,255.53020758299954,255.53020758299954,256.006702916,257.152843375,257.152843375,x,3.43220404099975,None,,,,,,,,,,,yupa_th,240768,2025-07-24_14h14.36.955,MainFlow,2024.1.5,None,2025-07-24 14h14.57.238440 +0700,
1,89,0,word/wordth0891.png,image/False/imgf89.png,0,52,52,52,260.5940155830003,,,,,,,262.08493,261.57248629100013,261.59562179099976,261.59562179099976,262.07285395799954,263.1985423750002,263.1985423750002,x,1.1466514999992796,None,,,,,,,,,,,yupa_th,240768,2025-07-24_14h14.36.955,MainFlow,2024.1.5,None,2025-07-24 14h14.57.238440 +0700,
1,3,0,word/wordth0031.png,image/False/imgf03.png,0,53,53,53,264.360084166,,,,,,,265.8517034159995,265.33927808299995,265.3630227499998,265.3630227499998,265.83945358300025,266.9660659579995,266.9660659579995,x,0.730939041000056,None,,,,,,,,,,,yupa_th,240768,2025-07-24_14h14.36.955,MainFlow,2024.1.5,None,2025-07-24 14h14.57.238440 +0700,
1,55,1,word/wordth0551.png,image/True/img55.png,0,54,54,54,267.70985941599974,,,,,,,269.2015786659995,268.6895817499999,268.71315191600024,268.71315191600024,269.1898969160002,270.3297626659996,270.3297626659996,z,1.0875580420006372,None,,,,,,,,,,,yupa_th,240768,2025-07-24_14h14.36.955,MainFlow,2024.1.5,None,2025-07-24 14h14.57.238440 +0700,
1,46,1,word/wordth0461.png,image/True/img46.png,0,55,55,55,271.42212995799946,,,,,,,272.91729945800034,272.40559404099986,272.41928570799973,272.41928570799973,272.90524054100024,274.04036079100024,274.04036079100024,z,0.9212681250000969,None,272.41928570799973,272.91729945800034,272.91729945800034,,,,,,,,yupa_th,240768,2025-07-24_14h14.36.955,MainFlow,2024.1.5,None,2025-07-24 14h14.57.238440 +0700,
1,1,1,word/wordth0011.png,image/True/img01.png,0,56,56,56,274.9768327080001,,,,,,,276.472763666,275.95631799999956,275.98102525000013,275.98102525000013,276.46842645800007,277.5971800409998,277.5971800409998,z,0.6913905830006115,None,,,,,,,,,,,yupa_th,240768,2025-07-24_14h14.36.955,MainFlow,2024.1.5,None,2025-07-24 14h14.57.238440 +0700,
1,3,1,word/wordth0031.png,image/True/img03.png,0,57,57,57,278.3014475,,,,,,,279.8015504160003,279.28507833299955,279.3085339580002,279.3085339580002,279.7893962500002,280.9185283750003,280.9185283750003,z,0.8269117500003631,None,279.3085339580002,,,,,,,,,,yupa_th,240768,2025-07-24_14h14.36.955,MainFlow,2024.1.5,None,2025-07-24 14h14.57.238440 +0700,
1,76,1,word/wordth0761.png,image/True/img76.png,0,58,58,58,281.75946170800034,,,,,,,283.251456166,282.7391554579999,282.76304249999976,282.76304249999976,283.2394322499995,284.3715887500002,284.3715887500002,z,3.1331907909998336,None,,,,,,,,,,,yupa_th,240768,2025-07-24_14h14.36.955,MainFlow,2024.1.5,None,2025-07-24 14h14.57.238440 +0700,
1,52,0,word/wordth0521.png,image/False/imgf52.png,0,59,59,59,287.51821712499986,,,,,,,289.01820899999984,288.5017010829997,288.5252688749997,288.5252688749997,289.0066180829999,290.1229038749998,290.1229038749998,x,0.862356708000334,None,288.5252688749997,,,,,,,,,,yupa_th,240768,2025-07-24_14h14.36.955,MainFlow,2024.1.5,None,2025-07-24 14h14.57.238440 +0700,
1,14,0,word/wordth0141.png,image/False/imgf14.png,0,60,60,60,291.0015728749995,,,,,,,292.50135987500016,291.9852220829998,292.00978983299956,292.00978983299956,292.48935258300025,293.61667566599954,293.61667566599954,x,1.2807107079997877,None,292.00978983299956,,,,,,,,,,yupa_th,240768,2025-07-24_14h14.36.955,MainFlow,2024.1.5,None,2025-07-24 14h14.57.238440 +0700,
1,61,1,word/wordth0611.png,image/True/img61.png,0,61,61,61,294.90985974999967,,,,,,,296.40142541600017,295.88905033300034,295.91379816599965,295.91379816599965,296.38912983299997,297.5184615830003,297.5184615830003,z,0.5871907500004454,None,,,,,,,,,,,yupa_th,240768,2025-07-24_14h14.36.955,MainFlow,2024.1.5,None,2025-07-24 14h14.57.238440 +0700,
1,93,0,word/wordth0931.png,image/False/imgf93.png,0,62,62,62,298.11729512500006,,,,,,,299.61819591600033,299.10178799999994,299.1257379580002,299.1257379580002,299.60587091599973,300.71822891600004,300.71822891600004,x,1.019068958000389,None,299.1257379580002,,,,,,,,,,yupa_th,240768,2025-07-24_14h14.36.955,MainFlow,2024.1.5,None,2025-07-24 14h14.57.238440 +0700,
1,37,1,word/wordth0371.png,image/True/img37.png,0,63,63,63,301.7514355000003,,,,,,,303.25137300000006,302.7351552079999,302.75997587500024,302.75997587500024,303.2394677499997,304.38792250000006,304.38792250000006,z,3.1563677089998237,None,302.75997587500024,,,,,,,,,,yupa_th,240768,2025-07-24_14h14.36.955,MainFlow,2024.1.5,None,2025-07-24 14h14.57.238440 +0700,
1,79,0,word/wordth0791.png,image/False/imgf79.png,0,64,64,64,307.5598428329995,,,,,,,309.05555724999977,308.5397403329998,308.56444041600025,308.56444041600025,309.0513637080003,310.17995479099955,310.17995479099955,x,3.125718749999578,None,,,,,,,,,,,yupa_th,240768,2025-07-24_14h14.36.955,MainFlow,2024.1.5,None,2025-07-24 14h14.57.238440 +0700,
1,37,0,word/wordth0371.png,image/False/imgf37.png,0,65,65,65,313.31786674999967,,,,,,,314.81796162499995,314.3017934999998,314.3246282079999,314.3246282079999,314.80590833299993,315.95960670800014,315.95960670800014,x,1.2896043750006356,None,314.3246282079999,,,,,,,,,,yupa_th,240768,2025-07-24_14h14.36.955,MainFlow,2024.1.5,None,2025-07-24 14h14.57.238440 +0700,
1,3,1,word/wordth0031.png,image/True/img03.png,0,66,66,66,317.2596237500002,,,,,,,318.7513274160001,318.23916570799975,318.2627373329997,318.2627373329997,318.73922358300024,319.8695593330003,319.8695593330003,z,0.8123379170001499,None,,,,,,,,,,,yupa_th,240768,2025-07-24_14h14.36.955,MainFlow,2024.1.5,None,2025-07-24 14h14.57.238440 +0700,
1,93,0,word/wordth0931.png,image/False/imgf93.png,0,67,67,67,320.6933117079998,,,,,,,322.18461725,321.67230008299975,321.69676595799956,321.69676595799956,322.17234737499984,323.2876347909996,323.2876347909996,x,1.3773994169996513,None,,,,,,,,,,,yupa_th,240768,2025-07-24_14h14.36.955,MainFlow,2024.1.5,None,2025-07-24 14h14.57.238440 +0700,
1,30,1,word/wordth0301.png,image/True/img30.png,0,68,68,68,324.67659820799963,,,,,,,326.1727435410003,325.6561433329998,325.68080887499946,325.68080887499946,326.16812674999983,327.2770302500003,327.2770302500003,z,0.891923625000345,None,,,,,,,,,,,yupa_th,240768,2025-07-24_14h14.36.955,MainFlow,2024.1.5,None,2025-07-24 14h14.57.238440 +0700,
1,46,0,word/wordth0461.png,image/False/imgf46.png,0,69,69,69,328.1846196659999,,,,,,,329.6846615409995,329.1681853330001,329.1919783329995,329.1919783329995,329.67232591599986,330.8175185,330.8175185,x,0.8010266250003042,None,329.1919783329995,,,,,,,,,,yupa_th,240768,2025-07-24_14h14.36.955,MainFlow,2024.1.5,None,2025-07-24 14h14.57.238440 +0700,
1,27,0,word/wordth0271.png,image/False/imgf27.png,0,70,70,70,331.63455616600004,,,,,,,333.1346637500001,332.61820887500016,332.6421274579998,332.6421274579998,333.1229880410001,334.24418737499946,334.24418737499946,x,1.9743514589999904,None,332.6421274579998,,,,,,,,,,yupa_th,240768,2025-07-24_14h14.36.955,MainFlow,2024.1.5,None,2025-07-24 14h14.57.238440 +0700,
1,37,1,word/wordth0371.png,image/True/img37.png,0,71,71,71,336.23462862499946,,,,,,,337.7344239160002,337.2183097500001,337.24223125000026,337.24223125000026,337.7223525829995,338.8719957909998,338.8719957909998,z,0.9616387500000201,None,337.24223125000026,,,,,,,,,,yupa_th,240768,2025-07-24_14h14.36.955,MainFlow,2024.1.5,None,2025-07-24 14h14.57.238440 +0700,
1,20,1,word/wordth0201.png,image/True/img20.png,0,72,72,72,339.84291895800015,,,,,,,341.33462329099984,340.82216041599986,340.84572262500023,340.84572262500023,341.32246962499994,342.46255104099964,342.46255104099964,z,1.474560792000375,None,,,,,,,,,,,yupa_th,240768,2025-07-24_14h14.36.955,MainFlow,2024.1.5,None,2025-07-24 14h14.57.238440 +0700,
1,17,1,word/wordth0171.png,image/True/img17.png,0,73,73,73,343.95108683299986,,,,,,,345.45111474999976,344.93495733300006,344.96016179100025,344.96016179100025,345.43903633300033,346.5651207909996,346.5651207909996,z,1.5805547499994645,None,344.96016179100025,,,,,,,,,,yupa_th,240768,2025-07-24_14h14.36.955,MainFlow,2024.1.5,None,2025-07-24 14h14.57.238440 +0700,
1,10,0,word/wordth0101.png,image/False/imgf10.png,0,74,74,74,348.1594130829999,,,,,,,349.65581333299997,349.139453625,349.1645684160003,349.1645684160003,349.651192583,350.7691885409995,350.7691885409995,x,1.0160697910005183,None,,,,,,,,,,,yupa_th,240768,2025-07-24_14h14.36.955,MainFlow,2024.1.5,None,2025-07-24 14h14.57.238440 +0700,
1,68,1,word/wordth0681.png,image/True/img68.png,0,75,75,75,351.80115637499966,,,,,,,353.30103837499973,352.78491570799997,352.80928570800006,352.80928570800006,353.28896737499963,354.3893706250001,354.3893706250001,z,0.9959368339996217,None,352.80928570800006,,,,,,,,,,yupa_th,240768,2025-07-24_14h14.36.955,MainFlow,2024.1.5,None,2025-07-24 14h14.57.238440 +0700,
1,82,0,word/wordth0821.png,image/False/imgf82.png,0,76,76,76,355.4010982079999,,,,,,,356.90097491599954,356.38476366600025,356.4100483330003,356.4100483330003,356.8888722499996,358.0144028329996,358.0144028329996,x,0.9229701250005746,None,356.4100483330003,,,,,,,,,,yupa_th,240768,2025-07-24_14h14.36.955,MainFlow,2024.1.5,None,2025-07-24 14h14.57.238440 +0700,
1,42,1,word/wordth0421.png,image/True/img42.png,0,77,77,77,358.95090629100014,,,,,,,360.45104966599956,359.93460349999987,359.958785541,359.958785541,360.4389742080002,361.5696192079995,361.5696192079995,x,1.5993999170004827,None,359.958785541,,,,,,,,,,yupa_th,240768,2025-07-24_14h14.36.955,MainFlow,2024.1.5,None,2025-07-24 14h14.57.238440 +0700,
1,59,1,word/wordth0591.png,image/True/img59.png,0,78,78,78,363.18451600000026,,,,,,,364.6843062910002,364.1680379999998,364.1920015409996,364.1920015409996,364.67221583300034,365.77831625,365.77831625,z,0.7992264579997936,None,364.1920015409996,,,,,,,,,,yupa_th,240768,2025-07-24_14h14.36.955,MainFlow,2024.1.5,None,2025-07-24 14h14.57.238440 +0700,
1,18,1,word/wordth0181.png,image/True/img18.png,0,79,79,79,366.5927995000002,,,,,,,368.08442558299976,367.5720267079996,367.59532262500034,367.59532262500034,368.07289412499995,369.187827791,369.187827791,z,0.5969667079998544,None,,,,,,,,,,,yupa_th,240768,2025-07-24_14h14.36.955,MainFlow,2024.1.5,None,2025-07-24 14h14.57.238440 +0700,
1,63,1,word/wordth0631.png,image/True/img63.png,0,80,80,80,369.8011247499999,,,,,,,371.30098245800036,370.7848059580001,370.8094183329995,370.8094183329995,371.2887899159996,372.41686829100036,372.41686829100036,z,2.1529586669994387,None,370.8094183329995,,,,,,,,,,yupa_th,240768,2025-07-24_14h14.36.955,MainFlow,2024.1.5,None,2025-07-24 14h14.57.238440 +0700,
1,40,0,word/wordth0401.png,image/False/imgf40.png,0,81,81,81,374.58434733299964,,,,,,,376.08439887500026,375.56799204100025,375.5921189159999,375.5921189159999,376.0722539159997,377.20162816599986,377.20162816599986,x,0.934582541999589,None,375.5921189159999,,,,,,,,,,yupa_th,240768,2025-07-24_14h14.36.955,MainFlow,2024.1.5,None,2025-07-24 14h14.57.238440 +0700,
1,55,0,word/wordth0551.png,image/False/imgf55.png,0,82,82,82,378.1510371249997,,,,,,,379.65109183299955,379.1345953330001,379.15788045800036,379.15788045800036,379.6392551660001,380.76626683299946,380.76626683299946,x,3.138732583000092,None,379.15788045800036,,,,,,,,,,yupa_th,240768,2025-07-24_14h14.36.955,MainFlow,2024.1.5,None,2025-07-24 14h14.57.238440 +0700,
1,26,1,word/wordth0261.png,image/True/img26.png,0,83,83,83,383.91742504099966,,,,,,,385.4175513749997,384.90135112499956,384.92506245799996,384.92506245799996,385.4054517499999,386.5455244579998,386.5455244579998,z,2.3435627079998085,None,384.92506245799996,,,,,,,,,,yupa_th,240768,2025-07-24_14h14.36.955,MainFlow,2024.1.5,None,2025-07-24 14h14.57.238440 +0700,
1,28,0,word/wordth0281.png,image/False/imgf28.png,0,84,84,84,388.89992216599967,,,,,,,390.4008494999998,389.88480558300034,389.91010412499963,389.91010412499963,390.3887008749998,391.5126900409996,391.5126900409996,x,1.1206850830003532,None,389.91010412499963,,,,,,,,,,yupa_th,240768,2025-07-24_14h14.36.955,MainFlow,2024.1.5,None,2025-07-24 14h14.57.238440 +0700,
1,8,0,word/wordth0081.png,image/False/imgf08.png,0,85,85,85,392.6428757499998,,,,,,,394.1390067080001,393.62252595799964,393.64725641600035,393.64725641600035,394.1343517079995,395.23615212499953,395.23615212499953,x,0.8454687089997606,None,,,,,,,,,,,yupa_th,240768,2025-07-24_14h14.36.955,MainFlow,2024.1.5,None,2025-07-24 14h14.57.238440 +0700,
1,9,1,word/wordth0091.png,image/True/img09.png,0,86,86,86,396.0922031660002,,,,,,,397.58834454099997,397.0724570829998,397.0967430410001,397.0967430410001,397.584289333,398.6721167079995,398.6721167079995,z,1.241016583999226,None,,,,,,,,,,,yupa_th,240768,2025-07-24_14h14.36.955,MainFlow,2024.1.5,None,2025-07-24 14h14.57.238440 +0700,
1,78,1,word/wordth0781.png,image/True/img78.png,0,87,87,87,399.9260877910001,,,,,,,401.4174130829997,400.9052736249996,400.9295089999996,400.9295089999996,401.40534520799974,402.52193245800026,402.52193245800026,z,0.854485291999481,None,,,,,,,,,,,yupa_th,240768,2025-07-24_14h14.36.955,MainFlow,2024.1.5,None,2025-07-24 14h14.57.238440 +0700,
1,1,0,word/wordth0011.png,image/False/imgf01.png,0,88,88,88,403.39215658299963,,,,,,,404.8842763749999,404.3718119160003,404.3961360410003,404.3961360410003,404.8724533329996,405.9956477079995,405.9956477079995,x,5.781678917000136,None,,,,,,,,,,,yupa_th,240768,2025-07-24_14h14.36.955,MainFlow,2024.1.5,None,2025-07-24 14h14.57.238440 +0700,
1,71,1,word/wordth0711.png,image/True/img71.png,0,89,89,89,411.7926649579995,,,,,,,413.2885434580003,412.7723815829995,412.7971760829996,412.7971760829996,413.2843334999998,414.413291416,414.413291416,z,1.1476529999999912,None,,,,,,,,,,,yupa_th,240768,2025-07-24_14h14.36.955,MainFlow,2024.1.5,None,2025-07-24 14h14.57.238440 +0700,
1,93,1,word/wordth0931.png,image/True/img93.png,0,90,90,90,415.5759342499996,,,,,,,417.0716328749995,416.5557988749997,416.5809587499998,416.5809587499998,417.06742508299976,418.17560829099966,418.17560829099966,z,2.289445374999559,None,,,,,,,,,,,yupa_th,240768,2025-07-24_14h14.36.955,MainFlow,2024.1.5,None,2025-07-24 14h14.57.238440 +0700,
1,78,0,word/wordth0781.png,image/False/imgf78.png,0,91,91,91,420.4757197500003,,,,,,,421.9722723750001,421.45560991599996,421.4798442499996,421.4798442499996,421.9675801249996,423.0688584159998,423.0688584159998,x,0.9711169170004723,None,,,,,,,,,,,yupa_th,240768,2025-07-24_14h14.36.955,MainFlow,2024.1.5,None,2025-07-24 14h14.57.238440 +0700,
1,8,0,word/wordth0081.png,image/False/imgf08.png,0,92,92,92,424.05646316599996,,,,,,,425.5506479579999,425.03843304099973,425.06241204100024,425.06241204100024,425.53853658299977,426.65130604099977,426.65130604099977,x,0.9333260000003065,None,,,,,,,,,,,yupa_th,240768,2025-07-24_14h14.36.955,MainFlow,2024.1.5,None,2025-07-24 14h14.57.238440 +0700,
1,9,0,word/wordth0091.png,image/False/imgf09.png,0,93,93,93,427.60068616599983,,,,,,,429.1006805830002,428.58442091599954,428.6084315830003,428.6084315830003,429.08861633299966,430.193865833,430.193865833,x,1.3041132080006719,None,428.6084315830003,,,,,,,,,,yupa_th,240768,2025-07-24_14h14.36.955,MainFlow,2024.1.5,None,2025-07-24 14h14.57.238440 +0700,
1,75,1,word/wordth0751.png,image/True/img75.png,0,94,94,94,431.5093888749998,,,,,,,433.00484579099975,432.4887773749997,432.5128132079999,432.5128132079999,433.0006761659997,434.1194209160003,434.1194209160003,z,0.9373127919998296,None,,,,,,,,,,,yupa_th,240768,2025-07-24_14h14.36.955,MainFlow,2024.1.5,None,2025-07-24 14h14.57.238440 +0700,
1,95,0,word/wordth0951.png,image/False/imgf95.png,0,95,95,95,435.072835125,,,,,,,436.5715338330001,436.05556633299966,436.07954787499966,436.07954787499966,436.567311666,437.6943839579999,437.6943839579999,x,1.618360667000161,None,436.07954787499966,,,,,,,,,,yupa_th,240768,2025-07-24_14h14.36.955,MainFlow,2024.1.5,None,2025-07-24 14h14.57.238440 +0700,
1,70,1,word/wordth0701.png,image/True/img70.png,0,96,96,96,439.32566937499996,,,,,,,440.8214070409995,440.3053594160001,440.33022600000004,440.33022600000004,440.81735091599967,441.94073329099956,441.94073329099956,z,1.077512332999504,None,,,,,,,,,,,yupa_th,240768,2025-07-24_14h14.36.955,MainFlow,2024.1.5,None,2025-07-24 14h14.57.238440 +0700,
1,94,0,word/wordth0941.png,image/False/imgf94.png,0,97,97,97,443.03392008300034,,,,,,,444.5340059580003,444.0176350410002,444.04192654100007,444.04192654100007,444.52167775,445.66635162500006,445.66635162500006,x,0.7671647079996546,None,444.04192654100007,,,,,,,,,,yupa_th,240768,2025-07-24_14h14.36.955,MainFlow,2024.1.5,None,2025-07-24 14h14.57.238440 +0700,
1,9,0,word/wordth0091.png,image/False/imgf09.png,0,98,98,98,446.4425670410001,,,,,,,447.933861083,447.4217937499998,447.4454648330002,447.4454648330002,447.92203233300006,449.0309254160002,449.0309254160002,x,0.7132486669997888,None,,,,,,,,,,,yupa_th,240768,2025-07-24_14h14.36.955,MainFlow,2024.1.5,None,2025-07-24 14h14.57.238440 +0700,
1,18,0,word/wordth0181.png,image/False/imgf18.png,0,99,99,99,449.75915458300005,,,,,,,451.25457350000033,450.73881566599994,450.76322983299997,450.76322983299997,451.2505656249996,452.3707335829995,452.3707335829995,z,6.302654707999864,None,,,,,,,,,,,yupa_th,240768,2025-07-24_14h14.36.955,MainFlow,2024.1.5,None,2025-07-24 14h14.57.238440 +0700,
1,28,1,word/wordth0281.png,image/True/img28.png,0,100,100,100,458.68921599999976,,,,,,,460.18387329100005,459.6721451659996,459.69545845799985,459.69545845799985,460.1723782500003,461.3196442079998,461.3196442079998,z,0.7686078749993612,None,459.69545845799985,,,,,,,,,,yupa_th,240768,2025-07-24_14h14.36.955,MainFlow,2024.1.5,None,2025-07-24 14h14.57.238440 +0700,
1,23,1,word/wordth0231.png,image/True/img23.png,0,101,101,101,462.10058466600003,,,,,,,463.6004374160002,463.0840720409997,463.1080242910002,463.1080242910002,463.5883166659996,464.7136490410003,464.7136490410003,z,2.023067458000696,None,463.1080242910002,,,,,,,,,,yupa_th,240768,2025-07-24_14h14.36.955,MainFlow,2024.1.5,None,2025-07-24 14h14.57.238440 +0700,
1,30,0,word/wordth0301.png,image/False/imgf30.png,0,102,102,102,466.75042316599956,,,,,,,468.2505309580001,467.7341495410001,467.7581954999996,467.7581954999996,468.23863062500004,469.36376054099946,469.36376054099946,x,0.9095997919994261,None,467.7581954999996,,,,,,,,,,yupa_th,240768,2025-07-24_14h14.36.955,MainFlow,2024.1.5,None,2025-07-24 14h14.57.238440 +0700,
1,11,1,word/wordth0111.png,image/True/img11.png,0,103,103,103,470.2916332909999,,,,,,,471.78373974999977,471.27157158299997,471.29536766599995,471.29536766599995,471.77166537500034,472.92472104100034,472.92472104100034,z,0.7802879159999065,None,,,,,,,,,,,yupa_th,240768,2025-07-24_14h14.36.955,MainFlow,2024.1.5,None,2025-07-24 14h14.57.238440 +0700,
1,75,0,word/wordth0751.png,image/False/imgf75.png,0,104,104,104,473.7170635829998,,,,,,,475.21709337500033,474.7008371659995,474.7246099160002,474.7246099160002,475.2050526659996,476.33217395799966,476.33217395799966,x,0.9645712080000521,None,474.7246099160002,,,,,,,,,,yupa_th,240768,2025-07-24_14h14.36.955,MainFlow,2024.1.5,None,2025-07-24 14h14.57.238440 +0700,
1,6,0,word/wordth0061.png,image/False/imgf06.png,0,105,105,105,477.3092226250001,,,,,,,478.80494912500035,478.2885227500001,478.31208349999997,478.31208349999997,478.8005108750003,479.9015533749998,479.9015533749998,x,0.8838084580002032,None,,,,,,,,,,,yupa_th,240768,2025-07-24_14h14.36.955,MainFlow,2024.1.5,None,2025-07-24 14h14.57.238440 +0700,
1,27,1,word/wordth0271.png,image/True/img27.png,0,106,106,106,480.8003002079995,,,,,,,482.30044325000017,481.7841285409995,481.8082271659996,481.8082271659996,482.2885879579999,483.4059386660001,483.4059386660001,x,4.186962415999915,None,481.8082271659996,,,,,,,,,,yupa_th,240768,2025-07-24_14h14.36.955,MainFlow,2024.1.5,None,2025-07-24 14h14.57.238440 +0700,
1,1,1,word/wordth0011.png,image/True/img01.png,0,107,107,107,487.6090693750002,,,,,,,489.104558041,488.5886067499996,488.6126439159998,488.6126439159998,489.1004068330003,490.2294661249998,490.2294661249998,z,0.8675213749993418,None,,,,,,,,,,,yupa_th,240768,2025-07-24_14h14.36.955,MainFlow,2024.1.5,None,2025-07-24 14h14.57.238440 +0700,
1,44,0,word/wordth0441.png,image/False/imgf44.png,0,108,108,108,491.1084198749995,,,,,,,492.6048505409999,492.0883938329998,492.1134789159996,492.1134789159996,492.60038087500016,493.73258712499955,493.73258712499955,x,0.8046484160004184,None,,,,,,,,,,,yupa_th,240768,2025-07-24_14h14.36.955,MainFlow,2024.1.5,None,2025-07-24 14h14.57.238440 +0700,
1,48,0,word/wordth0481.png,image/False/imgf48.png,0,109,109,109,494.5501937910003,,,,,,,496.0503169579997,495.5342391659997,495.55824191600004,495.55824191600004,496.03819966599985,497.1839004579997,497.1839004579997,x,4.129661417000534,None,495.55824191600004,,,,,,,,,,yupa_th,240768,2025-07-24_14h14.36.955,MainFlow,2024.1.5,None,2025-07-24 14h14.57.238440 +0700,
1,60,0,word/wordth0601.png,image/False/imgf60.png,0,110,110,110,501.32568858299965,,,,,,,502.821145291,502.3053688330001,502.3301246250003,502.3301246250003,502.8169980829998,503.935000208,503.935000208,x,1.6418469170002936,None,,,,,,,,,,,yupa_th,240768,2025-07-24_14h14.36.955,MainFlow,2024.1.5,None,2025-07-24 14h14.57.238440 +0700,
1,96,1,word/wordth0961.png,image/True/img96.png,0,111,111,111,505.5918691249999,,,,,,,507.08354537499963,506.57116620800025,506.594687666,506.594687666,507.071470375,508.20607850000033,508.20607850000033,z,0.8427368749999005,None,,,,,,,,,,,yupa_th,240768,2025-07-24_14h14.36.955,MainFlow,2024.1.5,None,2025-07-24 14h14.57.238440 +0700,
1,79,0,word/wordth0791.png,image/False/imgf79.png,0,112,112,112,509.0584860829995,,,,,,,510.5544043330001,510.038404291,510.0623587909995,510.0623587909995,510.5501345829998,511.6771883749998,511.6771883749998,x,1.2274493340000845,None,,,,,,,,,,,yupa_th,240768,2025-07-24_14h14.36.955,MainFlow,2024.1.5,None,2025-07-24 14h14.57.238440 +0700,
1,7,0,word/wordth0071.png,image/False/imgf07.png,0,113,113,113,512.9168843750003,,,,,,,514.4169333330001,513.9006730000001,513.925280333,513.925280333,514.4046147500003,515.5305882080002,515.5305882080002,x,3.519018624999262,None,513.925280333,,,,,,,,,,yupa_th,240768,2025-07-24_14h14.36.955,MainFlow,2024.1.5,None,2025-07-24 14h14.57.238440 +0700,
1,36,0,word/wordth0361.png,image/False/imgf36.png,0,114,114,114,519.058874583,,,,,,,520.5543038750002,520.0382965829995,520.0628443329997,520.0628443329997,520.5501541249996,521.6695700829996,521.6695700829996,x,1.0120888330002344,None,,,,,,,,,,,yupa_th,240768,2025-07-24_14h14.36.955,MainFlow,2024.1.5,None,2025-07-24 14h14.57.238440 +0700,
1,71,0,word/wordth0711.png,image/False/imgf71.png,0,115,115,115,522.6915603329999,,,,,,,524.1834115410002,523.6716885409996,523.6953364579995,523.6953364579995,524.1718597500003,525.3230562910003,525.3230562910003,x,0.9982754169996042,None,,,,,,,,,,,yupa_th,240768,2025-07-24_14h14.36.955,MainFlow,2024.1.5,None,2025-07-24 14h14.57.238440 +0700,
1,20,0,word/wordth0201.png,image/False/imgf20.png,0,116,116,116,526.3335420000003,,,,,,,527.8334048750003,527.317298125,527.343486875,527.343486875,527.821332083,528.9757858749999,528.9757858749999,x,3.90598937499999,None,527.343486875,,,,,,,,,,yupa_th,240768,2025-07-24_14h14.36.955,MainFlow,2024.1.5,None,2025-07-24 14h14.57.238440 +0700,
1,87,1,word/wordth0871.png,image/True/img87.png,0,117,117,117,532.8915409159999,,,,,,,534.383396708,533.8712156250003,533.895229666,533.895229666,534.3713655000001,535.5079067910001,535.5079067910001,z,0.9325922080006421,None,,,,,,,,,,,yupa_th,240768,2025-07-24_14h14.36.955,MainFlow,2024.1.5,None,2025-07-24 14h14.57.238440 +0700,
1,50,0,word/wordth0501.png,image/False/imgf50.png,0,118,118,118,536.458209333,,,,,,,537.9500953750003,537.4381036659997,537.4615131250002,537.4615131250002,537.9384719999998,539.0649567499995,539.0649567499995,x,0.7517781659998946,None,,,,,,,,,,,yupa_th,240768,2025-07-24_14h14.36.955,MainFlow,2024.1.5,None,2025-07-24 14h14.57.238440 +0700,
1,18,1,word/wordth0181.png,image/True/img18.png,0,119,119,119,539.8253809580001,,,,,,,541.3167974999997,540.8049907909999,540.8281861249998,540.8281861249998,541.3051734580004,542.4179426660003,542.4179426660003,z,0.6312872910002625,None,,,,,,,,,,,yupa_th,240768,2025-07-24_14h14.36.955,MainFlow,2024.1.5,None,2025-07-24 14h14.57.238440 +0700,
1,71,0,word/wordth0711.png,image/False/imgf71.png,0,120,120,120,543.0582756249996,,,,,,,544.5544754160001,544.037954333,544.0616879159998,544.0616879159998,544.5502133749997,545.6911289580003,545.6911289580003,x,0.8456136659997355,None,,,,,,,,,,,yupa_th,240768,2025-07-24_14h14.36.955,MainFlow,2024.1.5,None,2025-07-24 14h14.57.238440 +0700,
1,46,1,word/wordth0461.png,image/True/img46.png,0,121,121,121,546.550061375,,,,,,,548.049914833,547.5336400830001,547.558083166,547.558083166,548.0378353750002,549.1840136250003,549.1840136250003,z,3.192334416000449,None,547.558083166,,,,,,,,,,yupa_th,240768,2025-07-24_14h14.36.955,MainFlow,2024.1.5,None,2025-07-24 14h14.57.238440 +0700,
1,10,1,word/wordth0101.png,image/True/img10.png,0,122,122,122,552.3917233330003,,,,,,,553.8833688750001,553.3670124999999,553.3914831659995,553.3914831659995,553.8717694999996,554.9913153329999,554.9913153329999,z,0.8255071659996247,None,,,,,,,,,,,yupa_th,240768,2025-07-24_14h14.36.955,MainFlow,2024.1.5,None,2025-07-24 14h14.57.238440 +0700,
1,16,0,word/wordth0161.png,image/False/imgf16.png,0,123,123,123,555.8254806249997,,,,,,,557.3166273750003,556.8043457909998,556.827423666,556.827423666,557.3045620000003,558.447547666,558.447547666,x,1.9925702910004475,None,,,,,,,,,,,yupa_th,240768,2025-07-24_14h14.36.955,MainFlow,2024.1.5,None,2025-07-24 14h14.57.238440 +0700,
1,15,0,word/wordth0151.png,image/False/imgf15.png,0,124,124,124,560.4578006250003,,,,,,,561.9498874159999,561.4337665410003,561.4587849580003,561.4587849580003,561.937826458,563.0615527909995,563.0615527909995,x,0.922221540999999,None,,,,,,,,,,,yupa_th,240768,2025-07-24_14h14.36.955,MainFlow,2024.1.5,None,2025-07-24 14h14.57.238440 +0700,
1,59,0,word/wordth0591.png,image/False/imgf59.png,0,125,125,125,563.9999641249997,,,,,,,565.4998095829997,564.9835218749995,565.0076894579997,565.0076894579997,565.4877957910003,566.5914748329997,566.5914748329997,x,2.177394500000446,None,565.0076894579997,,,,,,,,,,yupa_th,240768,2025-07-24_14h14.36.955,MainFlow,2024.1.5,None,2025-07-24 14h14.57.238440 +0700,
1,11,0,word/wordth0111.png,image/False/imgf11.png,0,126,126,126,568.7833358749995,,,,,,,570.2832022080001,569.7670716659995,569.7925292499995,569.7925292499995,570.2711791250003,571.4133686249997,571.4133686249997,x,2.8516776249998657,None,569.7925292499995,,,,,,,,,,yupa_th,240768,2025-07-24_14h14.36.955,MainFlow,2024.1.5,None,2025-07-24 14h14.57.238440 +0700,
1,75,1,word/wordth0751.png,image/True/img75.png,0,127,127,127,574.2747603749995,,,,,,,575.7708910829997,575.2546710409997,575.2782721659996,575.2782721659996,575.7666446249996,576.8873987500001,576.8873987500001,z,0.9297213329991791,None,,,,,,,,,,,yupa_th,240768,2025-07-24_14h14.36.955,MainFlow,2024.1.5,None,2025-07-24 14h14.57.238440 +0700,
1,33,1,word/wordth0331.png,image/True/img33.png,0,128,128,128,577.8332388749996,,,,,,,579.3331325409999,578.8170012499995,578.8418233749999,578.8418233749999,579.3210301660001,580.4507326249995,580.4507326249995,z,0.9500373339997168,None,578.8418233749999,,,,,,,,,,yupa_th,240768,2025-07-24_14h14.36.955,MainFlow,2024.1.5,None,2025-07-24 14h14.57.238440 +0700,
1,66,0,word/wordth0661.png,image/False/imgf66.png,0,129,129,129,581.4164202909997,,,,,,,582.9164195829999,582.4003093749998,582.424807458,582.424807458,582.9048153329995,584.0336756249999,584.0336756249999,x,1.2310952910002015,None,582.424807458,,,,,,,,,,yupa_th,240768,2025-07-24_14h14.36.955,MainFlow,2024.1.5,None,2025-07-24 14h14.57.238440 +0700,
1,38,1,word/wordth0381.png,image/True/img38.png,0,130,130,130,585.2748650000003,,,,,,,586.7709593749996,586.2547172499999,586.2788342499998,586.2788342499998,586.7667794999998,587.8803142910001,587.8803142910001,z,0.7846722079993924,None,,,,,,,,,,,yupa_th,240768,2025-07-24_14h14.36.955,MainFlow,2024.1.5,None,2025-07-24 14h14.57.238440 +0700,
1,38,1,word/wordth0381.png,image/True/img38.png,0,131,131,131,588.6747048750003,,,,,,,590.1711324159996,589.6545712079997,589.6786050000001,589.6786050000001,590.1664649579998,591.2782420000003,591.2782420000003,z,1.1556365420001384,None,,,,,,,,,,,yupa_th,240768,2025-07-24_14h14.36.955,MainFlow,2024.1.5,None,2025-07-24 14h14.57.238440 +0700,
1,63,1,word/wordth0631.png,image/True/img63.png,0,132,132,132,592.4497041249997,,,,,,,593.9497669579996,593.4334988330002,593.4575972080002,593.4575972080002,593.9375848749996,595.0685742079995,595.0685742079995,z,3.5160747499994613,None,593.4575972080002,,,,,,,,,,yupa_th,240768,2025-07-24_14h14.36.955,MainFlow,2024.1.5,None,2025-07-24 14h14.57.238440 +0700,
1,33,0,word/wordth0331.png,image/False/imgf33.png,0,133,133,133,598.5987707499999,,,,,,,600.0996614999995,599.5834707080003,599.6072118330003,599.6072118330003,600.0875236250004,601.2220889580003,601.2220889580003,x,0.8592932909996307,None,599.6072118330003,,,,,,,,,,yupa_th,240768,2025-07-24_14h14.36.955,MainFlow,2024.1.5,None,2025-07-24 14h14.57.238440 +0700,
1,52,1,word/wordth0521.png,image/True/img52.png,0,134,134,134,602.0913601659995,,,,,,,603.5872892079997,603.071408625,603.0959682080002,603.0959682080002,603.5830659579997,604.7106555829996,604.7106555829996,z,1.0184259580000798,None,,,,,,,,,,,yupa_th,240768,2025-07-24_14h14.36.955,MainFlow,2024.1.5,None,2025-07-24 14h14.57.238440 +0700,
1,11,0,word/wordth0111.png,image/False/imgf11.png,0,135,135,135,605.741173208,,,,,,,607.2377280000001,606.7215261660003,606.7457843749999,606.7457843749999,607.2330836250003,608.3687522909995,608.3687522909995,x,1.2151548330002697,None,,,,,,,,,,,yupa_th,240768,2025-07-24_14h14.36.955,MainFlow,2024.1.5,None,2025-07-24 14h14.57.238440 +0700,
1,1,0,word/wordth0011.png,image/False/imgf01.png,0,136,136,136,609.5995735830002,,,,,,,611.099681791,610.5835903750003,610.6074401659998,610.6074401659998,611.0875404999997,612.2058427909997,612.2058427909997,x,2.362090958999943,None,610.6074401659998,,,,,,,,,,yupa_th,240768,2025-07-24_14h14.36.955,MainFlow,2024.1.5,None,2025-07-24 14h14.57.238440 +0700,
1,96,0,word/wordth0961.png,image/False/imgf96.png,0,137,137,137,614.5830974580003,,,,,,,616.0828915829998,615.5666806250001,615.591579166,615.591579166,616.0707800829996,617.2056263329996,617.2056263329996,x,2.1224117090005166,None,615.591579166,,,,,,,,,,yupa_th,240768,2025-07-24_14h14.36.955,MainFlow,2024.1.5,None,2025-07-24 14h14.57.238440 +0700,
1,57,1,word/wordth0571.png,image/True/img57.png,0,138,138,138,619.341711041,,,,,,,620.8329173749999,620.3207197080001,620.3440020830003,620.3440020830003,620.8212759580001,621.9590013329998,621.9590013329998,z,7.114275584000097,None,,,,,,,,,,,yupa_th,240768,2025-07-24_14h14.36.955,MainFlow,2024.1.5,None,2025-07-24 14h14.57.238440 +0700,
1,30,1,word/wordth0301.png,image/True/img30.png,0,139,139,139,629.0911633329997,,,,,,,630.5870188749996,630.0711892500003,630.095493416,630.095493416,630.5829907910002,631.6929907080003,631.6929907080003,z,1.2279757500000414,None,,,,,,,,,,,yupa_th,240768,2025-07-24_14h14.36.955,MainFlow,2024.1.5,None,2025-07-24 14h14.57.238440 +0700,
1,41,1,word/wordth0411.png,image/True/img41.png,0,140,140,140,632.9328461659998,,,,,,,634.4329181249996,633.9164681659995,633.9405509159997,633.9405509159997,634.4209638330003,635.5587481249995,635.5587481249995,z,5.161746499999936,None,633.9405509159997,,,,,,,,,,yupa_th,240768,2025-07-24_14h14.36.955,MainFlow,2024.1.5,None,2025-07-24 14h14.57.238440 +0700,
1,50,1,word/wordth0501.png,image/True/img50.png,0,141,141,141,640.7327977499999,,,,,,,642.2328890409999,641.7165731659998,641.7404412079995,641.7404412079995,642.2205831660003,643.3452235409995,643.3452235409995,z,8.664430374999938,None,641.7404412079995,,,,,,,,,,yupa_th,240768,2025-07-24_14h14.36.955,MainFlow,2024.1.5,None,2025-07-24 14h14.57.238440 +0700,
1,3,0,word/wordth0031.png,image/False/imgf03.png,0,142,142,142,652.024819833,,,,,,,653.5202868329998,653.0044720830001,653.0280891659995,653.0280891659995,653.5161284579999,654.6414920409998,654.6414920409998,x,0.9751927079996676,None,,,,,,,,,,,yupa_th,240768,2025-07-24_14h14.36.955,MainFlow,2024.1.5,None,2025-07-24 14h14.57.238440 +0700,
1,78,1,word/wordth0781.png,image/True/img78.png,0,143,143,143,655.632694416,,,,,,,657.1327514579998,656.6164506249997,656.6412594160001,656.6412594160001,657.121324916,658.2368529160003,658.2368529160003,z,0.7153818340002545,None,656.6412594160001,,,,,,,,,,yupa_th,240768,2025-07-24_14h14.36.955,MainFlow,2024.1.5,None,2025-07-24 14h14.57.238440 +0700,
1,76,0,word/wordth0761.png,image/False/imgf76.png,0,144,144,144,658.9661537499996,,,,,,,660.4660363749999,659.9498188329999,659.9747084580004,659.9747084580004,660.4539117080003,661.6008832500002,661.6008832500002,x,3.551916249999522,None,659.9747084580004,,,,,,,,,,yupa_th,240768,2025-07-24_14h14.36.955,MainFlow,2024.1.5,None,2025-07-24 14h14.57.238440 +0700,
1,6,1,word/wordth0061.png,image/True/img06.png,0,145,145,145,665.1661034159997,,,,,,,666.6659863329996,666.1498816659996,666.1737990410002,666.1737990410002,666.6538829159999,667.7662697079995,667.7662697079995,z,0.8743593750004948,None,666.1737990410002,,,,,,,,,,yupa_th,240768,2025-07-24_14h14.36.955,MainFlow,2024.1.5,None,2025-07-24 14h14.57.238440 +0700,
1,31,0,word/wordth0311.png,image/False/imgf31.png,0,146,146,146,668.6580089159997,,,,,,,670.1536655,669.6372087079999,669.6612142080003,669.6612142080003,670.1494412909997,671.2393587079996,671.2393587079996,x,4.257966957999997,None,,,,,,,,,,,yupa_th,240768,2025-07-24_14h14.36.955,MainFlow,2024.1.5,None,2025-07-24 14h14.57.238440 +0700,
1,22,0,word/wordth0221.png,image/False/imgf22.png,0,147,147,147,675.5071814579996,,,,,,,677.0035507499997,676.4873710410002,676.511360083,676.511360083,676.9993278749998,678.1304819999996,678.1304819999996,x,0.941916666999532,None,,,,,,,,,,,yupa_th,240768,2025-07-24_14h14.36.955,MainFlow,2024.1.5,None,2025-07-24 14h14.57.238440 +0700,
1,28,0,word/wordth0281.png,image/False/imgf28.png,0,148,148,148,679.0907807499998,,,,,,,680.5866653749999,680.0708896659999,680.0953559580003,680.0953559580003,680.5826456659997,681.6969222079997,681.6969222079997,x,1.086699458000112,None,,,,,,,,,,,yupa_th,240768,2025-07-24_14h14.36.955,MainFlow,2024.1.5,None,2025-07-24 14h14.57.238440 +0700,
1,57,0,word/wordth0571.png,image/False/imgf57.png,0,149,149,149,682.7990947079998,,,,,,,684.2991931249999,683.7830745000001,683.8063299160003,683.8063299160003,684.2878486660002,685.4216180829999,685.4216180829999,x,3.4346142499998678,None,683.8063299160003,,,,,,,,,,yupa_th,240768,2025-07-24_14h14.36.955,MainFlow,2024.1.5,None,2025-07-24 14h14.57.238440 +0700,
1,7,0,word/wordth0071.png,image/False/imgf07.png,0,150,150,150,688.8740177909995,,,,,,,690.3658972499998,689.8537137080002,689.8782251659995,689.8782251659995,690.3540702079999,691.4841955410002,691.4841955410002,x,3.8841016249998574,None,,,,,,,,,,,yupa_th,240768,2025-07-24_14h14.36.955,MainFlow,2024.1.5,None,2025-07-24 14h14.57.238440 +0700,
1,56,1,word/wordth0561.png,image/True/img56.png,0,151,151,151,695.3825450409995,,,,,,,696.8826617080003,696.3661612079995,696.3904403329998,696.3904403329998,696.8703000830001,697.9928694580003,697.9928694580003,z,0.984217374999389,None,696.3904403329998,,,,,,,,,,yupa_th,240768,2025-07-24_14h14.36.955,MainFlow,2024.1.5,None,2025-07-24 14h14.57.238440 +0700,
1,6,0,word/wordth0061.png,image/False/imgf06.png,0,152,152,152,698.9911797909999,,,,,,,700.4825120830001,699.9702345830001,699.9937411660003,699.9937411660003,700.4704333749996,701.5840719580001,701.5840719580001,x,0.9598214580000786,None,,,,,,,,,,,yupa_th,240768,2025-07-24_14h14.36.955,MainFlow,2024.1.5,None,2025-07-24 14h14.57.238440 +0700,
1,36,0,word/wordth0361.png,image/False/imgf36.png,0,153,153,153,702.558064625,,,,,,,704.0535333329999,703.5374043330003,703.5611694580002,703.5611694580002,704.0492775000002,705.1683075829997,705.1683075829997,x,0.9289719170001263,None,,,,,,,,,,,yupa_th,240768,2025-07-24_14h14.36.955,MainFlow,2024.1.5,None,2025-07-24 14h14.57.238440 +0700,
1,79,1,word/wordth0791.png,image/True/img79.png,0,154,154,154,706.1074827080001,,,,,,,707.5990942910003,707.0872743749997,707.1109592080002,707.1109592080002,707.5875724580001,708.7193606250003,708.7193606250003,z,0.8641416250002294,None,,,,,,,,,,,yupa_th,240768,2025-07-24_14h14.36.955,MainFlow,2024.1.5,None,2025-07-24 14h14.57.238440 +0700,
1,52,0,word/wordth0521.png,image/False/imgf52.png,0,155,155,155,709.5983353330003,,,,,,,711.099180958,710.5827425409998,710.6066573749995,710.6066573749995,711.0870852500002,712.2030197499998,712.2030197499998,x,0.7648669580003116,None,710.6066573749995,,,,,,,,,,yupa_th,240768,2025-07-24_14h14.36.955,MainFlow,2024.1.5,None,2025-07-24 14h14.57.238440 +0700,
1,18,0,word/wordth0181.png,image/False/imgf18.png,0,156,156,156,712.9819880409996,,,,,,,714.4824946660001,713.9660866249997,713.9909440410001,713.9909440410001,714.4708212079995,715.5954183329995,715.5954183329995,x,1.9976087080003708,None,713.9909440410001,,,,,,,,,,yupa_th,240768,2025-07-24_14h14.36.955,MainFlow,2024.1.5,None,2025-07-24 14h14.57.238440 +0700,
1,23,1,word/wordth0231.png,image/True/img23.png,0,157,157,157,717.6072497079995,,,,,,,719.1033819579998,718.5874331659998,718.6119359579998,718.6119359579998,719.0991849579996,720.2176279579999,720.2176279579999,z,0.6075492919999306,None,,,,,,,,,,,yupa_th,240768,2025-07-24_14h14.36.955,MainFlow,2024.1.5,None,2025-07-24 14h14.57.238440 +0700,
1,61,1,word/wordth0611.png,image/True/img61.png,0,158,158,158,720.841216541,,,,,,,722.3323995000001,721.820257458,721.844703625,721.844703625,722.3203602499998,723.4494782909997,723.4494782909997,z,0.5188417919998756,None,,,,,,,,,,,yupa_th,240768,2025-07-24_14h14.36.955,MainFlow,2024.1.5,None,2025-07-24 14h14.57.238440 +0700,
1,44,1,word/wordth0441.png,image/True/img44.png,0,159,159,159,723.9824260830001,,,,,,,725.4823117079995,724.9662108330003,724.9909126659995,724.9909126659995,725.4701742500001,726.5884792079996,726.5884792079996,z,0.6931169579993366,None,724.9909126659995,,,,,,,,,,yupa_th,240768,2025-07-24_14h14.36.955,MainFlow,2024.1.5,None,2025-07-24 14h14.57.238440 +0700,
1,10,1,word/wordth0101.png,image/True/img10.png,0,160,160,160,727.2906711659998,,,,,,,728.7823350409999,728.270076625,728.2932424159999,728.2932424159999,728.770624541,729.8932788330003,729.8932788330003,z,1.2266611670002021,None,,,,,,,,,,,yupa_th,240768,2025-07-24_14h14.36.955,MainFlow,2024.1.5,None,2025-07-24 14h14.57.238440 +0700,
1,31,1,word/wordth0311.png,image/True/img31.png,0,161,161,161,731.1325186249996,,,,,,,732.6322596660002,732.1160927909996,732.1399652499995,732.1399652499995,732.6201999160003,733.7420530829995,733.7420530829995,z,4.010187709000093,None,732.1399652499995,,,,,,,,,,yupa_th,240768,2025-07-24_14h14.36.955,MainFlow,2024.1.5,None,2025-07-24 14h14.57.238440 +0700,
1,14,0,word/wordth0141.png,image/False/imgf14.png,0,162,162,162,737.7655887499996,,,,,,,739.2655944159997,738.7494717910004,738.7734782910002,738.7734782910002,739.2534556660003,740.3805665,740.3805665,x,1.2523425829995176,None,738.7734782910002,,,,,,,,,,yupa_th,240768,2025-07-24_14h14.36.955,MainFlow,2024.1.5,None,2025-07-24 14h14.57.238440 +0700,
1,15,0,word/wordth0151.png,image/False/imgf15.png,0,163,163,163,741.6479559580002,,,,,,,743.1489338749998,742.632687583,742.6574304999995,742.6574304999995,743.1364764999998,744.2617592910001,744.2617592910001,x,2.8430389999994077,None,742.6574304999995,,,,,,,,,,yupa_th,240768,2025-07-24_14h14.36.955,MainFlow,2024.1.5,None,2025-07-24 14h14.57.238440 +0700,
1,51,1,word/wordth0511.png,image/True/img51.png,0,164,164,164,747.1207778749995,,,,,,,748.6200552909995,748.103859625,748.1269927080002,748.1269927080002,748.6156064159995,749.7389655830002,749.7389655830002,z,1.1261012499999197,None,748.1269927080002,,,,,,,,,,yupa_th,240768,2025-07-24_14h14.36.955,MainFlow,2024.1.5,None,2025-07-24 14h14.57.238440 +0700,
1,82,1,word/wordth0821.png,image/True/img82.png,0,165,165,165,750.8745412500002,,,,,,,752.3697240410002,751.8535811250003,751.8770998749997,751.8770998749997,752.3655804580003,753.4570752079999,753.4570752079999,z,0.8798193330003414,None,,,,,,,,,,,yupa_th,240768,2025-07-24_14h14.36.955,MainFlow,2024.1.5,None,2025-07-24 14h14.57.238440 +0700,
1,27,0,word/wordth0271.png,image/False/imgf27.png,0,166,166,166,754.3481336659997,,,,,,,755.8489356250002,755.3325913749995,755.3563656659999,755.3563656659999,755.8367939580003,756.9573235409998,756.9573235409998,x,0.8356525839999449,None,755.3563656659999,,,,,,,,,,yupa_th,240768,2025-07-24_14h14.36.955,MainFlow,2024.1.5,None,2025-07-24 14h14.57.238440 +0700,
1,78,0,word/wordth0781.png,image/False/imgf78.png,0,167,167,167,757.8067728750002,,,,,,,759.3035711249995,758.7871200829995,758.8104296660003,758.8104296660003,759.2989742500004,760.4034452079995,760.4034452079995,x,2.877563250000094,None,,,,,,,,,,,yupa_th,240768,2025-07-24_14h14.36.955,MainFlow,2024.1.5,None,2025-07-24 14h14.57.238440 +0700,
1,89,1,word/wordth0891.png,image/True/img89.png,0,168,168,168,763.290615375,,,,,,,764.7865899580001,764.2703512910002,764.2945100409997,764.2945100409997,764.7823680000001,765.8860978749999,765.8860978749999,z,0.6507144590004827,None,,,,,,,,,,,yupa_th,240768,2025-07-24_14h14.36.955,MainFlow,2024.1.5,None,2025-07-24 14h14.57.238440 +0700,
1,76,1,word/wordth0761.png,image/True/img76.png,0,169,169,169,766.548762208,,,,,,,768.0488341250002,767.5324473749997,767.5558070830002,767.5558070830002,768.0367138330002,769.1642606249998,769.1642606249998,z,1.0525572080005077,None,767.5558070830002,,,,,,,,,,yupa_th,240768,2025-07-24_14h14.36.955,MainFlow,2024.1.5,None,2025-07-24 14h14.57.238440 +0700,
1,17,0,word/wordth0171.png,image/False/imgf17.png,0,170,170,170,770.2321805000001,,,,,,,771.732201625,771.2158637080001,771.2411827079995,771.2411827079995,771.7199417080001,772.852303916,772.852303916,z,0.9075265000001309,None,771.2411827079995,,,,,,,,,,yupa_th,240768,2025-07-24_14h14.36.955,MainFlow,2024.1.5,None,2025-07-24 14h14.57.238440 +0700,
1,95,1,word/wordth0951.png,image/True/img95.png,0,171,171,171,773.7738677500001,,,,,,,775.2655433330001,774.7533037080002,774.7766231249998,774.7766231249998,775.2538596249997,776.4004587500003,776.4004587500003,z,0.8328580829993371,None,,,,,,,,,,,yupa_th,240768,2025-07-24_14h14.36.955,MainFlow,2024.1.5,None,2025-07-24 14h14.57.238440 +0700,
1,61,0,word/wordth0611.png,image/False/imgf61.png,0,172,172,172,777.2485343749995,,,,,,,778.748682083,778.2325185,778.2575922079996,778.2575922079996,778.7372616249995,779.8731457080003,779.8731457080003,x,0.5837671250001222,None,778.2575922079996,,,,,,,,,,yupa_th,240768,2025-07-24_14h14.36.955,MainFlow,2024.1.5,None,2025-07-24 14h14.57.238440 +0700,
1,82,1,word/wordth0821.png,image/True/img82.png,0,173,173,173,780.4740257909998,,,,,,,781.9654155830003,781.4535904160002,781.4772600830001,781.4772600830001,781.9538124159999,783.0544413750004,783.0544413750004,z,0.8015261670007021,None,,,,,,,,,,,yupa_th,240768,2025-07-24_14h14.36.955,MainFlow,2024.1.5,None,2025-07-24 14h14.57.238440 +0700,
1,14,1,word/wordth0141.png,image/True/img14.png,0,174,174,174,783.8732221250002,,,,,,,785.3653854579998,784.8537092500001,784.8776325829995,784.8776325829995,785.3537561249996,786.4855906249995,786.4855906249995,z,0.682351583000127,None,,,,,,,,,,,yupa_th,240768,2025-07-24_14h14.36.955,MainFlow,2024.1.5,None,2025-07-24 14h14.57.238440 +0700,
1,38,0,word/wordth0381.png,image/False/imgf38.png,0,175,175,175,787.1820809159999,,,,,,,788.6819512080001,788.165788583,788.1908994160003,788.1908994160003,788.6698776659996,789.8221646249995,789.8221646249995,x,1.7691986250001719,None,788.1908994160003,,,,,,,,,,yupa_th,240768,2025-07-24_14h14.36.955,MainFlow,2024.1.5,None,2025-07-24 14h14.57.238440 +0700,
1,17,0,word/wordth0171.png,image/False/imgf17.png,0,176,176,176,791.6067105829998,,,,,,,793.0985719999999,792.58635925,792.6093091659995,792.6093091659995,793.0865472079995,794.2224444160001,794.2224444160001,z,0.6904335409999476,None,,,,,,,,,,,yupa_th,240768,2025-07-24_14h14.36.955,MainFlow,2024.1.5,None,2025-07-24 14h14.57.238440 +0700,
1,42,0,word/wordth0421.png,image/False/imgf42.png,0,177,177,177,794.9233419579996,,,,,,,796.4197309159999,795.9035464159997,795.9281184579995,795.9281184579995,796.415525458,797.5516974579996,797.5516974579996,x,0.920962457999849,None,,,,,,,,,,,yupa_th,240768,2025-07-24_14h14.36.955,MainFlow,2024.1.5,None,2025-07-24 14h14.57.238440 +0700,
1,24,1,word/wordth0241.png,image/True/img24.png,0,178,178,178,798.4905693749997,,,,,,,799.9819375830002,799.4695457079997,799.4935793750001,799.4935793750001,799.9702997499999,801.075011375,801.075011375,x,5.301744917000178,None,,,,,,,,,,,yupa_th,240768,2025-07-24_14h14.36.955,MainFlow,2024.1.5,None,2025-07-24 14h14.57.238440 +0700,
1,51,1,word/wordth0511.png,image/True/img51.png,0,179,179,179,806.3906198329996,,,,,,,807.8860162499996,807.3700205409996,807.39311275,807.39311275,807.8819686659999,809.0071924579997,809.0071924579997,z,0.6013010830001804,None,,,,,,,,,,,yupa_th,240768,2025-07-24_14h14.36.955,MainFlow,2024.1.5,None,2025-07-24 14h14.57.238440 +0700,
1,24,0,word/wordth0241.png,image/False/imgf24.png,0,180,180,180,809.623645791,,,,,,,811.1152456250002,810.6028966249996,810.6262178750003,810.6262178750003,811.1032595409997,812.2216254160003,812.2216254160003,x,4.506808041000113,None,,,,,,,,,,,yupa_th,240768,2025-07-24_14h14.36.955,MainFlow,2024.1.5,None,2025-07-24 14h14.57.238440 +0700,
1,23,0,word/wordth0231.png,image/False/imgf23.png,0,181,181,181,816.7399782909997,,,,,,,818.2319095410003,817.7201130410003,817.7437602499995,817.7437602499995,818.2202400409997,819.3874205829998,819.3874205829998,x,0.8449613329994463,None,819.3874205829998,,,,,,,,,,yupa_th,240768,2025-07-24_14h14.36.955,MainFlow,2024.1.5,None,2025-07-24 14h14.57.238440 +0700,
1,6,1,word/wordth0061.png,image/True/img06.png,0,182,182,182,820.248429708,,,,,,,821.7361625410003,821.2318600830004,821.2546051250001,821.2546051250001,821.7319950000001,822.8457990409997,822.8457990409997,z,2.370236959000067,None,821.2546051250001,,,,,,,,,,yupa_th,240768,2025-07-24_14h14.36.955,MainFlow,2024.1.5,None,2025-07-24 14h14.57.238440 +0700,
1,93,1,word/wordth0931.png,image/True/img93.png,0,183,183,183,825.2318642909995,,,,,,,826.7318100829998,826.2156530000002,826.2398295410003,826.2398295410003,826.7196703749996,827.8360762909997,827.8360762909997,z,1.1161812909995206,None,826.2398295410003,,,,,,,,,,yupa_th,240768,2025-07-24_14h14.36.955,MainFlow,2024.1.5,None,2025-07-24 14h14.57.238440 +0700,
1,38,0,word/wordth0381.png,image/False/imgf38.png,0,184,184,184,828.9651695410003,,,,,,,830.465260291,829.9487922500002,829.9725044159995,829.9725044159995,830.4529150409999,831.6059914999996,831.6059914999996,x,1.329839500000162,None,829.9725044159995,,,,,,,,,,yupa_th,240768,2025-07-24_14h14.36.955,MainFlow,2024.1.5,None,2025-07-24 14h14.57.238440 +0700,
1,57,1,word/wordth0571.png,image/True/img57.png,0,185,185,185,832.9484981659998,,,,,,,834.4483991249999,833.932195333,833.9566343750002,833.9566343750002,834.4360855409996,835.5709181249995,835.5709181249995,z,0.6690134590007801,None,833.9566343750002,,,,,,,,,,yupa_th,240768,2025-07-24_14h14.36.955,MainFlow,2024.1.5,None,2025-07-24 14h14.57.238440 +0700,
1,40,1,word/wordth0401.png,image/True/img40.png,0,186,186,186,836.2571945829995,,,,,,,837.7484516249997,837.2359981250002,837.2597974580003,837.2597974580003,837.7363043750001,838.8890574159996,838.8890574159996,z,1.1668136660000528,None,,,,,,,,,,,yupa_th,240768,2025-07-24_14h14.36.955,MainFlow,2024.1.5,None,2025-07-24 14h14.57.238440 +0700,
1,50,0,word/wordth0501.png,image/False/imgf50.png,0,187,187,187,840.0732790829998,,,,,,,841.5699154579997,841.0531837910003,841.0768598329996,841.0768598329996,841.5652781250001,842.6792619159996,842.6792619159996,x,0.8727049580002131,None,,,,,,,,,,,yupa_th,240768,2025-07-24_14h14.36.955,MainFlow,2024.1.5,None,2025-07-24 14h14.57.238440 +0700,
1,66,0,word/wordth0661.png,image/False/imgf66.png,0,188,188,188,843.5651362500003,,,,,,,845.0650015829997,844.548774375,844.5732349159998,844.5732349159998,845.0533599580003,846.18365275,846.18365275,x,1.232546917000036,None,844.5732349159998,,,,,,,,,,yupa_th,240768,2025-07-24_14h14.36.955,MainFlow,2024.1.5,None,2025-07-24 14h14.57.238440 +0700,
1,44,0,word/wordth0441.png,image/False/imgf44.png,0,189,189,189,847.431816583,,,,,,,848.9316897910003,848.4154970829995,848.4395679999998,848.4395679999998,848.9195070830001,850.0637321249997,850.0637321249997,x,0.9612630420006099,None,848.4395679999998,,,,,,,,,,yupa_th,240768,2025-07-24_14h14.36.955,MainFlow,2024.1.5,None,2025-07-24 14h14.57.238440 +0700,
1,75,0,word/wordth0751.png,image/False/imgf75.png,0,190,190,190,851.039953208,,,,,,,852.5358249999999,852.0195696660003,852.0431379579995,852.0431379579995,852.5316896659997,853.6481829579998,853.6481829579998,x,0.8881814160004069,None,,,,,,,,,,,yupa_th,240768,2025-07-24_14h14.36.955,MainFlow,2024.1.5,None,2025-07-24 14h14.57.238440 +0700,
1,31,0,word/wordth0311.png,image/False/imgf31.png,0,191,191,191,854.5482262079995,,,,,,,856.048382125,855.5319903330001,855.5559720000001,855.5559720000001,856.0360888329997,857.1341589579997,857.1341589579997,x,7.265900290999525,None,855.5559720000001,,,,,,,,,,yupa_th,240768,2025-07-24_14h14.36.955,MainFlow,2024.1.5,None,2025-07-24 14h14.57.238440 +0700,
1,87,1,word/wordth0871.png,image/True/img87.png,0,192,192,192,864.4148617499995,,,,,,,865.9149644580002,865.3986004580001,865.4230138749999,865.4230138749999,865.9029365409997,867.0373505830003,867.0373505830003,z,0.9151905419994364,None,865.4230138749999,,,,,,,,,,yupa_th,240768,2025-07-24_14h14.36.955,MainFlow,2024.1.5,None,2025-07-24 14h14.57.238440 +0700,
1,33,1,word/wordth0331.png,image/True/img33.png,0,193,193,193,867.9650085829999,,,,,,,869.4648370409996,868.9486972080003,868.9733093750001,868.9733093750001,869.4528121249996,870.5819521249996,870.5819521249996,z,0.6736801249999189,None,868.9733093750001,,,,,,,,,,yupa_th,240768,2025-07-24_14h14.36.955,MainFlow,2024.1.5,None,2025-07-24 14h14.57.238440 +0700,
1,70,0,word/wordth0701.png,image/False/imgf70.png,0,194,194,194,871.2730012499997,,,,,,,872.7691484999996,872.2532209159999,872.2783284159996,872.2783284159996,872.7649739999997,873.8820378330001,873.8820378330001,x,2.502094374999615,None,,,,,,,,,,,yupa_th,240768,2025-07-24_14h14.36.955,MainFlow,2024.1.5,None,2025-07-24 14h14.57.238440 +0700,
1,27,1,word/wordth0271.png,image/True/img27.png,0,195,195,195,876.3981047500001,,,,,,,877.8983045409996,877.381944791,877.4065210409999,877.4065210409999,877.8859626249996,879.0051649159996,879.0051649159996,z,0.6512298750003538,None,877.4065210409999,,,,,,,,,,yupa_th,240768,2025-07-24_14h14.36.955,MainFlow,2024.1.5,None,2025-07-24 14h14.57.238440 +0700,
1,88,1,word/wordth0881.png,image/True/img88.png,0,196,196,196,879.67305725,,,,,,,881.1691778329996,880.6532160830002,880.6769487499996,880.6769487499996,881.1649028749998,882.295128666,882.295128666,z,0.5704670840004837,None,,,,,,,,,,,yupa_th,240768,2025-07-24_14h14.36.955,MainFlow,2024.1.5,None,2025-07-24 14h14.57.238440 +0700,
1,87,0,word/wordth0871.png,image/False/imgf87.png,0,197,197,197,882.8814952080002,,,,,,,884.3816009579996,883.865198208,883.8902906659996,883.8902906659996,884.3692651250003,885.4889149999999,885.4889149999999,x,0.9918544169995585,None,883.8902906659996,,,,,,,,,,yupa_th,240768,2025-07-24_14h14.36.955,MainFlow,2024.1.5,None,2025-07-24 14h14.57.238440 +0700,
1,11,1,word/wordth0111.png,image/True/img11.png,0,198,198,198,886.4901220410002,,,,,,,887.9855870410001,887.4698119160003,887.4931453749996,887.4931453749996,887.9815283329999,889.1222428330002,889.1222428330002,z,1.1976357080002344,None,,,,,,,,,,,yupa_th,240768,2025-07-24_14h14.36.955,MainFlow,2024.1.5,None,2025-07-24 14h14.57.238440 +0700,
1,61,0,word/wordth0611.png,image/False/imgf61.png,0,199,199,199,890.3364964579996,,,,,,,891.8315019579995,891.3151702079995,891.3406798750002,891.3406798750002,891.8194736249998,892.9549754580003,892.9549754580003,x,1.0052392090001376,None,,,,,,,,,,,yupa_th,240768,2025-07-24_14h14.36.955,MainFlow,2024.1.5,None,2025-07-24 14h14.57.238440 +0700,
1,15,1,word/wordth0151.png,image/True/img15.png,0,200,200,200,893.9733085409998,,,,,,,895.4648482080001,894.9525590000003,894.9755838749998,894.9755838749998,895.4530582910002,896.5965067079997,896.5965067079997,z,2.9882435420004185,None,,,,,,,,,,,yupa_th,240768,2025-07-24_14h14.36.955,MainFlow,2024.1.5,None,2025-07-24 14h14.57.238440 +0700,
1,16,0,word/wordth0161.png,image/False/imgf16.png,0,201,201,201,899.5980605409995,,,,,,,901.0980448330001,900.5816601249999,900.6052856249999,900.6052856249999,901.0859349579996,902.2233233750003,902.2233233750003,x,1.0898050000005242,None,900.6052856249999,,,,,,,,,,yupa_th,240768,2025-07-24_14h14.36.955,MainFlow,2024.1.5,None,2025-07-24 14h14.57.238440 +0700,
1,63,0,word/wordth0631.png,image/False/imgf63.png,0,202,202,202,903.3228602079998,,,,,,,904.8189858329997,904.3030112910001,904.3279105000001,904.3279105000001,904.8148037499996,905.9473929160004,905.9473929160004,x,5.16619004200038,None,,,,,,,,,,,yupa_th,240768,2025-07-24_14h14.36.955,MainFlow,2024.1.5,None,2025-07-24 14h14.57.238440 +0700,
1,28,1,word/wordth0281.png,image/True/img28.png,0,203,203,203,911.1231973329996,,,,,,,912.6193174580003,912.1029815410002,912.1271254160001,912.1271254160001,912.6146585409997,913.7539458749998,913.7539458749998,z,0.854243249999854,None,,,,,,,,,,,yupa_th,240768,2025-07-24_14h14.36.955,MainFlow,2024.1.5,None,2025-07-24 14h14.57.238440 +0700,
1,89,1,word/wordth0891.png,image/True/img89.png,0,204,204,204,914.6227577500003,,,,,,,916.119037208,915.6029552079999,915.6276177909995,915.6276177909995,916.1147355410003,917.2192509159995,917.2192509159995,z,0.5733454999999594,None,,,,,,,,,,,yupa_th,240768,2025-07-24_14h14.36.955,MainFlow,2024.1.5,None,2025-07-24 14h14.57.238440 +0700,
1,76,0,word/wordth0761.png,image/False/imgf76.png,0,205,205,205,917.8064895830003,,,,,,,919.2979065829995,918.7857199999999,918.8109693329998,918.8109693329998,919.2862929579996,920.4334859580003,920.4334859580003,x,0.8231279169995105,None,,,,,,,,,,,yupa_th,240768,2025-07-24_14h14.36.955,MainFlow,2024.1.5,None,2025-07-24 14h14.57.238440 +0700,
1,51,0,word/wordth0511.png,image/False/imgf51.png,0,206,206,206,921.2733019999996,,,,,,,922.7690071659999,922.2525863330002,922.276602291,922.276602291,922.7647821250002,923.8736208330001,923.8736208330001,x,0.8137374580001051,None,,,,,,,,,,,yupa_th,240768,2025-07-24_14h14.36.955,MainFlow,2024.1.5,None,2025-07-24 14h14.57.238440 +0700,
1,26,0,word/wordth0261.png,image/False/imgf26.png,0,207,207,207,924.7034753329999,,,,,,,926.2026182079999,925.6862329160003,925.7109178749997,925.7109178749997,926.1980193749996,927.3331977079997,927.3331977079997,x,0.7641237919997366,None,925.7109178749997,,,,,,,,,,yupa_th,240768,2025-07-24_14h14.36.955,MainFlow,2024.1.5,None,2025-07-24 14h14.57.238440 +0700,
1,16,1,word/wordth0161.png,image/True/img16.png,0,208,208,208,928.1064417500002,,,,,,,929.5980275829997,929.0855748329996,929.1089220409995,929.1089220409995,929.5861213329999,930.7355386660001,930.7355386660001,z,1.0975640410006235,None,,,,,,,,,,,yupa_th,240768,2025-07-24_14h14.36.955,MainFlow,2024.1.5,None,2025-07-24 14h14.57.238440 +0700,
1,64,1,word/wordth0641.png,image/True/img64.png,0,209,209,209,931.847998708,,,,,,,933.3478891249997,932.8314225409995,932.8555037079996,932.8555037079996,933.3363046659997,934.4435498330004,934.4435498330004,z,0.6604124579998825,None,932.8555037079996,,,,,,,,,,yupa_th,240768,2025-07-24_14h14.36.955,MainFlow,2024.1.5,None,2025-07-24 14h14.57.238440 +0700,
1,7,1,word/wordth0071.png,image/True/img07.png,0,210,210,210,935.1205722499999,,,,,,,936.6187787910003,936.1027530410001,936.126794625,936.126794625,936.6145504579999,937.7443196249997,937.7443196249997,z,3.03171008299978,None,,,,,,,,,,,yupa_th,240768,2025-07-24_14h14.36.955,MainFlow,2024.1.5,None,2025-07-24 14h14.57.238440 +0700,
1,10,0,word/wordth0101.png,image/False/imgf10.png,0,211,211,211,940.7899195829996,,,,,,,942.285540291,941.768913166,941.7923524999997,941.7923524999997,942.2813582500003,943.3997213330003,943.3997213330003,x,1.0164603749999515,None,,,,,,,,,,,yupa_th,240768,2025-07-24_14h14.36.955,MainFlow,2024.1.5,None,2025-07-24 14h14.57.238440 +0700,
1,22,1,word/wordth0221.png,image/True/img22.png,0,212,212,212,944.430731208,,,,,,,945.9312592079996,945.4148494579995,945.4400963749995,945.4400963749995,945.918995,947.0726986660002,947.0726986660002,z,4.599092957999346,None,945.4400963749995,,,,,,,,,,yupa_th,240768,2025-07-24_14h14.36.955,MainFlow,2024.1.5,None,2025-07-24 14h14.57.238440 +0700,
1,40,1,word/wordth0401.png,image/True/img40.png,0,213,213,213,951.6896147910002,,,,,,,953.1854592079999,952.6691647500002,952.6927577079996,952.6927577079996,953.1812807910001,954.3228099159996,954.3228099159996,z,0.6130575830002272,None,,,,,,,,,,,yupa_th,240768,2025-07-24_14h14.36.955,MainFlow,2024.1.5,None,2025-07-24 14h14.57.238440 +0700,
1,57,0,word/wordth0571.png,image/False/imgf57.png,0,214,214,214,954.9478824159996,,,,,,,956.4477725409997,955.9316507909998,955.9560045830003,955.9560045830003,956.4356470829998,957.5704961660003,957.5704961660003,x,0.7745652090006843,None,955.9560045830003,,,,,,,,,,yupa_th,240768,2025-07-24_14h14.36.955,MainFlow,2024.1.5,None,2025-07-24 14h14.57.238440 +0700,
1,50,1,word/wordth0501.png,image/True/img50.png,0,215,215,215,958.3563026250004,,,,,,,959.8479206659995,959.335444583,959.3593705000003,959.3593705000003,959.8355287080003,960.967413458,960.967413458,z,0.7142622499995923,None,,,,,,,,,,,yupa_th,240768,2025-07-24_14h14.36.955,MainFlow,2024.1.5,None,2025-07-24 14h14.57.238440 +0700,
1,64,0,word/wordth0641.png,image/False/imgf64.png,0,216,216,216,961.6977295409997,,,,,,,963.1976977499999,962.6815074999995,962.7048541249997,962.7048541249997,963.1857019159997,964.2870787080001,964.2870787080001,x,0.8489865410001585,None,962.7048541249997,,,,,,,,,,yupa_th,240768,2025-07-24_14h14.36.955,MainFlow,2024.1.5,None,2025-07-24 14h14.57.238440 +0700,
1,42,1,word/wordth0421.png,image/True/img42.png,0,217,217,217,965.1467299579999,,,,,,,966.6476549999998,966.1315469579995,966.1573245,966.1573245,966.635574416,967.7671047909998,967.7671047909998,z,2.3047682090000308,None,966.1573245,,,,,,,,,,yupa_th,240768,2025-07-24_14h14.36.955,MainFlow,2024.1.5,None,2025-07-24 14h14.57.238440 +0700,
1,56,0,word/wordth0561.png,image/False/imgf56.png,0,218,218,218,970.0892335830004,,,,,,,971.5810623329999,971.068476083,971.0931407910002,971.0931407910002,971.568783916,972.7222764159997,972.7222764159997,x,1.0457975839999563,None,,,,,,,,,,,yupa_th,240768,2025-07-24_14h14.36.955,MainFlow,2024.1.5,None,2025-07-24 14h14.57.238440 +0700,
1,22,1,word/wordth0221.png,image/True/img22.png,0,219,219,219,973.7810770409997,,,,,,,975.2811694579996,974.7647605000002,974.7895605829999,974.7895605829999,975.2690632909998,976.4235003329995,976.4235003329995,z,1.1282277500004056,None,974.7895605829999,,,,,,,,,,yupa_th,240768,2025-07-24_14h14.36.955,MainFlow,2024.1.5,None,2025-07-24 14h14.57.238440 +0700,
1,82,0,word/wordth0821.png,image/False/imgf82.png,0,220,220,220,977.564126583,,,,,,,979.064299875,978.5481261659997,978.5729326250002,978.5729326250002,979.0521819160003,980.1752569999999,980.1752569999999,x,4.680845957999736,None,978.5729326250002,,,,,,,,,,yupa_th,240768,2025-07-24_14h14.36.955,MainFlow,2024.1.5,None,2025-07-24 14h14.57.238440 +0700,
1,54,1,word/wordth0541.png,image/True/img54.png,0,221,221,221,984.872236833,,,,,,,986.3684894999997,985.8525335409995,985.8764075409999,985.8764075409999,986.3643221249995,987.4995902499995,987.4995902499995,z,0.9410748750005951,None,,,,,,,,,,,yupa_th,240768,2025-07-24_14h14.36.955,MainFlow,2024.1.5,None,2025-07-24 14h14.57.238440 +0700,
1,55,0,word/wordth0551.png,image/False/imgf55.png,0,222,222,222,988.4553043329997,,,,,,,989.9476235410002,989.4353582909998,989.4596687909998,989.4596687909998,989.9355531660003,991.0641432080001,991.0641432080001,x,1.3125249169997915,None,,,,,,,,,,,yupa_th,240768,2025-07-24_14h14.36.955,MainFlow,2024.1.5,None,2025-07-24 14h14.57.238440 +0700,
1,48,1,word/wordth0481.png,image/True/img48.png,0,223,223,223,992.3892853329999,,,,,,,993.8851299999997,993.3688698750002,993.3926690409999,993.3926690409999,993.8809487500002,995.0082025410002,995.0082025410002,x,7.75264233300004,None,,,,,,,,,,,yupa_th,240768,2025-07-24_14h14.36.955,MainFlow,2024.1.5,None,2025-07-24 14h14.57.238440 +0700,
1,44,1,word/wordth0441.png,image/True/img44.png,0,224,224,224,1002.7726104160001,,,,,,,1004.2642195830003,1003.7518028750001,1003.7756232909996,1003.7756232909996,1004.252431166,1005.3737555409998,1005.3737555409998,z,0.8340564579993952,None,,,,,,,,,,,yupa_th,240768,2025-07-24_14h14.36.955,MainFlow,2024.1.5,None,2025-07-24 14h14.57.238440 +0700,
1,87,0,word/wordth0871.png,image/False/imgf87.png,0,225,225,225,1006.2228156660003,,,,,,,1007.7182720829996,1007.2022664159995,1007.2264291660003,1007.2264291660003,1007.7142296659995,1008.8254194579995,1008.8254194579995,x,0.774626750000607,None,,,,,,,,,,,yupa_th,240768,2025-07-24_14h14.36.955,MainFlow,2024.1.5,None,2025-07-24 14h14.57.238440 +0700,
1,70,1,word/wordth0701.png,image/True/img70.png,0,226,226,226,1009.6140424579999,,,,,,,1011.1141311660003,1010.5979827909996,1010.6232794580001,1010.6232794580001,1011.1022043329995,1012.2325339159997,1012.2325339159997,z,0.8390062079997733,None,1010.6232794580001,,,,,,,,,,yupa_th,240768,2025-07-24_14h14.36.955,MainFlow,2024.1.5,None,2025-07-24 14h14.57.238440 +0700,
1,33,0,word/wordth0331.png,image/False/imgf33.png,0,227,227,227,1013.088763625,,,,,,,1014.5804319580002,1014.0685302080001,1014.0927605830002,1014.0927605830002,1014.5690184579998,1015.7056377910003,1015.7056377910003,x,4.526257208000061,None,,,,,,,,,,,yupa_th,240768,2025-07-24_14h14.36.955,MainFlow,2024.1.5,None,2025-07-24 14h14.57.238440 +0700,
1,52,1,word/wordth0521.png,image/True/img52.png,0,228,228,228,1020.2475171249998,,,,,,,1021.7475075829998,1021.2311191250001,1021.2548434999999,1021.2548434999999,1021.7352767080001,1022.869643041,1022.869643041,z,1.050248124999598,None,1021.2548434999999,,,,,,,,,,yupa_th,240768,2025-07-24_14h14.36.955,MainFlow,2024.1.5,None,2025-07-24 14h14.57.238440 +0700,
1,59,1,word/wordth0591.png,image/True/img59.png,0,229,229,229,1023.9366412500003,,,,,,,1025.4306484580002,1024.9189076659995,1024.94346175,1024.94346175,1025.419228541,1026.5310811660001,1026.5310811660001,z,0.7659788330001902,None,,,,,,,,,,,yupa_th,240768,2025-07-24_14h14.36.955,MainFlow,2024.1.5,None,2025-07-24 14h14.57.238440 +0700,
1,56,0,word/wordth0561.png,image/False/imgf56.png,0,230,230,230,1027.3060208329998,,,,,,,1028.7972357079998,1028.2856920409995,1028.309242458,1028.309242458,1028.7858126250003,1029.938714166,1029.938714166,x,0.8932472909991702,None,,,,,,,,,,,yupa_th,240768,2025-07-24_14h14.36.955,MainFlow,2024.1.5,None,2025-07-24 14h14.57.238440 +0700,
1,79,1,word/wordth0791.png,image/True/img79.png,0,231,231,231,1030.8473012499999,,,,,,,1032.3472885,1031.8311144159998,1031.8563547499998,1031.8563547499998,1032.335207041,1033.4617994580003,1033.4617994580003,z,0.8899654169999849,None,1031.8563547499998,,,,,,,,,,yupa_th,240768,2025-07-24_14h14.36.955,MainFlow,2024.1.5,None,2025-07-24 14h14.57.238440 +0700,
1,96,1,word/wordth0961.png,image/True/img96.png,0,232,232,232,1034.364062916,,,,,,,1035.8639863749995,1035.3477648749995,1035.373997625,1035.373997625,1035.8523502910002,1036.9831480410003,1036.9831480410003,z,0.7522161250008139,None,1035.373997625,,,,,,,,,,yupa_th,240768,2025-07-24_14h14.36.955,MainFlow,2024.1.5,None,2025-07-24 14h14.57.238440 +0700,
1,88,0,word/wordth0881.png,image/False/imgf88.png,0,233,233,233,1037.7473168329998,,,,,,,1039.2472207909996,1038.7309655829995,1038.7549348330003,1038.7549348330003,1039.2351235409997,1040.3604854160003,1040.3604854160003,x,0.7676317499999641,None,1038.7549348330003,,,,,,,,,,yupa_th,240768,2025-07-24_14h14.36.955,MainFlow,2024.1.5,None,2025-07-24 14h14.57.238440 +0700,
1,96,0,word/wordth0961.png,image/False/imgf96.png,0,234,234,234,1041.1391511659995,,,,,,,1042.6355624159996,1042.118981791,1042.143246916,1042.143246916,1042.6308691659997,1043.7546539579998,1043.7546539579998,x,1.0133723330000066,None,,,,,,,,,,,yupa_th,240768,2025-07-24_14h14.36.955,MainFlow,2024.1.5,None,2025-07-24 14h14.57.238440 +0700,
1,88,1,word/wordth0881.png,image/True/img88.png,0,235,235,235,1044.7806865000002,,,,,,,1046.2805770409996,1045.7642274580003,1045.7876340829998,1045.7876340829998,1046.2685083329998,1047.405247916,1047.405247916,z,0.6021072499997899,None,1045.7876340829998,,,,,,,,,,yupa_th,240768,2025-07-24_14h14.36.955,MainFlow,2024.1.5,None,2025-07-24 14h14.57.238440 +0700,
1,70,0,word/wordth0701.png,image/False/imgf70.png,0,236,236,236,1048.0226592079998,,,,,,,1049.5139066659995,1049.001670791,1049.0249852910001,1049.0249852910001,1049.501781041,1050.6307378330002,1050.6307378330002,x,1.0568577499998355,None,,,,,,,,,,,yupa_th,240768,2025-07-24_14h14.36.955,MainFlow,2024.1.5,None,2025-07-24 14h14.57.238440 +0700,
1,71,1,word/wordth0711.png,image/True/img71.png,0,237,237,237,1051.7056684159998,,,,,,,1053.1972958750002,1052.68521075,1052.7091300000002,1052.7091300000002,1053.185751375,1054.32389125,1054.32389125,z,1.6118645830001697,None,1054.32389125,,,,,,,,,,yupa_th,240768,2025-07-24_14h14.36.955,MainFlow,2024.1.5,None,2025-07-24 14h14.57.238440 +0700,
1,94,0,word/wordth0941.png,image/False/imgf94.png,0,238,238,238,1055.9499529160003,,,,,,,1057.4345462499996,1056.9301230829997,1056.9452811250003,1056.9452811250003,1057.4302051249997,1058.5815130829997,1058.5815130829997,x,0.8909376250003334,None,,1057.4345462499996,1057.4345462499996,,,,,,,,yupa_th,240768,2025-07-24_14h14.36.955,MainFlow,2024.1.5,None,2025-07-24 14h14.57.238440 +0700,
1,17,1,word/wordth0171.png,image/True/img17.png,0,239,239,239,1059.4889719579996,,,,,,,1060.985354083,1060.4686510410002,1060.4926366250002,1060.4926366250002,1060.980727833,1062.0972132079996,1062.0972132079996,z,1.9271625000001222,None,,,,,,,,,,,yupa_th,240768,2025-07-24_14h14.36.955,MainFlow,2024.1.5,None,2025-07-24 14h14.57.238440 +0700,
,,,,,,,,,,,,,,,,,,,,,,,,,,,,,1064.0319630000004,1064.0387644579996,1064.0387644579996,1071.5149369580004,space,7.474319124999965,None,yupa_th,240768,2025-07-24_14h14.36.955,MainFlow,2024.1.5,None,2025-07-24 14h14.57.238440 +0700,
