lang,wordid,truestate,worddir,imgdir,trials.thisRepN,trials.thisTrialN,trials.thisN,trials.thisIndex,thisRow.t,notes,tutorial.started,tutorial.stopped,key_instruct.keys,key_instruct.rt,key_instruct.duration,plusblank.started,wordshow.started,image.started,plsuer.started,wordshow.stopped,imageword.started,key_resp.started,key_resp.keys,key_resp.rt,key_resp.duration,plusblank.stopped,image.stopped,plsuer.stopped,ending.started,text_3.started,ending_key.started,ending.stopped,ending_key.keys,ending_key.rt,ending_key.duration,participant,session,date,expName,psychopyVersion,frameRate,expStart,
,,,,,,,,,,,0.004316457999721024,13.027658291999614,space,12.976570165999874,None,,,,,,,,,,,,,,,,,,,,,yupa_en_2,240768,2025-07-24_13h51.05.880,MainFlow,2024.1.5,None,2025-07-24 13h51.23.444114 +0700,
2,87,0,word/worden0871.png,image/False/imgf87.png,0,0,0,0,13.087655124999856,,,,,,,14.535964166999747,14.01979187500001,14.057321207999848,14.057321207999848,14.523987957999907,15.656383624999762,15.656383624999762,x,26.002199957999892,None,,,,,,,,,,,yupa_en_2,240768,2025-07-24_13h51.05.880,MainFlow,2024.1.5,None,2025-07-24 13h51.23.444114 +0700,
2,93,0,word/worden0931.png,image/False/imgf93.png,0,1,1,1,41.67513333299985,,,,,,,43.169096957999955,42.65691737499992,42.681162332999975,42.681162332999975,43.156964374999916,44.27889349999987,44.27889349999987,x,7.331810125000175,None,,,,,,,,,,,yupa_en_2,240768,2025-07-24_13h51.05.880,MainFlow,2024.1.5,None,2025-07-24 13h51.23.444114 +0700,
2,23,0,word/worden0231.png,image/False/imgf23.png,0,2,2,2,51.627741625,,,,,,,53.123449791999974,52.607231125,52.63217733299962,52.63217733299962,53.11920908299999,54.262649582999984,54.262649582999984,x,8.795945333999953,None,,,,,,,,,,,yupa_en_2,240768,2025-07-24_13h51.05.880,MainFlow,2024.1.5,None,2025-07-24 13h51.23.444114 +0700,
2,10,1,word/worden0101.png,image/True/img10.png,0,3,3,3,63.07445579199975,,,,,,,64.56910616699997,64.05687158299997,64.08064958299974,64.08064958299974,64.55704141699971,65.68002316699994,65.68002316699994,z,1.1621442500004378,None,,,,,,,,,,,yupa_en_2,240768,2025-07-24_13h51.05.880,MainFlow,2024.1.5,None,2025-07-24 13h51.23.444114 +0700,
2,50,0,word/worden0501.png,image/False/imgf50.png,0,4,4,4,66.85787541699983,,,,,,,68.35651116700001,67.840551667,67.8649336669996,67.8649336669996,68.35242912499962,69.46536712499983,69.46536712499983,x,8.617594332999943,None,67.8649336669996,,,,,,,,,,yupa_en_2,240768,2025-07-24_13h51.05.880,MainFlow,2024.1.5,None,2025-07-24 13h51.23.444114 +0700,
2,33,1,word/worden0331.png,image/True/img33.png,0,5,5,5,78.09402320799973,,,,,,,79.58574795799996,79.07336054199959,79.09706274999962,79.09706274999962,79.57372604199963,80.70616466699994,80.70616466699994,z,2.824701666999772,None,,,,,,,,,,,yupa_en_2,240768,2025-07-24_13h51.05.880,MainFlow,2024.1.5,None,2025-07-24 13h51.23.444114 +0700,
2,95,0,word/worden0951.png,image/False/imgf95.png,0,6,6,6,83.54378474999976,,,,,,,85.03564720799977,84.5233240829998,84.54832833299997,84.54832833299997,85.02359516699971,86.16259512499983,86.16259512499983,x,8.360678582999753,None,,,,,,,,,,,yupa_en_2,240768,2025-07-24_13h51.05.880,MainFlow,2024.1.5,None,2025-07-24 13h51.23.444114 +0700,
2,7,0,word/worden0071.png,image/False/imgf07.png,0,7,7,7,94.5346844579999,,,,,,,96.03552354199974,95.51927262499976,95.54364850000002,95.54364850000002,96.02342762499984,97.15027433299974,97.15027433299974,x,4.036453583999901,None,95.54364850000002,,,,,,,,,,yupa_en_2,240768,2025-07-24_13h51.05.880,MainFlow,2024.1.5,None,2025-07-24 13h51.23.444114 +0700,
2,28,1,word/worden0281.png,image/True/img28.png,0,8,8,8,101.20196737499964,,,,,,,102.70213504200001,102.1860194169999,102.21056741699977,102.21056741699977,102.6900825419998,103.83603091699979,103.83603091699979,z,2.078514667000036,None,102.21056741699977,,,,,,,,,,yupa_en_2,240768,2025-07-24_13h51.05.880,MainFlow,2024.1.5,None,2025-07-24 13h51.23.444114 +0700,
2,38,1,word/worden0381.png,image/True/img38.png,0,9,9,9,105.92731016699963,,,,,,,107.4229479999999,106.90710170800003,106.93165091699984,106.93165091699984,107.41880912499983,108.54370216699999,108.54370216699999,z,2.7232823749995987,None,,,,,,,,,,,yupa_en_2,240768,2025-07-24_13h51.05.880,MainFlow,2024.1.5,None,2025-07-24 13h51.23.444114 +0700,
2,33,0,word/worden0331.png,image/False/imgf33.png,0,10,10,10,111.27695645799986,,,,,,,112.77303629199969,112.25729158299964,112.28154295799959,112.28154295799959,112.76883791699993,113.89405291699995,113.89405291699995,x,3.644106374999865,None,,,,,,,,,,,yupa_en_2,240768,2025-07-24_13h51.05.880,MainFlow,2024.1.5,None,2025-07-24 13h51.23.444114 +0700,
2,76,1,word/worden0761.png,image/True/img76.png,0,11,11,11,117.55215820800004,,,,,,,119.03969387500001,118.52375554199989,118.54813483299995,118.54813483299995,119.03547349999963,120.1548567079999,120.1548567079999,z,4.4645324170001,None,,,,,,,,,,,yupa_en_2,240768,2025-07-24_13h51.05.880,MainFlow,2024.1.5,None,2025-07-24 13h51.23.444114 +0700,
2,75,0,word/worden0751.png,image/False/imgf75.png,0,12,12,12,124.63532554199992,,,,,,,126.13535116699995,125.61892362499975,125.64306229199974,125.64306229199974,126.12328170799992,127.25204704199996,127.25204704199996,x,7.742628083,None,125.64306229199974,,,,,,,,,,yupa_en_2,240768,2025-07-24_13h51.05.880,MainFlow,2024.1.5,None,2025-07-24 13h51.23.444114 +0700,
2,7,1,word/worden0071.png,image/True/img07.png,0,13,13,13,135.01028174999965,,,,,,,136.5061808329997,135.98984466699994,136.01395349999984,136.01395349999984,136.50198191699974,137.63176270799977,137.63176270799977,z,2.3311456250003175,None,,,,,,,,,,,yupa_en_2,240768,2025-07-24_13h51.05.880,MainFlow,2024.1.5,None,2025-07-24 13h51.23.444114 +0700,
2,51,1,word/worden0511.png,image/True/img51.png,0,14,14,14,139.9769441249996,,,,,,,141.4727939999998,140.95686595799998,140.98039345799998,140.98039345799998,141.46866454199971,142.59406154199996,142.59406154199996,z,4.545104791000085,None,,,,,,,,,,,yupa_en_2,240768,2025-07-24_13h51.05.880,MainFlow,2024.1.5,None,2025-07-24 13h51.23.444114 +0700,
2,59,0,word/worden0591.png,image/False/imgf59.png,0,15,15,15,147.15197012499993,,,,,,,148.65194954199978,148.13565612499997,148.1604669999997,148.1604669999997,148.63970549999976,149.74445716699984,149.74445716699984,x,2.6580845829998907,None,148.1604669999997,,,,,,,,,,yupa_en_2,240768,2025-07-24_13h51.05.880,MainFlow,2024.1.5,None,2025-07-24 13h51.23.444114 +0700,
2,54,0,word/worden0541.png,image/False/imgf54.png,0,16,16,16,152.41847674999963,,,,,,,153.91857416699986,153.4020868749999,153.42540466699984,153.42540466699984,153.9064328329996,155.03477504199964,155.03477504199964,x,5.823124084000028,None,153.42540466699984,,,,,,,,,,yupa_en_2,240768,2025-07-24_13h51.05.880,MainFlow,2024.1.5,None,2025-07-24 13h51.23.444114 +0700,
2,6,1,word/worden0061.png,image/True/img06.png,0,17,17,17,160.8739546669999,,,,,,,162.36864691699975,161.85620308299985,161.88021895799966,161.88021895799966,162.3562821669998,163.4692807079996,163.4692807079996,z,1.3089017500001319,None,,,,,,,,,,,yupa_en_2,240768,2025-07-24_13h51.05.880,MainFlow,2024.1.5,None,2025-07-24 13h51.23.444114 +0700,
2,41,1,word/worden0411.png,image/True/img41.png,0,18,18,18,164.79366008299985,,,,,,,166.28506712499984,165.77335449999964,165.796649333,165.796649333,166.2734251249999,167.4114728329996,167.4114728329996,x,6.926794500000142,None,,,,,,,,,,,yupa_en_2,240768,2025-07-24_13h51.05.880,MainFlow,2024.1.5,None,2025-07-24 13h51.23.444114 +0700,
2,42,0,word/worden0421.png,image/False/imgf42.png,0,19,19,19,174.35189241699982,,,,,,,175.85177562499985,175.33545741699982,175.35857370799977,175.35857370799977,175.8401322919999,176.97956258299973,176.97956258299973,x,2.230598541999825,None,175.35857370799977,,,,,,,,,,yupa_en_2,240768,2025-07-24_13h51.05.880,MainFlow,2024.1.5,None,2025-07-24 13h51.23.444114 +0700,
2,64,0,word/worden0641.png,image/False/imgf64.png,0,20,20,20,179.22682662499983,,,,,,,180.72317333299998,180.2065135419998,180.23043208299987,180.23043208299987,180.7185218329996,181.8084867499997,181.8084867499997,x,2.5297281670000302,None,,,,,,,,,,,yupa_en_2,240768,2025-07-24_13h51.05.880,MainFlow,2024.1.5,None,2025-07-24 13h51.23.444114 +0700,
2,96,1,word/worden0961.png,image/True/img96.png,0,21,21,21,184.35165166699971,,,,,,,185.85168270799977,185.33553024999992,185.3597878749997,185.3597878749997,185.83957504199998,186.97059991699962,186.97059991699962,z,8.624681291999877,None,185.3597878749997,,,,,,,,,,yupa_en_2,240768,2025-07-24_13h51.05.880,MainFlow,2024.1.5,None,2025-07-24 13h51.23.444114 +0700,
2,76,0,word/worden0761.png,image/False/imgf76.png,0,22,22,22,195.61008383299986,,,,,,,197.10154245800004,196.5893488329998,196.61359249999987,196.61359249999987,197.08944112499967,198.23703558299985,198.23703558299985,x,3.2210962919998565,None,,,,,,,,,,,yupa_en_2,240768,2025-07-24_13h51.05.880,MainFlow,2024.1.5,None,2025-07-24 13h51.23.444114 +0700,
2,17,1,word/worden0171.png,image/True/img17.png,0,23,23,23,201.47680883299972,,,,,,,202.96835645800002,202.45638299999973,202.4803849169998,202.4803849169998,202.95648841699995,204.0852373329999,204.0852373329999,z,3.3403956659999494,None,,,,,,,,,,,yupa_en_2,240768,2025-07-24_13h51.05.880,MainFlow,2024.1.5,None,2025-07-24 13h51.23.444114 +0700,
2,6,1,word/worden0061.png,image/True/img06.png,0,24,24,24,207.4434676249998,,,,,,,208.9394065419997,208.42269704199998,208.44575795799983,208.44575795799983,208.9347349169998,210.03558466699997,210.03558466699997,z,4.9346104999999625,None,,,,,,,,,,,yupa_en_2,240768,2025-07-24_13h51.05.880,MainFlow,2024.1.5,None,2025-07-24 13h51.23.444114 +0700,
2,88,1,word/worden0881.png,image/True/img88.png,0,25,25,25,214.98485649999975,,,,,,,216.484915042,215.96853979199977,215.9934704999996,215.9934704999996,216.4726623329998,217.60794929199983,217.60794929199983,z,1.1622768749998613,None,215.9934704999996,,,,,,,,,,yupa_en_2,240768,2025-07-24_13h51.05.880,MainFlow,2024.1.5,None,2025-07-24 13h51.23.444114 +0700,
2,44,1,word/worden0441.png,image/True/img44.png,0,26,26,26,218.78488529199967,,,,,,,220.28488195799991,219.76855695799986,219.79452808299993,219.79452808299993,220.273015708,221.3918165,221.3918165,z,2.0501822500000344,None,219.79452808299993,,,,,,,,,,yupa_en_2,240768,2025-07-24_13h51.05.880,MainFlow,2024.1.5,None,2025-07-24 13h51.23.444114 +0700,
2,27,0,word/worden0271.png,image/False/imgf27.png,0,27,27,27,223.4601658329998,,,,,,,224.9557306249999,224.4397477919997,224.4643152919998,224.4643152919998,224.9514947499997,226.0661369579998,226.0661369579998,x,1.4478025829998842,None,,,,,,,,,,,yupa_en_2,240768,2025-07-24_13h51.05.880,MainFlow,2024.1.5,None,2025-07-24 13h51.23.444114 +0700,
2,14,0,word/worden0141.png,image/False/imgf14.png,0,28,28,28,227.52401341699988,,,,,,,229.0180299169997,228.50189254199995,228.52721966699983,228.52721966699983,229.00604908299965,230.1353003749996,230.1353003749996,x,1.2270346669997707,None,,,,,,,,,,,yupa_en_2,240768,2025-07-24_13h51.05.880,MainFlow,2024.1.5,None,2025-07-24 13h51.23.444114 +0700,
2,40,0,word/worden0401.png,image/False/imgf40.png,0,29,29,29,231.37617483299982,,,,,,,232.87230879199979,232.35639183299963,232.3798328329999,232.3798328329999,232.86815816699982,233.9856072499997,233.9856072499997,x,3.2257775829998536,None,,,,,,,,,,,yupa_en_2,240768,2025-07-24_13h51.05.880,MainFlow,2024.1.5,None,2025-07-24 13h51.23.444114 +0700,
2,1,0,word/worden0011.png,image/False/imgf01.png,0,30,30,30,237.22646216699968,,,,,,,238.72231279199968,238.2062902079997,238.23029883299978,238.23029883299978,238.71810408299962,239.82762804200001,239.82762804200001,x,3.318792666999798,None,,,,,,,,,,,yupa_en_2,240768,2025-07-24_13h51.05.880,MainFlow,2024.1.5,None,2025-07-24 13h51.23.444114 +0700,
2,3,0,word/worden0031.png,image/False/imgf03.png,0,31,31,31,243.16010770799994,,,,,,,244.65560370799994,244.13986674999978,244.1646478329999,244.1646478329999,244.65139,245.76391862499986,245.76391862499986,x,3.0068386250000003,None,,,,,,,,,,,yupa_en_2,240768,2025-07-24_13h51.05.880,MainFlow,2024.1.5,None,2025-07-24 13h51.23.444114 +0700,
2,57,1,word/worden0571.png,image/True/img57.png,0,32,32,32,248.78462758299975,,,,,,,250.28467349999983,249.7684452919998,249.79320925000002,249.79320925000002,250.27259383299997,251.4090343329999,251.4090343329999,z,5.322141375000228,None,249.79320925000002,,,,,,,,,,yupa_en_2,240768,2025-07-24_13h51.05.880,MainFlow,2024.1.5,None,2025-07-24 13h51.23.444114 +0700,
2,88,0,word/worden0881.png,image/False/imgf88.png,0,33,33,33,256.743127833,,,,,,,258.2386487499998,257.72257170800003,257.7457858749999,257.7457858749999,258.23457366699995,259.3500276669997,259.3500276669997,x,1.1648583750002217,None,,,,,,,,,,,yupa_en_2,240768,2025-07-24_13h51.05.880,MainFlow,2024.1.5,None,2025-07-24 13h51.23.444114 +0700,
2,52,0,word/worden0521.png,image/False/imgf52.png,0,34,34,34,260.52581358299994,,,,,,,262.02218104199983,261.5061766249996,261.5303692919997,261.5303692919997,262.017951625,263.1270627079998,263.1270627079998,x,5.147079875000145,None,,,,,,,,,,,yupa_en_2,240768,2025-07-24_13h51.05.880,MainFlow,2024.1.5,None,2025-07-24 13h51.23.444114 +0700,
2,50,0,word/worden0501.png,image/False/imgf50.png,0,35,35,35,268.29017904199964,,,,,,,269.78888745799986,269.27298087500003,269.29892379199964,269.29892379199964,269.78463966699974,270.90134333299966,270.90134333299966,x,1.7094631249997292,None,269.29892379199964,,,,,,,,,,yupa_en_2,240768,2025-07-24_13h51.05.880,MainFlow,2024.1.5,None,2025-07-24 13h51.23.444114 +0700,
2,78,1,word/worden0781.png,image/True/img78.png,0,36,36,36,272.6267513749999,,,,,,,274.11789699999963,273.6060917079999,273.63134825,273.63134825,274.1063255419999,275.22545975,275.22545975,z,4.041340666999986,None,,,,,,,,,,,yupa_en_2,240768,2025-07-24_13h51.05.880,MainFlow,2024.1.5,None,2025-07-24 13h51.23.444114 +0700,
2,61,0,word/worden0611.png,image/False/imgf61.png,0,37,37,37,279.276396708,,,,,,,280.77215558299986,280.25606441699983,280.28035816700003,280.28035816700003,280.76790516699975,281.8961855419998,281.8961855419998,x,1.0811420420000104,None,,,,,,,,,,,yupa_en_2,240768,2025-07-24_13h51.05.880,MainFlow,2024.1.5,None,2025-07-24 13h51.23.444114 +0700,
2,36,0,word/worden0361.png,image/False/imgf36.png,0,38,38,38,282.99237858299966,,,,,,,284.4844547919997,283.9720266669997,283.99502325000003,283.99502325000003,284.47238745799996,285.60494812499974,285.60494812499974,x,1.5653455000001486,None,,,,,,,,,,,yupa_en_2,240768,2025-07-24_13h51.05.880,MainFlow,2024.1.5,None,2025-07-24 13h51.23.444114 +0700,
2,10,1,word/worden0101.png,image/True/img10.png,0,39,39,39,287.1843977919998,,,,,,,288.68439579200003,288.168240042,288.1924827499997,288.1924827499997,288.6728579169999,289.7917011249997,289.7917011249997,z,0.8663353330002792,None,288.1924827499997,,,,,,,,,,yupa_en_2,240768,2025-07-24_13h51.05.880,MainFlow,2024.1.5,None,2025-07-24 13h51.23.444114 +0700,
2,75,1,word/worden0751.png,image/True/img75.png,0,40,40,40,290.6759484999998,,,,,,,292.17193204199975,291.655710042,291.67946566699993,291.67946566699993,292.167743042,293.2866857079998,293.2866857079998,x,10.499025999999958,None,,,,,,,,,,,yupa_en_2,240768,2025-07-24_13h51.05.880,MainFlow,2024.1.5,None,2025-07-24 13h51.23.444114 +0700,
2,1,1,word/worden0011.png,image/True/img01.png,0,41,41,41,303.8008572079998,,,,,,,305.30100991699965,304.78483233299994,304.8082755829996,304.8082755829996,305.2894154579999,306.42544474999977,306.42544474999977,z,1.3932995420000225,None,304.8082755829996,,,,,,,,,,yupa_en_2,240768,2025-07-24_13h51.05.880,MainFlow,2024.1.5,None,2025-07-24 13h51.23.444114 +0700,
2,37,1,word/worden0371.png,image/True/img37.png,0,42,42,42,307.83440058299993,,,,,,,309.333526375,308.8180918329999,308.84146899999996,308.84146899999996,309.32188879199975,310.47334599999976,310.47334599999976,x,1.969488041999739,None,308.84146899999996,,,,,,,,,,yupa_en_2,240768,2025-07-24_13h51.05.880,MainFlow,2024.1.5,None,2025-07-24 13h51.23.444114 +0700,
2,66,0,word/worden0661.png,image/False/imgf66.png,0,43,43,43,312.4596899579997,,,,,,,313.95543041699966,313.4392023329997,313.46288020799966,313.46288020799966,313.95116504199996,315.0746931669996,315.0746931669996,x,1.2710290420000092,None,,,,,,,,,,,yupa_en_2,240768,2025-07-24_13h51.05.880,MainFlow,2024.1.5,None,2025-07-24 13h51.23.444114 +0700,
2,55,1,word/worden0551.png,image/True/img55.png,0,44,44,44,316.3593122919997,,,,,,,317.8552150419996,317.3392410419997,317.3628239999998,317.3628239999998,317.85089787499965,318.98009024999965,318.98009024999965,z,4.854799791999994,None,,,,,,,,,,,yupa_en_2,240768,2025-07-24_13h51.05.880,MainFlow,2024.1.5,None,2025-07-24 13h51.23.444114 +0700,
2,70,0,word/worden0701.png,image/False/imgf70.png,0,45,45,45,323.85085929199977,,,,,,,325.35078320799994,324.8348872919996,324.8605457499998,324.8605457499998,325.33909054199967,326.4624959169996,326.4624959169996,x,1.22025637500019,None,324.8605457499998,,,,,,,,,,yupa_en_2,240768,2025-07-24_13h51.05.880,MainFlow,2024.1.5,None,2025-07-24 13h51.23.444114 +0700,
2,68,0,word/worden0681.png,image/False/imgf68.png,0,46,46,46,327.6929276249998,,,,,,,329.1890552079999,328.6724044579996,328.69634366699984,328.69634366699984,329.184444,330.28190741699973,330.28190741699973,z,6.970098624999991,None,,,,,,,,,,,yupa_en_2,240768,2025-07-24_13h51.05.880,MainFlow,2024.1.5,None,2025-07-24 13h51.23.444114 +0700,
2,75,1,word/worden0751.png,image/True/img75.png,0,47,47,47,337.2675224169998,,,,,,,338.76761104199977,338.2512362919997,338.27483941699984,338.27483941699984,338.7552879169998,339.882609625,339.882609625,x,3.448632916999941,None,338.27483941699984,,,,,,,,,,yupa_en_2,240768,2025-07-24_13h51.05.880,MainFlow,2024.1.5,None,2025-07-24 13h51.23.444114 +0700,
2,38,1,word/worden0381.png,image/True/img38.png,0,48,48,48,343.34216608299994,,,,,,,344.83853395799997,344.32213591699974,344.34586845800004,344.34586845800004,344.83433354199997,345.9462618329999,345.9462618329999,z,1.5607035000002725,None,,,,,,,,,,,yupa_en_2,240768,2025-07-24_13h51.05.880,MainFlow,2024.1.5,None,2025-07-24 13h51.23.444114 +0700,
2,42,1,word/worden0421.png,image/True/img42.png,0,49,49,49,347.52323224999964,,,,,,,349.0216672499996,348.5061291669999,348.5299447499997,348.5299447499997,349.01751966699976,350.13870499999985,350.13870499999985,z,1.2958283340003618,None,348.5299447499997,,,,,,,,,,yupa_en_2,240768,2025-07-24_13h51.05.880,MainFlow,2024.1.5,None,2025-07-24 13h51.23.444114 +0700,
2,11,0,word/worden0111.png,image/False/imgf11.png,0,50,50,50,351.4508330419999,,,,,,,352.95073924999997,352.4345227499998,352.45838420799964,352.45838420799964,352.93862595799965,354.08397883299995,354.08397883299995,x,1.182476874999793,None,352.45838420799964,,,,,,,,,,yupa_en_2,240768,2025-07-24_13h51.05.880,MainFlow,2024.1.5,None,2025-07-24 13h51.23.444114 +0700,
2,41,0,word/worden0411.png,image/False/imgf41.png,0,51,51,51,355.27587749999975,,,,,,,356.77177945799986,356.25547145799965,356.2793019579999,356.2793019579999,356.7675722079998,357.86188616699974,357.86188616699974,x,7.045186957999704,None,,,,,,,,,,,yupa_en_2,240768,2025-07-24_13h51.05.880,MainFlow,2024.1.5,None,2025-07-24 13h51.23.444114 +0700,
2,82,1,word/worden0821.png,image/True/img82.png,0,52,52,52,364.92267354199976,,,,,,,366.4172294169998,365.9050603329997,365.9283475829998,365.9283475829998,366.40555712499963,367.50808529200003,367.50808529200003,z,6.943127041000025,None,,,,,,,,,,,yupa_en_2,240768,2025-07-24_13h51.05.880,MainFlow,2024.1.5,None,2025-07-24 13h51.23.444114 +0700,
2,88,0,word/worden0881.png,image/False/imgf88.png,0,53,53,53,374.4674541249997,,,,,,,375.9673008329996,375.451059083,375.4749727919998,375.4749727919998,375.9551594999998,377.0791009579998,377.0791009579998,x,1.1235328749999098,None,375.4749727919998,,,,,,,,,,yupa_en_2,240768,2025-07-24_13h51.05.880,MainFlow,2024.1.5,None,2025-07-24 13h51.23.444114 +0700,
2,8,1,word/worden0081.png,image/True/img08.png,0,54,54,54,378.21740191699973,,,,,,,379.71732191699994,379.2009631249998,379.22424599999977,379.22424599999977,379.70524666699976,380.8171187079997,380.8171187079997,z,2.0407417920000626,None,379.22424599999977,,,,,,,,,,yupa_en_2,240768,2025-07-24_13h51.05.880,MainFlow,2024.1.5,None,2025-07-24 13h51.23.444114 +0700,
2,16,0,word/worden0161.png,image/False/imgf16.png,0,55,55,55,382.8755743329998,,,,,,,384.3715515829999,383.855513125,383.8786273329997,383.8786273329997,384.3672978749996,385.4976738329997,385.4976738329997,x,3.009044666999671,None,,,,,,,,,,,yupa_en_2,240768,2025-07-24_13h51.05.880,MainFlow,2024.1.5,None,2025-07-24 13h51.23.444114 +0700,
2,10,0,word/worden0101.png,image/False/imgf10.png,0,56,56,56,388.52259429199967,,,,,,,390.01721395799996,389.5010286249999,389.5250048749999,389.5250048749999,390.0051478749997,391.13282987499997,391.13282987499997,x,1.2058696249996501,None,,,,,,,,,,,yupa_en_2,240768,2025-07-24_13h51.05.880,MainFlow,2024.1.5,None,2025-07-24 13h51.23.444114 +0700,
2,76,0,word/worden0761.png,image/False/imgf76.png,0,57,57,57,392.3496175,,,,,,,393.85058249999975,393.33413574999986,393.3581877499996,393.3581877499996,393.8390758329997,394.98205504199996,394.98205504199996,x,1.068501666999964,None,393.3581877499996,,,,,,,,,,yupa_en_2,240768,2025-07-24_13h51.05.880,MainFlow,2024.1.5,None,2025-07-24 13h51.23.444114 +0700,
2,42,1,word/worden0421.png,image/True/img42.png,0,58,58,58,396.0594839999999,,,,,,,397.5547932499999,397.0390360419997,397.0629174999999,397.0629174999999,397.5505680829997,398.67184633299985,398.67184633299985,z,6.843373041000177,None,,,,,,,,,,,yupa_en_2,240768,2025-07-24_13h51.05.880,MainFlow,2024.1.5,None,2025-07-24 13h51.23.444114 +0700,
2,26,0,word/worden0261.png,image/False/imgf26.png,0,59,59,59,405.52562424999996,,,,,,,407.02148820799994,406.50544787499985,406.5317082079996,406.5317082079996,407.0172929999999,408.15366700000004,408.15366700000004,x,1.1453018749998591,None,,,,,,,,,,,yupa_en_2,240768,2025-07-24_13h51.05.880,MainFlow,2024.1.5,None,2025-07-24 13h51.23.444114 +0700,
2,26,1,word/worden0261.png,image/True/img26.png,0,60,60,60,409.3088934579996,,,,,,,410.80481833299973,410.28865870799973,410.31242133299975,410.31242133299975,410.8006377499996,411.93401849999964,411.93401849999964,z,5.5002789579998534,None,,,,,,,,,,,yupa_en_2,240768,2025-07-24_13h51.05.880,MainFlow,2024.1.5,None,2025-07-24 13h51.23.444114 +0700,
2,48,1,word/worden0481.png,image/True/img48.png,0,61,61,61,417.45044066699984,,,,,,,418.9504327499999,418.4341006669997,418.45859670799973,418.45859670799973,418.9383402079998,420.071234042,420.071234042,x,2.2509730839997246,None,418.45859670799973,,,,,,,,,,yupa_en_2,240768,2025-07-24_13h51.05.880,MainFlow,2024.1.5,None,2025-07-24 13h51.23.444114 +0700,
2,71,0,word/worden0711.png,image/False/imgf71.png,0,62,62,62,422.339013583,,,,,,,423.8338039999999,423.31754141700003,423.34225529199966,423.34225529199966,423.82155624999996,424.9707399169997,424.9707399169997,x,4.751371708000079,None,,,,,,,,,,,yupa_en_2,240768,2025-07-24_13h51.05.880,MainFlow,2024.1.5,None,2025-07-24 13h51.23.444114 +0700,
2,93,1,word/worden0931.png,image/True/img93.png,0,63,63,63,429.7384372919996,,,,,,,431.2336607919997,430.71748325,430.7416924999998,430.7416924999998,431.22203858299963,432.337466167,432.337466167,z,2.65654345799976,None,,,,,,,,,,,yupa_en_2,240768,2025-07-24_13h51.05.880,MainFlow,2024.1.5,None,2025-07-24 13h51.23.444114 +0700,
2,51,1,word/worden0511.png,image/True/img51.png,0,64,64,64,435.0086571249999,,,,,,,436.5045051249999,435.9880905,436.01162350000004,436.01162350000004,436.50034745799985,437.6241942079996,437.6241942079996,x,5.106833459000427,None,,,,,,,,,,,yupa_en_2,240768,2025-07-24_13h51.05.880,MainFlow,2024.1.5,None,2025-07-24 13h51.23.444114 +0700,
2,78,0,word/worden0781.png,image/False/imgf78.png,0,65,65,65,442.7420566249998,,,,,,,444.23366341699966,443.7212912079999,443.7443691669996,443.7443691669996,444.22145412500004,445.33708687499984,445.33708687499984,x,6.6418033340000875,None,,,,,,,,,,,yupa_en_2,240768,2025-07-24_13h51.05.880,MainFlow,2024.1.5,None,2025-07-24 13h51.23.444114 +0700,
2,64,0,word/worden0641.png,image/False/imgf64.png,0,66,66,66,451.9921936669998,,,,,,,453.48362258299994,452.9712701249996,452.99566612499984,452.99566612499984,453.4715140829999,454.57479566699976,454.57479566699976,x,2.139548124999692,None,,,,,,,,,,,yupa_en_2,240768,2025-07-24_13h51.05.880,MainFlow,2024.1.5,None,2025-07-24 13h51.23.444114 +0700,
2,68,1,word/worden0681.png,image/True/img68.png,0,67,67,67,456.72554220799975,,,,,,,458.21675845799973,457.70451920799997,457.72763879199965,457.72763879199965,458.2046221669998,459.30794720799986,459.30794720799986,z,1.5025181659998452,None,,,,,,,,,,,yupa_en_2,240768,2025-07-24_13h51.05.880,MainFlow,2024.1.5,None,2025-07-24 13h51.23.444114 +0700,
2,57,0,word/worden0571.png,image/False/imgf57.png,0,68,68,68,460.8254442499997,,,,,,,462.31684558300003,461.80514645799985,461.8291810419996,461.8291810419996,462.3052870829997,463.4463179579998,463.4463179579998,x,0.9317000830001234,None,,,,,,,,,,,yupa_en_2,240768,2025-07-24_13h51.05.880,MainFlow,2024.1.5,None,2025-07-24 13h51.23.444114 +0700,
2,31,0,word/worden0311.png,image/False/imgf31.png,0,69,69,69,464.39190495799994,,,,,,,465.887852417,465.37169679199997,465.39511825,465.39511825,465.8836354169998,466.97587054199994,466.97587054199994,x,3.9390554579999844,None,,,,,,,,,,,yupa_en_2,240768,2025-07-24_13h51.05.880,MainFlow,2024.1.5,None,2025-07-24 13h51.23.444114 +0700,
2,31,0,word/worden0311.png,image/False/imgf31.png,0,70,70,70,470.92524995799977,,,,,,,472.41688266699975,471.9044521669998,471.9267319999999,471.9267319999999,472.4050574169996,473.5058241669999,473.5058241669999,x,5.46416575000012,None,,,,,,,,,,,yupa_en_2,240768,2025-07-24_13h51.05.880,MainFlow,2024.1.5,None,2025-07-24 13h51.23.444114 +0700,
2,55,1,word/worden0551.png,image/True/img55.png,0,71,71,71,478.98345179199987,,,,,,,480.4834888329997,479.9671391249999,479.99080108299995,479.99080108299995,480.4712882919998,481.6100097079998,481.6100097079998,z,6.92119724999975,None,479.99080108299995,,,,,,,,,,yupa_en_2,240768,2025-07-24_13h51.05.880,MainFlow,2024.1.5,None,2025-07-24 13h51.23.444114 +0700,
2,36,1,word/worden0361.png,image/True/img36.png,0,72,72,72,488.54130904199974,,,,,,,490.033414042,489.5211197499998,489.543413417,489.543413417,490.0212674579998,491.14037929200003,491.14037929200003,z,1.5820709579998038,None,,,,,,,,,,,yupa_en_2,240768,2025-07-24_13h51.05.880,MainFlow,2024.1.5,None,2025-07-24 13h51.23.444114 +0700,
2,8,0,word/worden0081.png,image/False/imgf08.png,0,73,73,73,492.73873133300003,,,,,,,494.23331062499983,493.7212382919997,493.74448487499967,493.74448487499967,494.2212896249998,495.33494087500003,495.33494087500003,x,1.2117614159997174,None,,,,,,,,,,,yupa_en_2,240768,2025-07-24_13h51.05.880,MainFlow,2024.1.5,None,2025-07-24 13h51.23.444114 +0700,
2,82,0,word/worden0821.png,image/False/imgf82.png,0,74,74,74,496.55826291699987,,,,,,,498.0541854999997,497.537763458,497.5611160829999,497.5611160829999,498.0499831249999,499.16334441699973,499.16334441699973,x,4.686969583000064,None,,,,,,,,,,,yupa_en_2,240768,2025-07-24_13h51.05.880,MainFlow,2024.1.5,None,2025-07-24 13h51.23.444114 +0700,
2,14,0,word/worden0141.png,image/False/imgf14.png,0,75,75,75,503.8666963749997,,,,,,,505.36674566700003,504.85051191699995,504.8748715419997,504.8748715419997,505.3548787919999,506.4837443749998,506.4837443749998,x,0.9024120839999341,None,504.8748715419997,,,,,,,,,,yupa_en_2,240768,2025-07-24_13h51.05.880,MainFlow,2024.1.5,None,2025-07-24 13h51.23.444114 +0700,
2,71,1,word/worden0711.png,image/True/img71.png,0,76,76,76,507.399915125,,,,,,,508.8999636669996,508.3836524579997,508.4081149999997,508.4081149999997,508.887902083,510.02615587499986,510.02615587499986,x,7.462919249999686,None,508.4081149999997,,,,,,,,,,yupa_en_2,240768,2025-07-24_13h51.05.880,MainFlow,2024.1.5,None,2025-07-24 13h51.23.444114 +0700,
2,22,0,word/worden0221.png,image/False/imgf22.png,0,77,77,77,517.5054367079997,,,,,,,519.0041872499996,518.487655292,518.5111267079997,518.5111267079997,518.999926125,520.1304785419998,520.1304785419998,x,1.1600616250002531,None,,,,,,,,,,,yupa_en_2,240768,2025-07-24_13h51.05.880,MainFlow,2024.1.5,None,2025-07-24 13h51.23.444114 +0700,
2,78,1,word/worden0781.png,image/True/img78.png,0,78,78,78,521.308359875,,,,,,,522.7999352499996,522.287566083,522.3106184999997,522.3106184999997,522.7876959999999,523.9035600829998,523.9035600829998,x,3.1150305830001344,None,,,,,,,,,,,yupa_en_2,240768,2025-07-24_13h51.05.880,MainFlow,2024.1.5,None,2025-07-24 13h51.23.444114 +0700,
2,51,0,word/worden0511.png,image/False/imgf51.png,0,79,79,79,527.033164292,,,,,,,528.5332711669998,528.0169019579998,528.0405328749998,528.0405328749998,528.520936208,529.6370682499996,529.6370682499996,x,2.4770157919997473,None,528.0405328749998,,,,,,,,,,yupa_en_2,240768,2025-07-24_13h51.05.880,MainFlow,2024.1.5,None,2025-07-24 13h51.23.444114 +0700,
2,56,1,word/worden0561.png,image/True/img56.png,0,80,80,80,532.1245515829996,,,,,,,533.6206474579999,533.1047079999998,533.1294062499996,533.1294062499996,533.6164505419997,534.7307704999998,534.7307704999998,z,1.4471515420000287,None,,,,,,,,,,,yupa_en_2,240768,2025-07-24_13h51.05.880,MainFlow,2024.1.5,None,2025-07-24 13h51.23.444114 +0700,
2,60,1,word/worden0601.png,image/True/img60.png,0,81,81,81,536.1918514579997,,,,,,,537.68733075,537.1713884579999,537.1948628749997,537.1948628749997,537.6831118329997,538.7934448749998,538.7934448749998,z,4.274287749999985,None,,,,,,,,,,,yupa_en_2,240768,2025-07-24_13h51.05.880,MainFlow,2024.1.5,None,2025-07-24 13h51.23.444114 +0700,
2,96,0,word/worden0961.png,image/False/imgf96.png,0,82,82,82,543.0822558329996,,,,,,,544.5830123329997,544.0667155419997,544.0910588329998,544.0910588329998,544.570932958,545.7058969999998,545.7058969999998,z,5.832280833999903,None,544.0910588329998,,,,,,,,,,yupa_en_2,240768,2025-07-24_13h51.05.880,MainFlow,2024.1.5,None,2025-07-24 13h51.23.444114 +0700,
2,3,0,word/worden0031.png,image/False/imgf03.png,0,83,83,83,551.5545589999997,,,,,,,553.0496331669997,552.5331852079998,552.556730667,552.556730667,553.0375266669998,554.1593939169998,554.1593939169998,x,1.6112628330001826,None,,,,,,,,,,,yupa_en_2,240768,2025-07-24_13h51.05.880,MainFlow,2024.1.5,None,2025-07-24 13h51.23.444114 +0700,
2,55,0,word/worden0551.png,image/False/imgf55.png,0,84,84,84,555.7822119579996,,,,,,,557.2830650419996,556.766811083,556.7903698749997,556.7903698749997,557.2711953749999,558.3975551669996,558.3975551669996,x,3.0916827920000287,None,556.7903698749997,,,,,,,,,,yupa_en_2,240768,2025-07-24_13h51.05.880,MainFlow,2024.1.5,None,2025-07-24 13h51.23.444114 +0700,
2,71,1,word/worden0711.png,image/True/img71.png,0,85,85,85,561.5053927919998,,,,,,,562.9997430829999,562.487829958,562.5122182079999,562.5122182079999,562.9878927499999,564.1294560829997,564.1294560829997,x,4.4807076250003774,None,,,,,,,,,,,yupa_en_2,240768,2025-07-24_13h51.05.880,MainFlow,2024.1.5,None,2025-07-24 13h51.23.444114 +0700,
2,3,1,word/worden0031.png,image/True/img03.png,0,86,86,86,568.624637375,,,,,,,570.1206400419996,569.6045289999997,569.6284046249998,569.6284046249998,570.116333292,571.2374007919998,571.2374007919998,z,0.9482560000001286,None,,,,,,,,,,,yupa_en_2,240768,2025-07-24_13h51.05.880,MainFlow,2024.1.5,None,2025-07-24 13h51.23.444114 +0700,
2,52,1,word/worden0521.png,image/True/img52.png,0,87,87,87,572.1995009999996,,,,,,,573.6996357499997,573.1833782499998,573.2082708329999,573.2082708329999,573.6875397079998,574.8232197079997,574.8232197079997,z,2.3543222499997682,None,573.2082708329999,,,,,,,,,,yupa_en_2,240768,2025-07-24_13h51.05.880,MainFlow,2024.1.5,None,2025-07-24 13h51.23.444114 +0700,
2,95,0,word/worden0951.png,image/False/imgf95.png,0,88,88,88,577.1912119169997,,,,,,,578.6874541249999,578.1713425419998,578.1948971669999,578.1948971669999,578.682910083,579.809681792,579.809681792,x,5.200117208000393,None,,,,,,,,,,,yupa_en_2,240768,2025-07-24_13h51.05.880,MainFlow,2024.1.5,None,2025-07-24 13h51.23.444114 +0700,
2,6,0,word/worden0061.png,image/False/imgf06.png,0,89,89,89,585.0246395419999,,,,,,,586.5205617499996,586.0038701249996,586.0272464169998,586.0272464169998,586.516238958,587.6175279999998,587.6175279999998,x,3.632398000000194,None,,,,,,,,,,,yupa_en_2,240768,2025-07-24_13h51.05.880,MainFlow,2024.1.5,None,2025-07-24 13h51.23.444114 +0700,
2,79,1,word/worden0791.png,image/True/img79.png,0,90,90,90,591.2661589169998,,,,,,,592.7662896669999,592.2499029999999,592.2744235829996,592.2744235829996,592.7539498329998,593.882170458,593.882170458,x,9.856175999999778,None,592.2744235829996,,,,,,,,,,yupa_en_2,240768,2025-07-24_13h51.05.880,MainFlow,2024.1.5,None,2025-07-24 13h51.23.444114 +0700,
2,61,0,word/worden0611.png,image/False/imgf61.png,0,91,91,91,603.754868083,,,,,,,605.253360708,604.7371912919998,604.7615699579997,604.7615699579997,605.2492189579998,606.3756950829998,606.3756950829998,x,4.482183999999961,None,,,,,,,,,,,yupa_en_2,240768,2025-07-24_13h51.05.880,MainFlow,2024.1.5,None,2025-07-24 13h51.23.444114 +0700,
2,46,0,word/worden0461.png,image/False/imgf46.png,0,92,92,92,610.8742349999998,,,,,,,612.3660137499996,611.853690333,611.87767175,611.87767175,612.3542282919998,613.5022667919998,613.5022667919998,x,1.2193133330001729,None,,,,,,,,,,,yupa_en_2,240768,2025-07-24_13h51.05.880,MainFlow,2024.1.5,None,2025-07-24 13h51.23.444114 +0700,
2,89,1,word/worden0891.png,image/True/img89.png,0,93,93,93,614.738149542,,,,,,,616.2369637079996,615.7207638749996,615.7446097919997,615.7446097919997,616.2327363749996,617.335597667,617.335597667,z,4.538490666999678,None,,,,,,,,,,,yupa_en_2,240768,2025-07-24_13h51.05.880,MainFlow,2024.1.5,None,2025-07-24 13h51.23.444114 +0700,
2,26,0,word/worden0261.png,image/False/imgf26.png,0,94,94,94,621.8910716669998,,,,,,,623.3869877079997,622.870612917,622.8950529169997,622.8950529169997,623.38276275,624.5167984169998,624.5167984169998,x,1.5008822079998936,None,,,,,,,,,,,yupa_en_2,240768,2025-07-24_13h51.05.880,MainFlow,2024.1.5,None,2025-07-24 13h51.23.444114 +0700,
2,44,0,word/worden0441.png,image/False/imgf44.png,0,95,95,95,626.032651042,,,,,,,627.5326192499997,627.016455042,627.041343333,627.041343333,627.5205537919996,628.6631453329996,628.6631453329996,x,3.6591108339998755,None,627.041343333,,,,,,,,,,yupa_en_2,240768,2025-07-24_13h51.05.880,MainFlow,2024.1.5,None,2025-07-24 13h51.23.444114 +0700,
2,82,1,word/worden0821.png,image/True/img82.png,0,96,96,96,632.3381288329997,,,,,,,633.836828125,633.320930292,633.3450017499999,633.3450017499999,633.8325706249998,634.9236371249999,634.9236371249999,x,3.262053625000135,None,633.3450017499999,,,,,,,,,,yupa_en_2,240768,2025-07-24_13h51.05.880,MainFlow,2024.1.5,None,2025-07-24 13h51.23.444114 +0700,
2,16,1,word/worden0161.png,image/True/img16.png,0,97,97,97,638.1990429169996,,,,,,,639.6991224999997,639.1830784579997,639.2067131669996,639.2067131669996,639.6877258749996,640.8323142919999,640.8323142919999,x,3.0506551250000484,None,639.2067131669996,,,,,,,,,,yupa_en_2,240768,2025-07-24_13h51.05.880,MainFlow,2024.1.5,None,2025-07-24 13h51.23.444114 +0700,
2,20,1,word/worden0201.png,image/True/img20.png,0,98,98,98,643.8991120829996,,,,,,,645.3991491249999,644.8828990419997,644.9069598329997,644.9069598329997,645.3877816249997,646.5243632079996,646.5243632079996,x,1.309246499999972,None,644.9069598329997,,,,,,,,,,yupa_en_2,240768,2025-07-24_13h51.05.880,MainFlow,2024.1.5,None,2025-07-24 13h51.23.444114 +0700,
2,20,1,word/worden0201.png,image/True/img20.png,0,99,99,99,647.8491320419998,,,,,,,649.3490943329998,648.8329296249999,648.8572479999998,648.8572479999998,649.336997208,650.475032583,650.475032583,x,2.64639383299982,None,648.8572479999998,,,,,,,,,,yupa_en_2,240768,2025-07-24_13h51.05.880,MainFlow,2024.1.5,None,2025-07-24 13h51.23.444114 +0700,
2,96,1,word/worden0961.png,image/True/img96.png,0,100,100,100,653.1378478329998,,,,,,,654.6367375,654.120770083,654.1447277919997,654.1447277919997,654.6324572499998,655.7546426249996,655.7546426249996,z,4.1115160829999695,None,654.1447277919997,,,,,,,,,,yupa_en_2,240768,2025-07-24_13h51.05.880,MainFlow,2024.1.5,None,2025-07-24 13h51.23.444114 +0700,
2,64,1,word/worden0641.png,image/True/img64.png,0,101,101,101,659.8823766249998,,,,,,,661.3824254169999,660.8662937079998,660.8910365419997,660.8910365419997,661.370896375,662.479669417,662.479669417,x,1.993621584000266,None,660.8910365419997,,,,,,,,,,yupa_en_2,240768,2025-07-24_13h51.05.880,MainFlow,2024.1.5,None,2025-07-24 13h51.23.444114 +0700,
2,78,0,word/worden0781.png,image/False/imgf78.png,0,102,102,102,664.4908398749999,,,,,,,665.9824252499998,665.4706719999999,665.495518833,665.495518833,665.9708825419998,667.08520275,667.08520275,x,1.845391667000058,None,,,,,,,,,,,yupa_en_2,240768,2025-07-24_13h51.05.880,MainFlow,2024.1.5,None,2025-07-24 13h51.23.444114 +0700,
2,20,0,word/worden0201.png,image/False/imgf20.png,0,103,103,103,668.9406934169997,,,,,,,670.4323111669996,669.9207800419999,669.9439958329999,669.9439958329999,670.420911708,671.5781510829997,671.5781510829997,x,1.8795924170003673,None,,,,,,,,,,,yupa_en_2,240768,2025-07-24_13h51.05.880,MainFlow,2024.1.5,None,2025-07-24 13h51.23.444114 +0700,
2,89,1,word/worden0891.png,image/True/img89.png,0,104,104,104,673.4738273749999,,,,,,,674.969971042,674.453812708,674.4765954169998,674.4765954169998,674.9657292499996,676.0679252919999,676.0679252919999,z,0.9015816659998563,None,,,,,,,,,,,yupa_en_2,240768,2025-07-24_13h51.05.880,MainFlow,2024.1.5,None,2025-07-24 13h51.23.444114 +0700,
2,59,0,word/worden0591.png,image/False/imgf59.png,0,105,105,105,676.9823204999998,,,,,,,678.4823611249999,677.966024583,677.990803958,677.990803958,678.4703008749998,679.573271667,679.573271667,x,4.292791832999683,None,677.990803958,,,,,,,,,,yupa_en_2,240768,2025-07-24_13h51.05.880,MainFlow,2024.1.5,None,2025-07-24 13h51.23.444114 +0700,
2,24,0,word/worden0241.png,image/False/imgf24.png,0,106,106,106,683.8822194579998,,,,,,,685.3823148329998,684.8661059579999,684.8902894999997,684.8902894999997,685.3707044169996,686.4889073749996,686.4889073749996,x,2.2007218749999993,None,684.8902894999997,,,,,,,,,,yupa_en_2,240768,2025-07-24_13h51.05.880,MainFlow,2024.1.5,None,2025-07-24 13h51.23.444114 +0700,
2,28,0,word/worden0281.png,image/False/imgf28.png,0,107,107,107,688.7070987499997,,,,,,,690.1989445419999,689.686554417,689.7106104579998,689.7106104579998,690.1868572919998,691.3153941669998,691.3153941669998,x,1.805903292000039,None,,,,,,,,,,,yupa_en_2,240768,2025-07-24_13h51.05.880,MainFlow,2024.1.5,None,2025-07-24 13h51.23.444114 +0700,
2,15,0,word/worden0151.png,image/False/imgf15.png,0,108,108,108,693.137605292,,,,,,,694.6321694169997,694.1159675829999,694.1394880829998,694.1394880829998,694.6200869579998,695.7452698329998,695.7452698329998,x,2.176910208999743,None,,,,,,,,,,,yupa_en_2,240768,2025-07-24_13h51.05.880,MainFlow,2024.1.5,None,2025-07-24 13h51.23.444114 +0700,
2,30,1,word/worden0301.png,image/True/img30.png,0,109,109,109,697.9408889169999,,,,,,,699.4365312499999,698.9199102079997,698.9434349579997,698.9434349579997,699.4322858329997,700.540425833,700.540425833,z,4.884942916,None,,,,,,,,,,,yupa_en_2,240768,2025-07-24_13h51.05.880,MainFlow,2024.1.5,None,2025-07-24 13h51.23.444114 +0700,
2,64,1,word/worden0641.png,image/True/img64.png,0,110,110,110,705.4399159999998,,,,,,,706.936521958,706.420307458,706.4438734169998,706.4438734169998,706.9323419999996,708.03109275,708.03109275,z,2.6105785409999953,None,,,,,,,,,,,yupa_en_2,240768,2025-07-24_13h51.05.880,MainFlow,2024.1.5,None,2025-07-24 13h51.23.444114 +0700,
2,52,0,word/worden0521.png,image/False/imgf52.png,0,111,111,111,710.6572844579996,,,,,,,712.1527934999999,711.6370355419999,711.6610551249996,711.6610551249996,712.1486126669997,713.2596583749996,713.2596583749996,x,4.093998584000019,None,,,,,,,,,,,yupa_en_2,240768,2025-07-24_13h51.05.880,MainFlow,2024.1.5,None,2025-07-24 13h51.23.444114 +0700,
2,33,1,word/worden0331.png,image/True/img33.png,0,112,112,112,717.3651730419997,,,,,,,718.8653784999997,718.3490530419999,718.3732823749997,718.3732823749997,718.8531873329998,719.9827136249996,719.9827136249996,z,2.1471543329998894,None,718.3732823749997,,,,,,,,,,yupa_en_2,240768,2025-07-24_13h51.05.880,MainFlow,2024.1.5,None,2025-07-24 13h51.23.444114 +0700,
2,23,1,word/worden0231.png,image/True/img23.png,0,113,113,113,722.1406689999999,,,,,,,723.632121958,723.119719583,723.1441407499997,723.1441407499997,723.6200812919997,724.7487192499998,724.7487192499998,x,2.1565404170000875,None,,,,,,,,,,,yupa_en_2,240768,2025-07-24_13h51.05.880,MainFlow,2024.1.5,None,2025-07-24 13h51.23.444114 +0700,
2,11,1,word/worden0111.png,image/True/img11.png,0,114,114,114,726.9213857079999,,,,,,,728.4150818329999,727.9029291669999,727.9263136249997,727.9263136249997,728.4032376669998,729.5568873749999,729.5568873749999,z,4.15746662499987,None,,,,,,,,,,,yupa_en_2,240768,2025-07-24_13h51.05.880,MainFlow,2024.1.5,None,2025-07-24 13h51.23.444114 +0700,
2,22,1,word/worden0221.png,image/True/img22.png,0,115,115,115,733.7239499999996,,,,,,,735.220192792,734.7033893329999,734.7270067079999,734.7270067079999,735.2154246249997,736.3618328749999,736.3618328749999,z,2.3523313749997214,None,,,,,,,,,,,yupa_en_2,240768,2025-07-24_13h51.05.880,MainFlow,2024.1.5,None,2025-07-24 13h51.23.444114 +0700,
2,37,0,word/worden0371.png,image/False/imgf37.png,0,116,116,116,738.7235785829998,,,,,,,740.215418708,739.7029966669998,739.7268066249999,739.7268066249999,740.20364075,741.3635962919998,741.3635962919998,x,3.246753459000047,None,,,,,,,,,,,yupa_en_2,240768,2025-07-24_13h51.05.880,MainFlow,2024.1.5,None,2025-07-24 13h51.23.444114 +0700,
2,79,0,word/worden0791.png,image/False/imgf79.png,0,117,117,117,744.6236448329996,,,,,,,746.1200172499998,745.6036675,745.6280417919997,745.6280417919997,746.115327,747.2416829999997,747.2416829999997,x,4.176049375000275,None,,,,,,,,,,,yupa_en_2,240768,2025-07-24_13h51.05.880,MainFlow,2024.1.5,None,2025-07-24 13h51.23.444114 +0700,
2,56,1,word/worden0561.png,image/True/img56.png,0,118,118,118,751.4319098329997,,,,,,,752.9319889169997,752.4154457079999,752.439389958,752.439389958,752.919929875,754.0435263329996,754.0435263329996,z,2.9263285419997374,None,752.439389958,,,,,,,,,,yupa_en_2,240768,2025-07-24_13h51.05.880,MainFlow,2024.1.5,None,2025-07-24 13h51.23.444114 +0700,
2,68,1,word/worden0681.png,image/True/img68.png,0,119,119,119,756.981069208,,,,,,,758.481811958,757.9656337499996,757.9900407079999,757.9900407079999,758.4701139169997,759.5699772499997,759.5699772499997,z,0.9447781669996402,None,757.9900407079999,,,,,,,,,,yupa_en_2,240768,2025-07-24_13h51.05.880,MainFlow,2024.1.5,None,2025-07-24 13h51.23.444114 +0700,
2,27,0,word/worden0271.png,image/False/imgf27.png,0,120,120,120,760.5236208749998,,,,,,,762.0152881669997,761.503327292,761.5268569579998,761.5268569579998,762.0038468329999,763.1283276249997,763.1283276249997,x,2.771132625000064,None,,,,,,,,,,,yupa_en_2,240768,2025-07-24_13h51.05.880,MainFlow,2024.1.5,None,2025-07-24 13h51.23.444114 +0700,
2,3,1,word/worden0031.png,image/True/img03.png,0,121,121,121,765.914347125,,,,,,,767.4151897499996,766.8989904999999,766.9240002919996,766.9240002919996,767.4030459999999,768.5322825419998,768.5322825419998,z,0.8303177500001766,None,766.9240002919996,,,,,,,,,,yupa_en_2,240768,2025-07-24_13h51.05.880,MainFlow,2024.1.5,None,2025-07-24 13h51.23.444114 +0700,
2,38,0,word/worden0381.png,image/False/imgf38.png,0,122,122,122,769.3730285829997,,,,,,,770.8651098749997,770.3534487079996,770.3778414579997,770.3778414579997,770.8535617079997,772.0105573749997,772.0105573749997,x,1.3825085839998792,None,,,,,,,,,,,yupa_en_2,240768,2025-07-24_13h51.05.880,MainFlow,2024.1.5,None,2025-07-24 13h51.23.444114 +0700,
2,59,1,word/worden0591.png,image/True/img59.png,0,123,123,123,773.4071157079998,,,,,,,774.9028230829999,774.3865773749999,774.40930325,774.40930325,774.8986406249996,775.9962917919997,775.9962917919997,z,4.493128666999837,None,,,,,,,,,,,yupa_en_2,240768,2025-07-24_13h51.05.880,MainFlow,2024.1.5,None,2025-07-24 13h51.23.444114 +0700,
2,18,1,word/worden0181.png,image/True/img18.png,0,124,124,124,780.5064392499999,,,,,,,781.998515708,781.486121083,781.5094737499999,781.5094737499999,781.9867287499997,783.1011854579997,783.1011854579997,z,2.0285774999997557,None,,,,,,,,,,,yupa_en_2,240768,2025-07-24_13h51.05.880,MainFlow,2024.1.5,None,2025-07-24 13h51.23.444114 +0700,
2,60,1,word/worden0601.png,image/True/img60.png,0,125,125,125,785.1401727919997,,,,,,,786.6360384169998,786.119769167,786.1431693329996,786.1431693329996,786.6318333749996,787.7425080419998,787.7425080419998,z,2.410748374999912,None,,,,,,,,,,,yupa_en_2,240768,2025-07-24_13h51.05.880,MainFlow,2024.1.5,None,2025-07-24 13h51.23.444114 +0700,
2,9,1,word/worden0091.png,image/True/img09.png,0,126,126,126,790.1649949999996,,,,,,,791.665067208,791.1487348749997,791.1744772079996,791.1744772079996,791.6533857499999,792.7496410419999,792.7496410419999,x,6.675676166999892,None,791.1744772079996,,,,,,,,,,yupa_en_2,240768,2025-07-24_13h51.05.880,MainFlow,2024.1.5,None,2025-07-24 13h51.23.444114 +0700,
2,9,0,word/worden0091.png,image/False/imgf09.png,0,127,127,127,799.4402339169997,,,,,,,800.9363195829997,800.4199449169996,800.4431369169997,800.4431369169997,800.9317017919998,802.0295309169996,802.0295309169996,x,1.9559372079997956,None,,,,,,,,,,,yupa_en_2,240768,2025-07-24_13h51.05.880,MainFlow,2024.1.5,None,2025-07-24 13h51.23.444114 +0700,
2,94,0,word/worden0941.png,image/False/imgf94.png,0,128,128,128,803.9983354579999,,,,,,,805.4981684169998,804.981994667,805.0073169579996,805.0073169579996,805.486619542,806.6306573329998,806.6306573329998,x,1.1552458340001976,None,805.0073169579996,,,,,,,,,,yupa_en_2,240768,2025-07-24_13h51.05.880,MainFlow,2024.1.5,None,2025-07-24 13h51.23.444114 +0700,
2,66,1,word/worden0661.png,image/True/img66.png,0,129,129,129,807.798214292,,,,,,,809.2983089999998,808.7820740829998,808.8057032079996,808.8057032079996,809.2860714169997,810.417511875,810.417511875,z,2.0080275840000468,None,808.8057032079996,,,,,,,,,,yupa_en_2,240768,2025-07-24_13h51.05.880,MainFlow,2024.1.5,None,2025-07-24 13h51.23.444114 +0700,
2,1,0,word/worden0011.png,image/False/imgf01.png,0,130,130,130,812.439725833,,,,,,,813.9358792919998,813.4196735419996,813.4445216249997,813.4445216249997,813.931632417,815.042016417,815.042016417,x,1.0396744160002527,None,,,,,,,,,,,yupa_en_2,240768,2025-07-24_13h51.05.880,MainFlow,2024.1.5,None,2025-07-24 13h51.23.444114 +0700,
2,89,0,word/worden0891.png,image/False/imgf89.png,0,131,131,131,816.0899870829999,,,,,,,817.5858640829997,817.0696477079996,817.0927471669997,817.0927471669997,817.5816661669996,818.6966314169999,818.6966314169999,x,0.9050190419998216,None,,,,,,,,,,,yupa_en_2,240768,2025-07-24_13h51.05.880,MainFlow,2024.1.5,None,2025-07-24 13h51.23.444114 +0700,
2,48,1,word/worden0481.png,image/True/img48.png,0,132,132,132,819.614785667,,,,,,,821.1148398749997,820.5984523329998,820.622107833,820.622107833,821.1028206669998,822.2361949169999,822.2361949169999,z,1.933500959000412,None,820.622107833,,,,,,,,,,yupa_en_2,240768,2025-07-24_13h51.05.880,MainFlow,2024.1.5,None,2025-07-24 13h51.23.444114 +0700,
2,63,0,word/worden0631.png,image/False/imgf63.png,0,133,133,133,824.186876667,,,,,,,825.6857091669999,825.1697198749998,825.1928400419997,825.1928400419997,825.681514208,826.8129814169997,826.8129814169997,x,5.012439333000202,None,825.1928400419997,,,,,,,,,,yupa_en_2,240768,2025-07-24_13h51.05.880,MainFlow,2024.1.5,None,2025-07-24 13h51.23.444114 +0700,
2,23,1,word/worden0231.png,image/True/img23.png,0,134,134,134,831.8399575419999,,,,,,,833.3313672079998,832.8197471249996,832.8432304999997,832.8432304999997,833.319794,834.4502350419998,834.4502350419998,x,3.671160458000031,None,,,,,,,,,,,yupa_en_2,240768,2025-07-24_13h51.05.880,MainFlow,2024.1.5,None,2025-07-24 13h51.23.444114 +0700,
2,40,0,word/worden0401.png,image/False/imgf40.png,0,135,135,135,838.1398964579998,,,,,,,839.635832125,839.1195935419996,839.1428909169999,839.1428909169999,839.6315232079996,840.7506714579999,840.7506714579999,x,2.187153749999652,None,,,,,,,,,,,yupa_en_2,240768,2025-07-24_13h51.05.880,MainFlow,2024.1.5,None,2025-07-24 13h51.23.444114 +0700,
2,52,1,word/worden0521.png,image/True/img52.png,0,136,136,136,842.953546875,,,,,,,844.4528873749996,843.935869208,843.9597181669997,843.9597181669997,844.4480774579997,845.5745379999998,845.5745379999998,x,2.178842917000111,None,,,,,,,,,,,yupa_en_2,240768,2025-07-24_13h51.05.880,MainFlow,2024.1.5,None,2025-07-24 13h51.23.444114 +0700,
2,30,1,word/worden0301.png,image/True/img30.png,0,137,137,137,847.7701944579999,,,,,,,849.2648434579996,848.7524560829997,848.7754594579997,848.7754594579997,849.2525529999998,850.3718582919996,850.3718582919996,z,3.7326198330001716,None,,,,,,,,,,,yupa_en_2,240768,2025-07-24_13h51.05.880,MainFlow,2024.1.5,None,2025-07-24 13h51.23.444114 +0700,
2,15,1,word/worden0151.png,image/True/img15.png,0,138,138,138,854.120145333,,,,,,,855.6188567919999,855.102989042,855.1270519999998,855.1270519999998,855.6147865419998,856.7461348329998,856.7461348329998,z,1.120210125000085,None,855.1270519999998,,,,,,,,,,yupa_en_2,240768,2025-07-24_13h51.05.880,MainFlow,2024.1.5,None,2025-07-24 13h51.23.444114 +0700,
2,46,1,word/worden0461.png,image/True/img46.png,0,139,139,139,857.881377958,,,,,,,859.3813193329997,858.865061,858.8899029999998,858.8899029999998,859.3696760829998,860.5145162079998,860.5145162079998,x,4.383650041999772,None,858.8899029999998,,,,,,,,,,yupa_en_2,240768,2025-07-24_13h51.05.880,MainFlow,2024.1.5,None,2025-07-24 13h51.23.444114 +0700,
2,14,1,word/worden0141.png,image/True/img14.png,0,140,140,140,864.9145536669998,,,,,,,866.4146140419998,865.8984330419999,865.923042208,865.923042208,866.4029087499998,867.534729,867.534729,z,0.9315563340001063,None,865.923042208,,,,,,,,,,yupa_en_2,240768,2025-07-24_13h51.05.880,MainFlow,2024.1.5,None,2025-07-24 13h51.23.444114 +0700,
2,66,0,word/worden0661.png,image/False/imgf66.png,0,141,141,141,868.4810778329997,,,,,,,869.9812481669996,869.4651104999998,869.490202208,869.490202208,869.9694262919998,871.0985577499996,871.0985577499996,x,0.910332292000021,None,869.490202208,,,,,,,,,,yupa_en_2,240768,2025-07-24_13h51.05.880,MainFlow,2024.1.5,None,2025-07-24 13h51.23.444114 +0700,
2,46,0,word/worden0461.png,image/False/imgf46.png,0,142,142,142,872.0229393749996,,,,,,,873.5144909169999,873.0023524169997,873.0252408749998,873.0252408749998,873.5026385419997,874.653062292,874.653062292,x,2.4286239580001165,None,,,,,,,,,,,yupa_en_2,240768,2025-07-24_13h51.05.880,MainFlow,2024.1.5,None,2025-07-24 13h51.23.444114 +0700,
2,18,1,word/worden0181.png,image/True/img18.png,0,143,143,143,877.0978396669998,,,,,,,878.5979227499997,878.0817040419997,878.105796542,878.105796542,878.5858052919998,879.6948777079997,879.6948777079997,z,3.1704173749999427,None,878.105796542,,,,,,,,,,yupa_en_2,240768,2025-07-24_13h51.05.880,MainFlow,2024.1.5,None,2025-07-24 13h51.23.444114 +0700,
2,51,0,word/worden0511.png,image/False/imgf51.png,0,144,144,144,882.8811283329997,,,,,,,884.381185792,883.8648146669998,883.8883147079996,883.8883147079996,884.3695671249998,885.4851153329996,885.4851153329996,x,0.9724467089999962,None,883.8883147079996,,,,,,,,,,yupa_en_2,240768,2025-07-24_13h51.05.880,MainFlow,2024.1.5,None,2025-07-24 13h51.23.444114 +0700,
2,76,1,word/worden0761.png,image/True/img76.png,0,145,145,145,886.472863208,,,,,,,887.9644880829997,887.4523340829996,887.4763309169998,887.4763309169998,887.9524665419999,889.083208042,889.083208042,z,1.0219000830002187,None,,,,,,,,,,,yupa_en_2,240768,2025-07-24_13h51.05.880,MainFlow,2024.1.5,None,2025-07-24 13h51.23.444114 +0700,
2,57,1,word/worden0571.png,image/True/img57.png,0,146,146,146,890.1202227919998,,,,,,,891.6135164999996,891.1016689999997,891.1156374999996,891.1156374999996,891.6016690829997,892.7256875419998,892.7256875419998,z,5.539234291999946,None,,891.6135164999996,891.6135164999996,,,,,,,,yupa_en_2,240768,2025-07-24_13h51.05.880,MainFlow,2024.1.5,None,2025-07-24 13h51.23.444114 +0700,
2,48,0,word/worden0481.png,image/False/imgf48.png,0,147,147,147,898.2810898749999,,,,,,,899.7810722499999,899.2648755,899.2883229999998,899.2883229999998,899.7689222919998,900.9131541249999,900.9131541249999,x,2.384762166999735,None,899.2883229999998,,,,,,,,,,yupa_en_2,240768,2025-07-24_13h51.05.880,MainFlow,2024.1.5,None,2025-07-24 13h51.23.444114 +0700,
2,37,0,word/worden0371.png,image/False/imgf37.png,0,148,148,148,903.3069715829997,,,,,,,904.801961958,904.286103375,904.3099667919996,904.3099667919996,904.797749458,905.9420744999998,905.9420744999998,x,2.3877443340002173,None,,,,,,,,,,,yupa_en_2,240768,2025-07-24_13h51.05.880,MainFlow,2024.1.5,None,2025-07-24 13h51.23.444114 +0700,
2,60,0,word/worden0601.png,image/False/imgf60.png,0,149,149,149,908.3392081669999,,,,,,,909.831004875,909.3147751249999,909.3388206669997,909.3388206669997,909.8189339579999,910.9470098749998,910.9470098749998,x,0.8618088749999515,None,,,,,,,,,,,yupa_en_2,240768,2025-07-24_13h51.05.880,MainFlow,2024.1.5,None,2025-07-24 13h51.23.444114 +0700,
2,24,1,word/worden0241.png,image/True/img24.png,0,150,150,150,911.822793458,,,,,,,913.3191892079999,912.8025968329998,912.8261443329998,912.8261443329998,913.3145392079996,914.4064734169997,914.4064734169997,x,2.066871583000193,None,,,,,,,,,,,yupa_en_2,240768,2025-07-24_13h51.05.880,MainFlow,2024.1.5,None,2025-07-24 13h51.23.444114 +0700,
2,40,1,word/worden0401.png,image/True/img40.png,0,151,151,151,916.4895267079996,,,,,,,917.9857320829997,917.4692379169996,917.4925759579996,917.4925759579996,917.9810818329997,919.122802333,919.122802333,z,1.934585916999822,None,,,,,,,,,,,yupa_en_2,240768,2025-07-24_13h51.05.880,MainFlow,2024.1.5,None,2025-07-24 13h51.23.444114 +0700,
2,54,1,word/worden0541.png,image/True/img54.png,0,152,152,152,921.0729562499996,,,,,,,922.56412525,922.0520141669999,922.0757160829999,922.0757160829999,922.5524786249998,923.698964917,923.698964917,z,1.1905268749997049,None,,,,,,,,,,,yupa_en_2,240768,2025-07-24_13h51.05.880,MainFlow,2024.1.5,None,2025-07-24 13h51.23.444114 +0700,
2,44,0,word/worden0441.png,image/False/imgf44.png,0,153,153,153,924.906419167,,,,,,,926.401857417,925.8855886669999,925.9095991669997,925.9095991669997,926.3976431249998,927.5316431669999,927.5316431669999,z,2.37336491699989,None,,,,,,,,,,,yupa_en_2,240768,2025-07-24_13h51.05.880,MainFlow,2024.1.5,None,2025-07-24 13h51.23.444114 +0700,
2,79,1,word/worden0791.png,image/True/img79.png,0,154,154,154,929.9221184579997,,,,,,,931.4141827919998,930.9023307079997,930.926537375,930.926537375,931.4027677919998,932.5334235,932.5334235,z,1.940003958000034,None,,,,,,,,,,,yupa_en_2,240768,2025-07-24_13h51.05.880,MainFlow,2024.1.5,None,2025-07-24 13h51.23.444114 +0700,
2,95,1,word/worden0951.png,image/True/img95.png,0,155,155,155,934.4889157919997,,,,,,,935.9850502919999,935.4691452919997,935.4930259169996,935.4930259169996,935.9808664999996,937.1154437079999,937.1154437079999,x,1.799735375000182,None,,,,,,,,,,,yupa_en_2,240768,2025-07-24_13h51.05.880,MainFlow,2024.1.5,None,2025-07-24 13h51.23.444114 +0700,
2,37,1,word/worden0371.png,image/True/img37.png,0,156,156,156,938.9308490419999,,,,,,,940.4308509169996,939.9146702919998,939.9379219999996,939.9379219999996,940.4187550829997,941.5686961249999,941.5686961249999,x,1.3045842080000511,None,939.9379219999996,,,,,,,,,,yupa_en_2,240768,2025-07-24_13h51.05.880,MainFlow,2024.1.5,None,2025-07-24 13h51.23.444114 +0700,
2,70,1,word/worden0701.png,image/True/img70.png,0,157,157,157,942.889132708,,,,,,,944.3850864169999,943.8691586669997,943.8934866249997,943.8934866249997,944.3808779999999,945.504283583,945.504283583,z,2.210205374999987,None,,,,,,,,,,,yupa_en_2,240768,2025-07-24_13h51.05.880,MainFlow,2024.1.5,None,2025-07-24 13h51.23.444114 +0700,
2,40,1,word/worden0401.png,image/True/img40.png,0,158,158,158,947.7308342919996,,,,,,,949.2307329579999,948.7145060419998,948.7374670419999,948.7374670419999,949.218583542,950.3669444999996,950.3669444999996,z,0.9859771669998736,None,948.7374670419999,,,,,,,,,,yupa_en_2,240768,2025-07-24_13h51.05.880,MainFlow,2024.1.5,None,2025-07-24 13h51.23.444114 +0700,
2,30,0,word/worden0301.png,image/False/imgf30.png,0,159,159,159,951.3694756249997,,,,,,,952.8683404579997,952.3524901249998,952.3762140419999,952.3762140419999,952.864170542,953.9779424169997,953.9779424169997,x,2.3279536249997363,None,952.3762140419999,,,,,,,,,,yupa_en_2,240768,2025-07-24_13h51.05.880,MainFlow,2024.1.5,None,2025-07-24 13h51.23.444114 +0700,
2,88,1,word/worden0881.png,image/True/img88.png,0,160,160,160,956.322449625,,,,,,,957.8183467919998,957.302098833,957.3254837499999,957.3254837499999,957.8141765829996,958.9447931669997,958.9447931669997,z,0.9047862080001323,None,,,,,,,,,,,yupa_en_2,240768,2025-07-24_13h51.05.880,MainFlow,2024.1.5,None,2025-07-24 13h51.23.444114 +0700,
2,15,1,word/worden0151.png,image/True/img15.png,0,161,161,161,959.8638823749998,,,,,,,961.36416775,960.847715417,960.8705343329998,960.8705343329998,961.3518786249997,962.491339958,962.491339958,z,0.8782712500001253,None,960.8705343329998,,,,,,,,,,yupa_en_2,240768,2025-07-24_13h51.05.880,MainFlow,2024.1.5,None,2025-07-24 13h51.23.444114 +0700,
2,54,1,word/worden0541.png,image/True/img54.png,0,162,162,162,963.3862372919998,,,,,,,964.8807681669996,964.3686114999996,964.3916772079997,964.3916772079997,964.8686760419996,966.0157742499996,966.0157742499996,z,0.9043560830000388,None,,,,,,,,,,,yupa_en_2,240768,2025-07-24_13h51.05.880,MainFlow,2024.1.5,None,2025-07-24 13h51.23.444114 +0700,
2,11,0,word/worden0111.png,image/False/imgf11.png,0,163,163,163,966.9363659579999,,,,,,,968.43066125,967.9190775829998,967.9441313749999,967.9441313749999,968.4192349579998,969.5676953329998,969.5676953329998,x,1.010733749999872,None,967.9441313749999,,,,,,,,,,yupa_en_2,240768,2025-07-24_13h51.05.880,MainFlow,2024.1.5,None,2025-07-24 13h51.23.444114 +0700,
2,16,1,word/worden0161.png,image/True/img16.png,0,164,164,164,970.588809458,,,,,,,972.0850311669997,971.5690545419998,971.5949909169999,971.5949909169999,972.080709375,973.2194518329998,973.2194518329998,x,1.0955331670002124,None,,,,,,,,,,,yupa_en_2,240768,2025-07-24_13h51.05.880,MainFlow,2024.1.5,None,2025-07-24 13h51.23.444114 +0700,
2,1,1,word/worden0011.png,image/True/img01.png,0,165,165,165,974.330701333,,,,,,,975.8306205419999,975.3143938329999,975.3386034579999,975.3386034579999,975.8185174579999,976.9553940419996,976.9553940419996,z,0.9254994170000828,None,975.3386034579999,,,,,,,,,,yupa_en_2,240768,2025-07-24_13h51.05.880,MainFlow,2024.1.5,None,2025-07-24 13h51.23.444114 +0700,
2,22,0,word/worden0221.png,image/False/imgf22.png,0,166,166,166,977.8971712079997,,,,,,,979.397329208,978.8810987499996,978.9055008749997,978.9055008749997,979.3851526669996,980.526380625,980.526380625,x,2.0835462499999267,None,978.9055008749997,,,,,,,,,,yupa_en_2,240768,2025-07-24_13h51.05.880,MainFlow,2024.1.5,None,2025-07-24 13h51.23.444114 +0700,
2,63,1,word/worden0631.png,image/True/img63.png,0,167,167,167,982.6226285419998,,,,,,,984.1180948329998,983.6019952919996,983.6245323329999,983.6245323329999,984.1140432919997,985.2379470419996,985.2379470419996,x,4.915458166999997,None,,,,,,,,,,,yupa_en_2,240768,2025-07-24_13h51.05.880,MainFlow,2024.1.5,None,2025-07-24 13h51.23.444114 +0700,
2,87,1,word/worden0871.png,image/True/img87.png,0,168,168,168,990.172420417,,,,,,,991.6638418749999,991.151764875,991.1752940419997,991.1752940419997,991.6522963329999,992.7901968329998,992.7901968329998,z,5.834839125000144,None,,,,,,,,,,,yupa_en_2,240768,2025-07-24_13h51.05.880,MainFlow,2024.1.5,None,2025-07-24 13h51.23.444114 +0700,
2,57,0,word/worden0571.png,image/False/imgf57.png,0,169,169,169,998.6384364999999,,,,,,,1000.1305027079998,999.6190052079996,999.6423572079998,999.6423572079998,1000.119090875,1001.2565180829997,1001.2565180829997,x,1.6573142080001162,None,,,,,,,,,,,yupa_en_2,240768,2025-07-24_13h51.05.880,MainFlow,2024.1.5,None,2025-07-24 13h51.23.444114 +0700,
2,94,0,word/worden0941.png,image/False/imgf94.png,0,170,170,170,1002.922619125,,,,,,,1004.4137802079999,1003.9021155419996,1003.9274177079997,1003.9274177079997,1004.4023954999998,1005.5495976249999,1005.5495976249999,x,1.1322874580000644,None,,,,,,,,,,,yupa_en_2,240768,2025-07-24_13h51.05.880,MainFlow,2024.1.5,None,2025-07-24 13h51.23.444114 +0700,
2,93,0,word/worden0931.png,image/False/imgf93.png,0,171,171,171,1006.6969507079998,,,,,,,1008.1971362919999,1007.681013292,1007.7051042919998,1007.7051042919998,1008.1855419999997,1009.2982738749997,1009.2982738749997,x,1.5760789579999255,None,1007.7051042919998,,,,,,,,,,yupa_en_2,240768,2025-07-24_13h51.05.880,MainFlow,2024.1.5,None,2025-07-24 13h51.23.444114 +0700,
2,61,1,word/worden0611.png,image/True/img61.png,0,172,172,172,1010.8888890829999,,,,,,,1012.3805133749997,1011.868644958,1011.892155,1011.892155,1012.3687009169998,1013.4975796669996,1013.4975796669996,z,2.0480250000000524,None,,,,,,,,,,,yupa_en_2,240768,2025-07-24_13h51.05.880,MainFlow,2024.1.5,None,2025-07-24 13h51.23.444114 +0700,
2,28,1,word/worden0281.png,image/True/img28.png,0,173,173,173,1015.555193958,,,,,,,1017.0513003329997,1016.5352412919997,1016.558800625,1016.558800625,1017.047072333,1018.1825225829998,1018.1825225829998,z,2.7795942090001517,None,,,,,,,,,,,yupa_en_2,240768,2025-07-24_13h51.05.880,MainFlow,2024.1.5,None,2025-07-24 13h51.23.444114 +0700,
2,46,1,word/worden0461.png,image/True/img46.png,0,174,174,174,1020.9719059579998,,,,,,,1022.4680297919999,1021.9521827499998,1021.9760139999999,1021.9760139999999,1022.4638597079997,1023.6000921669997,1023.6000921669997,z,1.0492316249997202,None,,,,,,,,,,,yupa_en_2,240768,2025-07-24_13h51.05.880,MainFlow,2024.1.5,None,2025-07-24 13h51.23.444114 +0700,
2,22,1,word/worden0221.png,image/True/img22.png,0,175,175,175,1024.663587083,,,,,,,1026.1638037919997,1025.6473972079998,1025.6708187079998,1025.6708187079998,1026.1522445829996,1027.3072483329997,1027.3072483329997,z,0.9496619999999893,None,1025.6708187079998,,,,,,,,,,yupa_en_2,240768,2025-07-24_13h51.05.880,MainFlow,2024.1.5,None,2025-07-24 13h51.23.444114 +0700,
2,93,1,word/worden0931.png,image/True/img93.png,0,176,176,176,1028.27185625,,,,,,,1029.768006583,1029.2521550829997,1029.2757428749997,1029.2757428749997,1029.763759208,1030.8723552079996,1030.8723552079996,z,2.080034125000111,None,,,,,,,,,,,yupa_en_2,240768,2025-07-24_13h51.05.880,MainFlow,2024.1.5,None,2025-07-24 13h51.23.444114 +0700,
2,95,1,word/worden0951.png,image/True/img95.png,0,177,177,177,1032.969074833,,,,,,,1034.4636436249998,1033.951451333,1033.9738712079998,1033.9738712079998,1034.4520695419997,1035.5975772079996,1035.5975772079996,x,2.7712655830000585,None,,,,,,,,,,,yupa_en_2,240768,2025-07-24_13h51.05.880,MainFlow,2024.1.5,None,2025-07-24 13h51.23.444114 +0700,
2,17,0,word/worden0171.png,image/False/imgf17.png,0,178,178,178,1038.385113625,,,,,,,1039.8803611669996,1039.363989,1039.3884578749999,1039.3884578749999,1039.8682868749997,1041.0019589169997,1041.0019589169997,z,1.295398041000226,None,,,,,,,,,,,yupa_en_2,240768,2025-07-24_13h51.05.880,MainFlow,2024.1.5,None,2025-07-24 13h51.23.444114 +0700,
2,26,1,word/worden0261.png,image/True/img26.png,0,179,179,179,1042.3136168329997,,,,,,,1043.8136489999997,1043.297336958,1043.321249917,1043.321249917,1043.801642208,1044.9431124169996,1044.9431124169996,x,3.73044495799968,None,1043.321249917,,,,,,,,,,yupa_en_2,240768,2025-07-24_13h51.05.880,MainFlow,2024.1.5,None,2025-07-24 13h51.23.444114 +0700,
2,27,1,word/worden0271.png,image/True/img27.png,0,180,180,180,1048.688763792,,,,,,,1050.1849994999998,1049.6685534999997,1049.692235167,1049.692235167,1050.1803328329997,1051.2907814579999,1051.2907814579999,z,0.95783237500018,None,,,,,,,,,,,yupa_en_2,240768,2025-07-24_13h51.05.880,MainFlow,2024.1.5,None,2025-07-24 13h51.23.444114 +0700,
2,31,1,word/worden0311.png,image/True/img31.png,0,181,181,181,1052.26343525,,,,,,,1053.7634968749999,1053.2474187079997,1053.2710494999997,1053.2710494999997,1053.751477458,1054.8726121249997,1054.8726121249997,x,4.312844000000041,None,1053.2710494999997,,,,,,,,,,yupa_en_2,240768,2025-07-24_13h51.05.880,MainFlow,2024.1.5,None,2025-07-24 13h51.23.444114 +0700,
2,33,0,word/worden0331.png,image/False/imgf33.png,0,182,182,182,1059.2018431249999,,,,,,,1060.6969097919996,1060.180610417,1060.2050920419997,1060.2050920419997,1060.684863208,1061.817021208,1061.817021208,x,2.4969590000000608,None,,,,,,,,,,,yupa_en_2,240768,2025-07-24_13h51.05.880,MainFlow,2024.1.5,None,2025-07-24 13h51.23.444114 +0700,
2,59,1,word/worden0591.png,image/True/img59.png,0,183,183,183,1064.330099667,,,,,,,1065.830188,1065.314093,1065.3378652919996,1065.3378652919996,1065.8181341249997,1066.9231448749997,1066.9231448749997,z,4.718170915999963,None,1065.3378652919996,,,,,,,,,,yupa_en_2,240768,2025-07-24_13h51.05.880,MainFlow,2024.1.5,None,2025-07-24 13h51.23.444114 +0700,
2,8,1,word/worden0081.png,image/True/img08.png,0,184,184,184,1071.6551626249998,,,,,,,1073.1510105829998,1072.635008625,1072.6590139169998,1072.6590139169998,1073.146840125,1074.249527125,1074.249527125,z,0.8869173749999391,None,,,,,,,,,,,yupa_en_2,240768,2025-07-24_13h51.05.880,MainFlow,2024.1.5,None,2025-07-24 13h51.23.444114 +0700,
2,63,0,word/worden0631.png,image/False/imgf63.png,0,185,185,185,1075.1522190419996,,,,,,,1076.6515157079998,1076.135023417,1076.1579804579997,1076.1579804579997,1076.6468610419997,1077.7746089579996,1077.7746089579996,z,3.0658979999998337,None,1076.1579804579997,,,,,,,,,,yupa_en_2,240768,2025-07-24_13h51.05.880,MainFlow,2024.1.5,None,2025-07-24 13h51.23.444114 +0700,
2,30,0,word/worden0301.png,image/False/imgf30.png,0,186,186,186,1080.8554345419998,,,,,,,1082.3513417499998,1081.8351335829998,1081.8579304579998,1081.8579304579998,1082.3469269999996,1083.4627447079997,1083.4627447079997,x,3.8019323749999785,None,,,,,,,,,,,yupa_en_2,240768,2025-07-24_13h51.05.880,MainFlow,2024.1.5,None,2025-07-24 13h51.23.444114 +0700,
2,15,0,word/worden0151.png,image/False/imgf15.png,0,187,187,187,1087.2799184579999,,,,,,,1088.780069292,1088.263896167,1088.287591583,1088.287591583,1088.7682131249999,1089.8929614579997,1089.8929614579997,x,0.7243368750000627,None,1088.287591583,,,,,,,,,,yupa_en_2,240768,2025-07-24_13h51.05.880,MainFlow,2024.1.5,None,2025-07-24 13h51.23.444114 +0700,
2,71,0,word/worden0711.png,image/False/imgf71.png,0,188,188,188,1090.630046708,,,,,,,1092.1300563749996,1091.6138014169996,1091.6380854579998,1091.6380854579998,1092.118490583,1093.265990208,1093.265990208,x,1.6153070420000404,None,1091.6380854579998,,,,,,,,,,yupa_en_2,240768,2025-07-24_13h51.05.880,MainFlow,2024.1.5,None,2025-07-24 13h51.23.444114 +0700,
2,10,0,word/worden0101.png,image/False/imgf10.png,0,189,189,189,1094.8966784579998,,,,,,,1096.3967439169996,1095.8802968329996,1095.904236375,1095.904236375,1096.3848751669998,1097.511059125,1097.511059125,x,4.0666979160000665,None,1095.904236375,,,,,,,,,,yupa_en_2,240768,2025-07-24_13h51.05.880,MainFlow,2024.1.5,None,2025-07-24 13h51.23.444114 +0700,
2,54,0,word/worden0541.png,image/False/imgf54.png,0,190,190,190,1101.5879861669996,,,,,,,1103.0843485,1102.5680977499997,1102.5912269579999,1102.5912269579999,1103.08015875,1104.1985910419999,1104.1985910419999,x,0.9538137499998811,None,,,,,,,,,,,yupa_en_2,240768,2025-07-24_13h51.05.880,MainFlow,2024.1.5,None,2025-07-24 13h51.23.444114 +0700,
2,60,0,word/worden0601.png,image/False/imgf60.png,0,191,191,191,1105.1687709579996,,,,,,,1106.667659625,1106.151286417,1106.1742548329998,1106.1742548329998,1106.6634325,1107.7815008329999,1107.7815008329999,x,0.8834964160000709,None,,,,,,,,,,,yupa_en_2,240768,2025-07-24_13h51.05.880,MainFlow,2024.1.5,None,2025-07-24 13h51.23.444114 +0700,
2,16,0,word/worden0161.png,image/False/imgf16.png,0,192,192,192,1108.679978833,,,,,,,1110.1798452919998,1109.6636372919997,1109.6877829579998,1109.6877829579998,1110.1677190419996,1111.307613167,1111.307613167,x,1.038418166000156,None,1109.6877829579998,,,,,,,,,,yupa_en_2,240768,2025-07-24_13h51.05.880,MainFlow,2024.1.5,None,2025-07-24 13h51.23.444114 +0700,
2,50,1,word/worden0501.png,image/True/img50.png,0,193,193,193,1112.355182708,,,,,,,1113.8466158749998,1113.3344284999998,1113.3585413749997,1113.3585413749997,1113.8347824169996,1114.962938833,1114.962938833,x,3.8700020420001238,None,,,,,,,,,,,yupa_en_2,240768,2025-07-24_13h51.05.880,MainFlow,2024.1.5,None,2025-07-24 13h51.23.444114 +0700,
2,63,1,word/worden0631.png,image/True/img63.png,0,194,194,194,1118.8465611249999,,,,,,,1120.3465038329996,1119.830079167,1119.8529993749999,1119.8529993749999,1120.3344279169996,1121.46474575,1121.46474575,z,1.3447853749999013,None,1119.8529993749999,,,,,,,,,,yupa_en_2,240768,2025-07-24_13h51.05.880,MainFlow,2024.1.5,None,2025-07-24 13h51.23.444114 +0700,
2,24,0,word/worden0241.png,image/False/imgf24.png,0,195,195,195,1122.821944542,,,,,,,1124.3132393329997,1123.8009000419997,1123.8238407499998,1123.8238407499998,1124.3018682499996,1125.421571208,1125.421571208,x,2.451873875000274,None,,,,,,,,,,,yupa_en_2,240768,2025-07-24_13h51.05.880,MainFlow,2024.1.5,None,2025-07-24 13h51.23.444114 +0700,
2,89,0,word/worden0891.png,image/False/imgf89.png,0,196,196,196,1127.888646125,,,,,,,1129.3797974999998,1128.8677888749999,1128.8914112079997,1128.8914112079997,1129.3683742499998,1130.4922124999998,1130.4922124999998,x,7.229305333999946,None,,,,,,,,,,,yupa_en_2,240768,2025-07-24_13h51.05.880,MainFlow,2024.1.5,None,2025-07-24 13h51.23.444114 +0700,
2,6,0,word/worden0061.png,image/False/imgf06.png,0,197,197,197,1137.738119792,,,,,,,1139.229791458,1138.717570375,1138.7410058749997,1138.7410058749997,1139.218239417,1140.33283425,1140.33283425,x,1.50715158300045,None,,,,,,,,,,,yupa_en_2,240768,2025-07-24_13h51.05.880,MainFlow,2024.1.5,None,2025-07-24 13h51.23.444114 +0700,
2,41,0,word/worden0411.png,image/False/imgf41.png,0,198,198,198,1141.855315375,,,,,,,1143.3507854999998,1142.8345396249997,1142.8580916669998,1142.8580916669998,1143.3465564999997,1144.4408653329997,1144.4408653329997,x,2.6569567909996294,None,,,,,,,,,,,yupa_en_2,240768,2025-07-24_13h51.05.880,MainFlow,2024.1.5,None,2025-07-24 13h51.23.444114 +0700,
2,79,0,word/worden0791.png,image/False/imgf79.png,0,199,199,199,1147.11299775,,,,,,,1148.612988167,1148.096861083,1148.1214245419997,1148.1214245419997,1148.6010015419997,1149.7361927499996,1149.7361927499996,x,1.1293629580000015,None,1148.1214245419997,,,,,,,,,,yupa_en_2,240768,2025-07-24_13h51.05.880,MainFlow,2024.1.5,None,2025-07-24 13h51.23.444114 +0700,
2,70,1,word/worden0701.png,image/True/img70.png,0,200,200,200,1150.8796430419998,,,,,,,1152.3797395829997,1151.863372458,1151.8884479169997,1151.8884479169997,1152.367498917,1153.5009194579998,1153.5009194579998,z,3.4440571669997553,None,1151.8884479169997,,,,,,,,,,yupa_en_2,240768,2025-07-24_13h51.05.880,MainFlow,2024.1.5,None,2025-07-24 13h51.23.444114 +0700,
2,31,1,word/worden0311.png,image/True/img31.png,0,201,201,201,1156.9549776669996,,,,,,,1158.45072575,1157.9344718749999,1157.9586730419996,1157.9586730419996,1158.4464786669996,1159.560709125,1159.560709125,z,1.7281787090000762,None,,,,,,,,,,,yupa_en_2,240768,2025-07-24_13h51.05.880,MainFlow,2024.1.5,None,2025-07-24 13h51.23.444114 +0700,
2,9,1,word/worden0091.png,image/True/img09.png,0,202,202,202,1161.3045659169998,,,,,,,1162.796198,1162.2844647919997,1162.3080191249996,1162.3080191249996,1162.7847620829998,1163.8847349169996,1163.8847349169996,x,2.462161874999765,None,,,,,,,,,,,yupa_en_2,240768,2025-07-24_13h51.05.880,MainFlow,2024.1.5,None,2025-07-24 13h51.23.444114 +0700,
2,27,1,word/worden0271.png,image/True/img27.png,0,203,203,203,1166.3628100829997,,,,,,,1167.862899792,1167.3465973749999,1167.3701274999999,1167.3701274999999,1167.850624833,1168.9701371249998,1168.9701371249998,z,1.0232693329999165,None,1167.3701274999999,,,,,,,,,,yupa_en_2,240768,2025-07-24_13h51.05.880,MainFlow,2024.1.5,None,2025-07-24 13h51.23.444114 +0700,
2,75,0,word/worden0751.png,image/False/imgf75.png,0,204,204,204,1170.0046672919998,,,,,,,1171.5005932919998,1170.9841421669998,1171.0076447079996,1171.0076447079996,1171.4963437499996,1172.6158699169996,1172.6158699169996,x,0.7687205830002313,None,,,,,,,,,,,yupa_en_2,240768,2025-07-24_13h51.05.880,MainFlow,2024.1.5,None,2025-07-24 13h51.23.444114 +0700,
2,87,0,word/worden0871.png,image/False/imgf87.png,0,205,205,205,1173.401301167,,,,,,,1174.896159333,1174.3800328329999,1174.40429675,1174.40429675,1174.884094083,1176.002746958,1176.002746958,x,1.9336361250002483,None,,,,,,,,,,,yupa_en_2,240768,2025-07-24_13h51.05.880,MainFlow,2024.1.5,None,2025-07-24 13h51.23.444114 +0700,
2,8,0,word/worden0081.png,image/False/imgf08.png,0,206,206,206,1177.954497875,,,,,,,1179.4504820829998,1178.934396833,1178.9580217499997,1178.9580217499997,1179.4462562919998,1180.5474650419997,1180.5474650419997,x,0.7258674169997903,None,,,,,,,,,,,yupa_en_2,240768,2025-07-24_13h51.05.880,MainFlow,2024.1.5,None,2025-07-24 13h51.23.444114 +0700,
2,24,1,word/worden0241.png,image/True/img24.png,0,207,207,207,1181.287769,,,,,,,1182.779546458,1182.2672252919997,1182.2904843329998,1182.2904843329998,1182.767290417,1183.8727477079997,1183.8727477079997,x,2.311773416000051,None,,,,,,,,,,,yupa_en_2,240768,2025-07-24_13h51.05.880,MainFlow,2024.1.5,None,2025-07-24 13h51.23.444114 +0700,
2,14,1,word/worden0141.png,image/True/img14.png,0,208,208,208,1186.1954222919999,,,,,,,1187.696160125,1187.1798853329997,1187.203394708,1187.203394708,1187.6842850829998,1188.8130311249997,1188.8130311249997,z,0.8355981250001605,None,1187.203394708,,,,,,,,,,yupa_en_2,240768,2025-07-24_13h51.05.880,MainFlow,2024.1.5,None,2025-07-24 13h51.23.444114 +0700,
2,87,1,word/worden0871.png,image/True/img87.png,0,209,209,209,1189.662864125,,,,,,,1191.1629922919997,1190.6466218329997,1190.6707911669996,1190.6707911669996,1191.1506565,1192.2848797079996,1192.2848797079996,z,5.732961500000329,None,1190.6707911669996,,,,,,,,,,yupa_en_2,240768,2025-07-24_13h51.05.880,MainFlow,2024.1.5,None,2025-07-24 13h51.23.444114 +0700,
2,42,0,word/worden0421.png,image/False/imgf42.png,0,210,210,210,1198.0286059169998,,,,,,,1199.5294535829998,1199.0131556669999,1199.0368952499998,1199.0368952499998,1199.5174108329998,1200.6622873329998,1200.6622873329998,x,1.1308777500003089,None,1199.0368952499998,,,,,,,,,,yupa_en_2,240768,2025-07-24_13h51.05.880,MainFlow,2024.1.5,None,2025-07-24 13h51.23.444114 +0700,
2,48,0,word/worden0481.png,image/False/imgf48.png,0,211,211,211,1201.8043808329999,,,,,,,1203.296242417,1202.7837721669998,1202.8072255829998,1202.8072255829998,1203.283983375,1204.4326616669996,1204.4326616669996,x,1.2078437919999487,None,,,,,,,,,,,yupa_en_2,240768,2025-07-24_13h51.05.880,MainFlow,2024.1.5,None,2025-07-24 13h51.23.444114 +0700,
2,56,0,word/worden0561.png,image/False/imgf56.png,0,212,212,212,1205.6542151669996,,,,,,,1207.150284542,1206.634311458,1206.6579260419999,1206.6579260419999,1207.1459768749996,1208.2860274169998,1208.2860274169998,x,5.227284457999758,None,,,,,,,,,,,yupa_en_2,240768,2025-07-24_13h51.05.880,MainFlow,2024.1.5,None,2025-07-24 13h51.23.444114 +0700,
2,18,0,word/worden0181.png,image/False/imgf18.png,0,213,213,213,1213.5294166669996,,,,,,,1215.029407042,1214.5130611669997,1214.537387458,1214.537387458,1215.0173392499996,1216.140759083,1216.140759083,z,3.027841042000091,None,1214.537387458,,,,,,,,,,yupa_en_2,240768,2025-07-24_13h51.05.880,MainFlow,2024.1.5,None,2025-07-24 13h51.23.444114 +0700,
2,18,0,word/worden0181.png,image/False/imgf18.png,0,214,214,214,1219.1847900419998,,,,,,,1220.6834694999998,1220.167512125,1220.191015083,1220.191015083,1220.6792664169998,1221.7963085419997,1221.7963085419997,z,0.8687879160002012,None,1220.191015083,,,,,,,,,,yupa_en_2,240768,2025-07-24_13h51.05.880,MainFlow,2024.1.5,None,2025-07-24 13h51.23.444114 +0700,
2,9,0,word/worden0091.png,image/False/imgf09.png,0,215,215,215,1222.679238792,,,,,,,1224.1792273329997,1223.6630894169998,1223.6867591249998,1223.6867591249998,1224.167229875,1225.272788792,1225.272788792,x,3.9368286249996345,None,1223.6867591249998,,,,,,,,,,yupa_en_2,240768,2025-07-24_13h51.05.880,MainFlow,2024.1.5,None,2025-07-24 13h51.23.444114 +0700,
2,55,0,word/worden0551.png,image/False/imgf55.png,0,216,216,216,1229.2208619169996,,,,,,,1230.71686,1230.200975792,1230.22575125,1230.22575125,1230.7126356249996,1231.8294931669998,1231.8294931669998,x,3.219019499999831,None,,,,,,,,,,,yupa_en_2,240768,2025-07-24_13h51.05.880,MainFlow,2024.1.5,None,2025-07-24 13h51.23.444114 +0700,
2,17,0,word/worden0171.png,image/False/imgf17.png,0,217,217,217,1235.0623813329998,,,,,,,1236.5624679579996,1236.046352375,1236.0710219169996,1236.0710219169996,1236.5505014999999,1237.6847042919999,1237.6847042919999,z,0.9249136670000553,None,1236.0710219169996,,,,,,,,,,yupa_en_2,240768,2025-07-24_13h51.05.880,MainFlow,2024.1.5,None,2025-07-24 13h51.23.444114 +0700,
2,50,1,word/worden0501.png,image/True/img50.png,0,218,218,218,1238.6210341669998,,,,,,,1240.1124472499996,1239.600256583,1239.6240883329997,1239.6240883329997,1240.1003495,1241.229712333,1241.229712333,z,1.0184600420002425,None,,,,,,,,,,,yupa_en_2,240768,2025-07-24_13h51.05.880,MainFlow,2024.1.5,None,2025-07-24 13h51.23.444114 +0700,
2,20,0,word/worden0201.png,image/False/imgf20.png,0,219,219,219,1242.2624499579997,,,,,,,1243.7624701669997,1243.246231917,1243.272473042,1243.272473042,1243.7503392499998,1244.902550542,1244.902550542,x,1.24360683399982,None,1243.272473042,,,,,,,,,,yupa_en_2,240768,2025-07-24_13h51.05.880,MainFlow,2024.1.5,None,2025-07-24 13h51.23.444114 +0700,
2,36,0,word/worden0361.png,image/False/imgf36.png,0,220,220,220,1246.1624564169997,,,,,,,1247.6624876249998,1247.146268,1247.170518042,1247.170518042,1247.6504009579999,1248.7794012919999,1248.7794012919999,x,0.9890258749996974,None,1247.170518042,,,,,,,,,,yupa_en_2,240768,2025-07-24_13h51.05.880,MainFlow,2024.1.5,None,2025-07-24 13h51.23.444114 +0700,
2,7,0,word/worden0071.png,image/False/imgf07.png,0,221,221,221,1249.784500625,,,,,,,1251.2790922919999,1250.7668397919997,1250.790719792,1250.790719792,1251.266978875,1252.398018458,1252.398018458,x,2.3149130830001923,None,,,,,,,,,,,yupa_en_2,240768,2025-07-24_13h51.05.880,MainFlow,2024.1.5,None,2025-07-24 13h51.23.444114 +0700,
2,7,1,word/worden0071.png,image/True/img07.png,0,222,222,222,1254.7291874169996,,,,,,,1256.2289812499998,1255.7129609579997,1255.7360759579997,1255.7360759579997,1256.217440083,1257.3575139999998,1257.3575139999998,z,5.8918282499998895,None,1255.7360759579997,,,,,,,,,,yupa_en_2,240768,2025-07-24_13h51.05.880,MainFlow,2024.1.5,None,2025-07-24 13h51.23.444114 +0700,
2,70,0,word/worden0701.png,image/False/imgf70.png,0,223,223,223,1263.262217083,,,,,,,1264.7623627499997,1264.2462207079998,1264.2700785419997,1264.2700785419997,1264.7503319999996,1265.874755542,1265.874755542,x,1.7827065839996976,None,1264.2700785419997,,,,,,,,,,yupa_en_2,240768,2025-07-24_13h51.05.880,MainFlow,2024.1.5,None,2025-07-24 13h51.23.444114 +0700,
2,68,0,word/worden0681.png,image/False/imgf68.png,0,224,224,224,1267.6708237499997,,,,,,,1269.1623936669998,1268.6500616669996,1268.6738368749998,1268.6738368749998,1269.15031275,1270.2619357079998,1270.2619357079998,z,0.9386958340001001,None,,,,,,,,,,,yupa_en_2,240768,2025-07-24_13h51.05.880,MainFlow,2024.1.5,None,2025-07-24 13h51.23.444114 +0700,
2,23,0,word/worden0231.png,image/False/imgf23.png,0,225,225,225,1271.2124367499996,,,,,,,1272.712335625,1272.19606725,1272.2195833749997,1272.2195833749997,1272.700189917,1273.8537079169996,1273.8537079169996,x,2.156325041999935,None,1272.2195833749997,,,,,,,,,,yupa_en_2,240768,2025-07-24_13h51.05.880,MainFlow,2024.1.5,None,2025-07-24 13h51.23.444114 +0700,
2,56,0,word/worden0561.png,image/False/imgf56.png,0,226,226,226,1276.0211609579997,,,,,,,1277.5165970829999,1277.000673042,1277.0246789999997,1277.0246789999997,1277.512437417,1278.652632667,1278.652632667,x,1.6686834160000217,None,,,,,,,,,,,yupa_en_2,240768,2025-07-24_13h51.05.880,MainFlow,2024.1.5,None,2025-07-24 13h51.23.444114 +0700,
2,17,1,word/worden0171.png,image/True/img17.png,0,227,227,227,1280.3376614169997,,,,,,,1281.8334230419996,1281.3172638749998,1281.3411042919997,1281.3411042919997,1281.829171333,1282.946527958,1282.946527958,z,2.3502865000000384,None,,,,,,,,,,,yupa_en_2,240768,2025-07-24_13h51.05.880,MainFlow,2024.1.5,None,2025-07-24 13h51.23.444114 +0700,
2,94,1,word/worden0941.png,image/True/img94.png,0,228,228,228,1285.3121524999997,,,,,,,1286.8122745419996,1286.2960182919996,1286.3209211669996,1286.3209211669996,1286.8001884999999,1287.9218201669996,1287.9218201669996,z,1.0469418749999022,None,1286.3209211669996,,,,,,,,,,yupa_en_2,240768,2025-07-24_13h51.05.880,MainFlow,2024.1.5,None,2025-07-24 13h51.23.444114 +0700,
2,96,0,word/worden0961.png,image/False/imgf96.png,0,229,229,229,1288.9874923329999,,,,,,,1290.4788857919998,1289.966757917,1289.9907102919997,1289.9907102919997,1290.4668095829998,1291.6058199999998,1291.6058199999998,x,8.867620707999777,None,,,,,,,,,,,yupa_en_2,240768,2025-07-24_13h51.05.880,MainFlow,2024.1.5,None,2025-07-24 13h51.23.444114 +0700,
2,82,0,word/worden0821.png,image/False/imgf82.png,0,230,230,230,1300.4870227919996,,,,,,,1301.9831315419997,1301.4671814169997,1301.4913481669996,1301.4913481669996,1301.9789274169998,1303.094358417,1303.094358417,x,4.835013375000017,None,,,,,,,,,,,yupa_en_2,240768,2025-07-24_13h51.05.880,MainFlow,2024.1.5,None,2025-07-24 13h51.23.444114 +0700,
2,36,1,word/worden0361.png,image/True/img36.png,0,231,231,231,1307.9454342499998,,,,,,,1309.4455309999998,1308.9292972919998,1308.952742292,1308.952742292,1309.433311625,1310.5522443749996,1310.5522443749996,z,0.7769459999999526,None,1308.952742292,,,,,,,,,,yupa_en_2,240768,2025-07-24_13h51.05.880,MainFlow,2024.1.5,None,2025-07-24 13h51.23.444114 +0700,
2,44,1,word/worden0441.png,image/True/img44.png,0,232,232,232,1311.3455503749997,,,,,,,1312.8455973749997,1312.3290617919997,1312.3522390419998,1312.3522390419998,1312.8332377079996,1313.9516954169999,1313.9516954169999,z,0.873560333000114,None,1312.3522390419998,,,,,,,,,,yupa_en_2,240768,2025-07-24_13h51.05.880,MainFlow,2024.1.5,None,2025-07-24 13h51.23.444114 +0700,
2,66,1,word/worden0661.png,image/True/img66.png,0,233,233,233,1314.836928625,,,,,,,1316.333055833,1315.817016083,1315.8408527079996,1315.8408527079996,1316.3288871669997,1317.450337583,1317.450337583,z,0.8790653330001987,None,,,,,,,,,,,yupa_en_2,240768,2025-07-24_13h51.05.880,MainFlow,2024.1.5,None,2025-07-24 13h51.23.444114 +0700,
2,38,0,word/worden0381.png,image/False/imgf38.png,0,234,234,234,1318.3455285,,,,,,,1319.8454588329996,1319.329172833,1319.3534258329996,1319.3534258329996,1319.833317875,1320.9868884999996,1320.9868884999996,x,1.5589837500001522,None,1319.3534258329996,,,,,,,,,,yupa_en_2,240768,2025-07-24_13h51.05.880,MainFlow,2024.1.5,None,2025-07-24 13h51.23.444114 +0700,
2,11,1,word/worden0111.png,image/True/img11.png,0,235,235,235,1322.562157167,,,,,,,1324.0620749169998,1323.545754375,1323.5694894999997,1323.5694894999997,1324.0499069169996,1325.2036118749998,1325.2036118749998,z,1.2852725830002782,None,1323.5694894999997,,,,,,,,,,yupa_en_2,240768,2025-07-24_13h51.05.880,MainFlow,2024.1.5,None,2025-07-24 13h51.23.444114 +0700,
2,94,1,word/worden0941.png,image/True/img94.png,0,236,236,236,1326.5036511669996,,,,,,,1327.9953341249998,1327.4831612079997,1327.5064969579998,1327.5064969579998,1327.9832054579997,1329.1071730419999,1329.1071730419999,z,3.477762250000069,None,,,,,,,,,,,yupa_en_2,240768,2025-07-24_13h51.05.880,MainFlow,2024.1.5,None,2025-07-24 13h51.23.444114 +0700,
2,28,0,word/worden0281.png,image/False/imgf28.png,0,237,237,237,1332.6007449999997,,,,,,,1334.0954282079997,1333.5829664579996,1333.606169833,1333.606169833,1334.0830917079998,1335.211981167,1335.211981167,x,4.869126624999808,None,,,,,,,,,,,yupa_en_2,240768,2025-07-24_13h51.05.880,MainFlow,2024.1.5,None,2025-07-24 13h51.23.444114 +0700,
2,61,1,word/worden0611.png,image/True/img61.png,0,238,238,238,1340.0952149999998,,,,,,,1341.5954000829997,1341.079027542,1341.1026809169998,1341.1026809169998,1341.583265833,1342.7090964169997,1342.7090964169997,z,1.140063167000335,None,1341.1026809169998,,,,,,,,,,yupa_en_2,240768,2025-07-24_13h51.05.880,MainFlow,2024.1.5,None,2025-07-24 13h51.23.444114 +0700,
2,41,1,word/worden0411.png,image/True/img41.png,0,239,239,239,1343.8620099579998,,,,,,,1345.3618955829998,1344.84578075,1344.8698248749997,1344.8698248749997,1345.349821417,1346.487233333,1346.487233333,x,1.274251791000097,None,1344.8698248749997,,,,,,,,,,yupa_en_2,240768,2025-07-24_13h51.05.880,MainFlow,2024.1.5,None,2025-07-24 13h51.23.444114 +0700,
,,,,,,,,,,,,,,,,,,,,,,,,,,,,,1347.763151958,1347.769695083,1347.769695083,1359.5292645,space,11.750210582999898,None,yupa_en_2,240768,2025-07-24_13h51.05.880,MainFlow,2024.1.5,None,2025-07-24 13h51.23.444114 +0700,
